subj_id,subj_name,subj_gender ,subj_age,subj_handedness,subj_runNum,tar_l_x,tar_l_y,loc_code,tar_ori,tar_code,tar_pre ,cor_response,pre_code,subj_response,RT,correct,trial_num,type,bloc_num,dur, real_tar
10,lyy,f,23,r,1,(-172.20000000000002, 2.1088417881317425e-14),25,-25,14,no,m,6,m,1.7063177000381984,1,1,prac,0,1.7064570999937132,0.0
10,lyy,f,23,r,1,(-121.76378772032348, 121.76378772032349),24,5,2,yes,x,5,x,1.4839598999824375,1,2,prac,0,1.4845076999627054,-40.0
10,lyy,f,23,r,1,(-121.76378772032352, -121.76378772032348),26,-5,12,yes,x,5,x,1.0693963999510743,1,3,prac,0,1.0699840000015683,-50.0
10,lyy,f,23,r,1,(-121.76378772032348, 121.76378772032349),24,-7,13,yes,x,5,x,0.5982491999748163,1,4,prac,0,0.5983712999732234,-52.0
10,lyy,f,23,r,1,(-121.76378772032352, -121.76378772032348),26,-3,11,no,m,6,m,0.8865501999971457,1,5,prac,0,0.8866547000361606,-52.0
10,lyy,f,23,r,1,(172.20000000000002, 0.0),21,7,3,yes,x,5,x,0.7739134000148624,1,6,prac,0,0.7745373999932781,-38.0
10,lyy,f,23,r,1,(1.0544208940658713e-14, 172.20000000000002),23,5,2,no,m,6,m,0.7898382999701425,1,7,prac,0,0.790171200002078,-38.0
10,lyy,f,23,r,1,(1.0544208940658713e-14, 172.20000000000002),23,7,3,yes,x,5,x,0.563924300018698,1,8,prac,0,0.564212099998258,-38.0
10,lyy,f,23,r,1,(-121.76378772032352, -121.76378772032348),26,5,2,yes,x,5,m,0.7278498000232503,0,9,prac,0,0.728054900013376,-40.0
10,lyy,f,23,r,1,(-3.163262682197613e-14, -172.20000000000002),27,3,1,no,m,6,m,0.9373228999902494,1,10,prac,0,0.9378506999928504,-40.0
10,lyy,f,23,r,1,(1.0544208940658713e-14, 172.20000000000002),23,-25,14,yes,x,5,x,0.5418543000123464,1,11,prac,0,0.5419785000267439,-70.0
10,lyy,f,23,r,1,(-121.76378772032348, 121.76378772032349),24,-3,11,yes,x,5,x,0.6621658999938518,1,12,prac,0,0.6623916000244208,-48.0
10,lyy,f,23,r,1,(121.76378772032349, 121.76378772032349),22,-25,14,yes,x,5,x,0.4827979999827221,1,13,prac,0,0.48298579995753244,-70.0
10,lyy,f,23,r,1,(1.0544208940658713e-14, 172.20000000000002),23,-5,12,no,m,6,m,0.8486826000153087,1,14,prac,0,0.8487834999687038,-70.0
10,lyy,f,23,r,1,(-172.20000000000002, 2.1088417881317425e-14),25,-5,12,yes,x,5,x,0.608744699973613,1,15,prac,0,0.6089457999914885,-50.0
10,lyy,f,23,r,1,(-172.20000000000002, 2.1088417881317425e-14),25,5,2,yes,x,5,x,0.4654972999705933,1,16,prac,0,0.4658087000134401,-40.0
10,lyy,f,23,r,1,(172.20000000000002, 0.0),21,5,2,yes,x,5,x,0.7039794000447728,1,17,prac,0,0.7041231999755837,-40.0
10,lyy,f,23,r,1,(1.0544208940658713e-14, 172.20000000000002),23,-3,11,no,m,6,m,0.7481978999567218,1,18,prac,0,0.7482957000029273,-40.0
10,lyy,f,23,r,1,(-121.76378772032348, 121.76378772032349),24,-7,13,no,m,6,m,1.069941000023391,1,19,prac,0,1.070041700033471,-40.0
10,lyy,f,23,r,1,(-3.163262682197613e-14, -172.20000000000002),27,25,4,no,m,6,m,0.8169340000022203,1,20,prac,0,0.8170925000449643,-40.0
10,lyy,f,23,r,1,(121.76378772032346, -121.76378772032352),28,25,4,no,m,6,m,0.8143936000415124,1,1,test1,1,0.8146369000314735,-40.0
10,lyy,f,23,r,1,(1.0544208940658713e-14, 172.20000000000002),23,25,4,yes,x,5,x,0.6022583000012673,1,2,test1,1,0.6023589999531396,-20.0
10,lyy,f,23,r,1,(1.0544208940658713e-14, 172.20000000000002),23,-5,12,no,m,6,m,0.6953945000423118,1,3,test1,1,0.6955009000375867,-20.0
10,lyy,f,23,r,1,(121.76378772032346, -121.76378772032352),28,3,1,yes,x,5,m,0.6023833000217564,0,4,test1,1,0.6032080000150017,-42.0
10,lyy,f,23,r,1,(1.0544208940658713e-14, 172.20000000000002),23,7,3,yes,x,5,x,0.5367713000159711,1,5,test1,1,0.5371350000496022,-38.0
10,lyy,f,23,r,1,(-121.76378772032352, -121.76378772032348),26,-3,11,yes,x,5,m,1.005510899994988,0,6,test1,1,1.006157899973914,-48.0
10,lyy,f,23,r,1,(-121.76378772032352, -121.76378772032348),26,7,3,yes,x,5,x,1.0488207999733277,1,7,test1,1,1.0489361999789253,-38.0
10,lyy,f,23,r,1,(172.20000000000002, 0.0),21,7,3,yes,x,5,x,0.6847706999978982,1,8,test1,1,0.6848935000016354,-38.0
10,lyy,f,23,r,1,(-121.76378772032348, 121.76378772032349),24,3,1,yes,x,5,x,0.8415559999994002,1,9,test1,1,0.8418446999858133,-42.0
10,lyy,f,23,r,1,(121.76378772032346, -121.76378772032352),28,7,3,yes,x,5,x,0.8315501000033692,1,10,test1,1,0.8317968000192195,-38.0
10,lyy,f,23,r,1,(121.76378772032349, 121.76378772032349),22,-3,11,yes,x,5,m,1.1519523999886587,0,11,test1,1,1.1520789000205696,-48.0
10,lyy,f,23,r,1,(121.76378772032349, 121.76378772032349),22,-25,14,yes,x,5,x,0.5800659999949858,1,12,test1,1,0.5801703999750316,-70.0
10,lyy,f,23,r,1,(-121.76378772032352, -121.76378772032348),26,5,2,no,m,6,m,1.3343165999976918,1,13,test1,1,1.334735099982936,-70.0
10,lyy,f,23,r,1,(-172.20000000000002, 2.1088417881317425e-14),25,-25,14,yes,x,5,x,0.5686597000458278,1,14,test1,1,0.5688027000287548,-70.0
10,lyy,f,23,r,1,(121.76378772032349, 121.76378772032349),22,-3,11,no,m,6,m,1.0784501999733038,1,15,test1,1,1.07894519995898,-70.0
10,lyy,f,23,r,1,(-121.76378772032348, 121.76378772032349),24,-5,12,no,m,6,m,1.2469446000177413,1,16,test1,1,1.2470595999620855,-70.0
10,lyy,f,23,r,1,(-121.76378772032348, 121.76378772032349),24,25,4,yes,x,5,x,0.5317356999730691,1,17,test1,1,0.5319626000127755,-20.0
10,lyy,f,23,r,1,(121.76378772032349, 121.76378772032349),22,-5,12,yes,x,5,x,0.7158709000214003,1,18,test1,1,0.7159701000200585,-50.0
10,lyy,f,23,r,1,(1.0544208940658713e-14, 172.20000000000002),23,3,1,yes,x,5,x,0.5829073000350036,1,19,test1,1,0.5830103000043891,-42.0
10,lyy,f,23,r,1,(1.0544208940658713e-14, 172.20000000000002),23,25,4,no,m,6,m,0.8040053000440821,1,20,test1,1,0.8041079999529757,-42.0
10,lyy,f,23,r,1,(172.20000000000002, 0.0),21,-5,12,yes,x,5,x,0.6798866000026464,1,21,test1,1,0.6800460999947973,-50.0
10,lyy,f,23,r,1,(-121.76378772032348, 121.76378772032349),24,-25,14,no,m,6,m,0.9015853999881074,1,22,test1,1,0.9019394000060856,-50.0
10,lyy,f,23,r,1,(1.0544208940658713e-14, 172.20000000000002),23,-7,13,yes,x,5,x,0.4806100999703631,1,23,test1,1,0.48115840001264587,-52.0
10,lyy,f,23,r,1,(121.76378772032349, 121.76378772032349),22,7,3,yes,x,5,x,0.5421529000159353,1,24,test1,1,0.5424118000082672,-38.0
10,lyy,f,23,r,1,(172.20000000000002, 0.0),21,-25,14,no,m,6,m,0.6594977000495419,1,25,test1,1,0.6597846999648027,-38.0
10,lyy,f,23,r,1,(-121.76378772032348, 121.76378772032349),24,5,2,no,m,6,m,0.9015484999981709,1,26,test1,1,0.9017929999972694,-38.0
10,lyy,f,23,r,1,(-121.76378772032352, -121.76378772032348),26,-7,13,yes,x,5,x,0.5014836000045761,1,27,test1,1,0.5015984000056051,-52.0
10,lyy,f,23,r,1,(172.20000000000002, 0.0),21,3,1,yes,x,5,x,0.9242607000051066,1,28,test1,1,0.9245266999932937,-42.0
10,lyy,f,23,r,1,(121.76378772032349, 121.76378772032349),22,3,1,yes,x,5,x,0.9692364000366069,1,29,test1,1,0.9693333999603055,-42.0
10,lyy,f,23,r,1,(172.20000000000002, 0.0),21,-25,14,yes,x,5,x,0.4786405000486411,1,30,test1,1,0.4789174000034109,-70.0
10,lyy,f,23,r,1,(-172.20000000000002, 2.1088417881317425e-14),25,5,2,no,m,6,m,1.29413840000052,1,31,test1,1,1.2943331999704242,-70.0
10,lyy,f,23,r,1,(121.76378772032349, 121.76378772032349),22,7,3,no,m,6,m,1.1983648999594152,1,32,test1,1,1.1984803999657743,-70.0
10,lyy,f,23,r,1,(-121.76378772032352, -121.76378772032348),26,3,1,yes,x,5,x,0.851029000012204,1,33,test1,1,0.8513737000175752,-42.0
10,lyy,f,23,r,1,(-3.163262682197613e-14, -172.20000000000002),27,25,4,yes,x,5,x,0.514036699954886,1,34,test1,1,0.514503100013826,-20.0
10,lyy,f,23,r,1,(172.20000000000002, 0.0),21,3,1,yes,x,5,x,0.7033248000079766,1,35,test1,1,0.7034272999735549,-42.0
10,lyy,f,23,r,1,(121.76378772032346, -121.76378772032352),28,-3,11,yes,x,5,x,1.1421299999929033,1,36,test1,1,1.1424569999799132,-48.0
10,lyy,f,23,r,1,(121.76378772032346, -121.76378772032352),28,-5,12,yes,x,5,x,0.8019582999986596,1,37,test1,1,0.8021178000490181,-50.0
10,lyy,f,23,r,1,(-172.20000000000002, 2.1088417881317425e-14),25,7,3,yes,x,5,x,0.5105383999762125,1,38,test1,1,0.5108004999929108,-38.0
10,lyy,f,23,r,1,(-121.76378772032352, -121.76378772032348),26,5,2,yes,x,5,x,0.4755858000135049,1,39,test1,1,0.4758711999747902,-40.0
10,lyy,f,23,r,1,(172.20000000000002, 0.0),21,-25,14,yes,x,5,x,0.4051427000085823,1,40,test1,1,0.4057269999757409,-70.0
10,lyy,f,23,r,1,(121.76378772032349, 121.76378772032349),22,3,1,yes,x,5,None,None,0,41,test1,1,1.9800932999933138,-42.0
10,lyy,f,23,r,1,(172.20000000000002, 0.0),21,-3,11,yes,x,5,x,0.5789626999758184,1,42,test1,1,0.5790931999799795,-48.0
10,lyy,f,23,r,1,(-172.20000000000002, 2.1088417881317425e-14),25,-5,12,yes,x,5,x,0.4517692999797873,1,43,test1,1,0.4519025000045076,-50.0
10,lyy,f,23,r,1,(-3.163262682197613e-14, -172.20000000000002),27,3,1,yes,x,5,x,1.1210234999889508,1,44,test1,1,1.1213562000193633,-42.0
10,lyy,f,23,r,1,(1.0544208940658713e-14, 172.20000000000002),23,25,4,yes,x,5,x,0.4610585999907926,1,45,test1,1,0.46128350001526996,-20.0
10,lyy,f,23,r,1,(1.0544208940658713e-14, 172.20000000000002),23,-25,14,yes,x,5,x,0.45457170001463965,1,46,test1,1,0.4547189999721013,-70.0
10,lyy,f,23,r,1,(172.20000000000002, 0.0),21,-5,12,yes,x,5,x,0.5287936999811791,1,47,test1,1,0.5289198000100441,-50.0
10,lyy,f,23,r,1,(-121.76378772032352, -121.76378772032348),26,-3,11,no,m,6,x,0.8143780999816954,0,48,test1,1,0.8150275999796577,-50.0
10,lyy,f,23,r,1,(-3.163262682197613e-14, -172.20000000000002),27,7,3,no,m,6,m,1.0014998000115156,1,49,test1,1,1.0016501999925822,-50.0
10,lyy,f,23,r,1,(-121.76378772032352, -121.76378772032348),26,-25,14,no,m,6,m,1.4526346999919042,1,50,test1,1,1.452743300003931,-50.0
10,lyy,f,23,r,1,(-121.76378772032348, 121.76378772032349),24,-3,11,yes,x,5,x,0.9034741999930702,1,51,test1,1,0.903697400004603,-48.0
10,lyy,f,23,r,1,(172.20000000000002, 0.0),21,-7,13,no,m,6,m,1.110948899993673,1,52,test1,1,1.1110529000288807,-48.0
10,lyy,f,23,r,1,(1.0544208940658713e-14, 172.20000000000002),23,3,1,yes,x,5,x,1.2106085999985225,1,53,test1,1,1.2107672999845818,-42.0
10,lyy,f,23,r,1,(121.76378772032349, 121.76378772032349),22,-25,14,yes,x,5,x,0.5861565000377595,1,54,test1,1,0.5862817000015639,-70.0
10,lyy,f,23,r,1,(121.76378772032346, -121.76378772032352),28,-3,11,no,m,6,m,0.9241723000304773,1,55,test1,1,0.9246916000265628,-70.0
10,lyy,f,23,r,1,(-3.163262682197613e-14, -172.20000000000002),27,-25,14,no,m,6,m,1.161948399967514,1,56,test1,1,1.1620496999821626,-70.0
10,lyy,f,23,r,1,(-172.20000000000002, 2.1088417881317425e-14),25,-3,11,no,m,6,m,0.9005433999700472,1,57,test1,1,0.9009975999942981,-70.0
10,lyy,f,23,r,1,(-3.163262682197613e-14, -172.20000000000002),27,-5,12,no,m,6,m,0.9797969999490306,1,58,test1,1,0.9799262000015005,-70.0
10,lyy,f,23,r,1,(-3.163262682197613e-14, -172.20000000000002),27,25,4,yes,x,5,x,0.4004383999854326,1,59,test1,1,0.40069599996786565,-20.0
10,lyy,f,23,r,1,(172.20000000000002, 0.0),21,-3,11,yes,x,5,x,1.1624946999945678,1,60,test1,1,1.1626590000232682,-48.0
10,lyy,f,23,r,1,(-121.76378772032348, 121.76378772032349),24,-7,13,no,m,6,m,0.9175784000544809,1,61,test1,1,0.9178790000150912,-48.0
10,lyy,f,23,r,1,(121.76378772032346, -121.76378772032352),28,-5,12,no,m,6,m,0.7819619000074454,1,62,test1,1,0.7824674999574199,-48.0
10,lyy,f,23,r,1,(121.76378772032346, -121.76378772032352),28,-25,14,no,m,6,m,0.7800687999697402,1,63,test1,1,0.7802920999820344,-48.0
10,lyy,f,23,r,1,(121.76378772032346, -121.76378772032352),28,3,1,no,m,6,m,0.6866260999813676,1,64,test1,1,0.6867482999805361,-48.0
10,lyy,f,23,r,1,(1.0544208940658713e-14, 172.20000000000002),23,-5,12,yes,x,5,x,0.5231803000206128,1,65,test1,1,0.5233018000144511,-50.0
10,lyy,f,23,r,1,(-172.20000000000002, 2.1088417881317425e-14),25,7,3,no,m,6,m,0.6982146000373177,1,66,test1,1,0.6988180999760516,-50.0
10,lyy,f,23,r,1,(121.76378772032349, 121.76378772032349),22,-7,13,yes,x,5,x,0.48982799996156245,1,67,test1,1,0.4899250000016764,-52.0
10,lyy,f,23,r,1,(121.76378772032346, -121.76378772032352),28,-3,11,yes,x,5,m,0.6093432999914512,0,68,test1,1,0.6095770000247285,-48.0
10,lyy,f,23,r,1,(121.76378772032349, 121.76378772032349),22,25,4,no,m,6,m,0.9006298999884166,1,69,test1,1,0.9008551000151783,-48.0
10,lyy,f,23,r,1,(-121.76378772032348, 121.76378772032349),24,7,3,yes,x,5,x,0.555830099969171,1,70,test1,1,0.5560556999989785,-38.0
10,lyy,f,23,r,1,(-121.76378772032352, -121.76378772032348),26,5,2,yes,x,5,x,0.8566316000069492,1,71,test1,1,0.8567498000338674,-40.0
10,lyy,f,23,r,1,(-172.20000000000002, 2.1088417881317425e-14),25,-25,14,no,m,6,m,1.0910230000154115,1,72,test1,1,1.091501299990341,-40.0
10,lyy,f,23,r,1,(1.0544208940658713e-14, 172.20000000000002),23,-3,11,no,m,6,m,1.3583806999959052,1,73,test1,1,1.3586453000316396,-40.0
10,lyy,f,23,r,1,(-3.163262682197613e-14, -172.20000000000002),27,7,3,yes,x,5,x,0.5171489000204019,1,74,test1,1,0.517696299997624,-38.0
10,lyy,f,23,r,1,(-3.163262682197613e-14, -172.20000000000002),27,25,4,no,m,6,m,0.8007500999956392,1,75,test1,1,0.8008787999860942,-38.0
10,lyy,f,23,r,1,(-3.163262682197613e-14, -172.20000000000002),27,-7,13,yes,x,5,x,0.5693465999793261,1,76,test1,1,0.569440699997358,-52.0
10,lyy,f,23,r,1,(-172.20000000000002, 2.1088417881317425e-14),25,5,2,yes,x,5,x,0.6369943999452516,1,77,test1,1,0.6371412000153214,-40.0
10,lyy,f,23,r,1,(-172.20000000000002, 2.1088417881317425e-14),25,25,4,yes,x,5,x,0.4224761999794282,1,78,test1,1,0.4225816000252962,-20.0
10,lyy,f,23,r,1,(1.0544208940658713e-14, 172.20000000000002),23,7,3,yes,x,5,x,0.48365569999441504,1,79,test1,1,0.4839365999796428,-38.0
10,lyy,f,23,r,1,(1.0544208940658713e-14, 172.20000000000002),23,5,2,no,m,6,m,0.9630962000228465,1,80,test1,1,0.9632102999603376,-38.0
10,lyy,f,23,r,1,(121.76378772032349, 121.76378772032349),22,-5,12,yes,x,5,x,0.6460315000149421,1,81,test1,1,0.646191900013946,-50.0
10,lyy,f,23,r,1,(-121.76378772032348, 121.76378772032349),24,3,1,yes,x,5,x,0.8903309000306763,1,82,test1,1,0.8906463999883272,-42.0
10,lyy,f,23,r,1,(172.20000000000002, 0.0),21,-7,13,yes,x,5,x,0.5496891999500804,1,83,test1,1,0.5500153999892063,-52.0
10,lyy,f,23,r,1,(-121.76378772032348, 121.76378772032349),24,5,2,yes,x,5,x,0.6451778000337072,1,84,test1,1,0.6452962000039406,-40.0
10,lyy,f,23,r,1,(172.20000000000002, 0.0),21,25,4,yes,x,5,x,0.5558711999910884,1,85,test1,1,0.5562699000001885,-20.0
10,lyy,f,23,r,1,(-172.20000000000002, 2.1088417881317425e-14),25,-7,13,yes,x,5,x,0.5317112999618985,1,86,test1,1,0.5320209999918006,-52.0
10,lyy,f,23,r,1,(-172.20000000000002, 2.1088417881317425e-14),25,25,4,no,m,6,m,0.8123322999454103,1,87,test1,1,0.8125999000039883,-52.0
10,lyy,f,23,r,1,(-121.76378772032348, 121.76378772032349),24,25,4,no,m,6,m,0.7121837000013329,1,88,test1,1,0.7124745000037365,-52.0
10,lyy,f,23,r,1,(1.0544208940658713e-14, 172.20000000000002),23,-3,11,yes,x,5,m,0.8897365999873728,0,89,test1,1,0.8898320000153035,-48.0
10,lyy,f,23,r,1,(121.76378772032346, -121.76378772032352),28,25,4,yes,x,5,x,0.5600915999966674,1,90,test1,1,0.5603654999868013,-20.0
10,lyy,f,23,r,1,(-121.76378772032348, 121.76378772032349),24,-5,12,yes,x,5,x,0.6817482999758795,1,91,test1,1,0.6821704999892972,-50.0
10,lyy,f,23,r,1,(1.0544208940658713e-14, 172.20000000000002),23,7,3,no,m,6,m,1.1807804999989457,1,92,test1,1,1.1808979999623261,-50.0
10,lyy,f,23,r,1,(-121.76378772032352, -121.76378772032348),26,25,4,yes,x,5,x,0.5950185999972746,1,93,test1,1,0.5952751999720931,-20.0
10,lyy,f,23,r,1,(-172.20000000000002, 2.1088417881317425e-14),25,7,3,yes,x,5,x,0.6957694999873638,1,94,test1,1,0.695869599992875,-38.0
10,lyy,f,23,r,1,(1.0544208940658713e-14, 172.20000000000002),23,5,2,yes,x,5,x,0.5456821999978274,1,95,test1,1,0.546234600013122,-40.0
10,lyy,f,23,r,1,(1.0544208940658713e-14, 172.20000000000002),23,-25,14,no,m,6,m,0.7610972999827936,1,96,test1,1,0.7617659000097774,-40.0
10,lyy,f,23,r,1,(-121.76378772032352, -121.76378772032348),26,-5,12,no,m,6,m,1.269401099998504,1,1,test2,1,1.269804900046438,-40.0
10,lyy,f,23,r,1,(121.76378772032346, -121.76378772032352),28,-7,13,yes,x,5,x,0.6232596000190824,1,2,test2,1,0.6234084999887273,-52.0
10,lyy,f,23,r,1,(1.0544208940658713e-14, 172.20000000000002),23,5,2,yes,x,5,x,0.7231526999967173,1,3,test2,1,0.7234222000115551,-40.0
10,lyy,f,23,r,1,(-121.76378772032352, -121.76378772032348),26,-5,12,yes,x,5,x,0.8213166000205092,1,4,test2,1,0.821913100022357,-50.0
10,lyy,f,23,r,1,(-172.20000000000002, 2.1088417881317425e-14),25,5,2,yes,x,5,x,0.4879846000112593,1,5,test2,1,0.4880900999996811,-40.0
10,lyy,f,23,r,1,(-172.20000000000002, 2.1088417881317425e-14),25,-3,11,yes,x,5,x,0.789803399995435,1,6,test2,1,0.7898976999567822,-48.0
10,lyy,f,23,r,1,(-121.76378772032348, 121.76378772032349),24,7,3,yes,x,5,x,0.5078981000115164,1,7,test2,1,0.508123199979309,-38.0
10,lyy,f,23,r,1,(-172.20000000000002, 2.1088417881317425e-14),25,-7,13,yes,x,5,x,0.4626299999654293,1,8,test2,1,0.4628579000127502,-52.0
10,lyy,f,23,r,1,(1.0544208940658713e-14, 172.20000000000002),23,-5,12,yes,x,5,x,0.5125490999780595,1,9,test2,1,0.5127162999706343,-50.0
10,lyy,f,23,r,1,(-121.76378772032348, 121.76378772032349),24,-7,13,yes,x,5,x,0.4501295000081882,1,10,test2,1,0.4502620000275783,-52.0
10,lyy,f,23,r,1,(-121.76378772032352, -121.76378772032348),26,25,4,no,m,6,m,0.8076396999531426,1,11,test2,1,0.8077632000204176,-52.0
10,lyy,f,23,r,1,(121.76378772032346, -121.76378772032352),28,-25,14,yes,x,5,x,0.5152275000000373,1,12,test2,1,0.5153959000017494,-70.0
10,lyy,f,23,r,1,(-121.76378772032352, -121.76378772032348),26,25,4,yes,x,5,x,0.4715969000244513,1,13,test2,1,0.4717114999657497,-20.0
10,lyy,f,23,r,1,(121.76378772032349, 121.76378772032349),22,-3,11,yes,x,5,x,0.698806100001093,1,14,test2,1,0.6993353000143543,-48.0
10,lyy,f,23,r,1,(-121.76378772032352, -121.76378772032348),26,7,3,no,m,6,m,1.3373438999988139,1,15,test2,1,1.3375664000050165,-48.0
10,lyy,f,23,r,1,(-121.76378772032348, 121.76378772032349),24,-3,11,yes,x,5,x,0.8697752000298351,1,16,test2,1,0.8698882000171579,-48.0
10,lyy,f,23,r,1,(1.0544208940658713e-14, 172.20000000000002),23,3,1,no,m,6,m,0.7505208000075072,1,17,test2,1,0.7508111000061035,-48.0
10,lyy,f,23,r,1,(-172.20000000000002, 2.1088417881317425e-14),25,-5,12,yes,x,5,x,0.5330687999958172,1,18,test2,1,0.5334125999943353,-50.0
10,lyy,f,23,r,1,(121.76378772032346, -121.76378772032352),28,-7,13,no,m,6,m,1.403947499988135,1,19,test2,1,1.4044397000106983,-50.0
10,lyy,f,23,r,1,(121.76378772032349, 121.76378772032349),22,5,2,yes,x,5,x,0.7657289000344463,1,20,test2,1,0.766005799989216,-40.0
10,lyy,f,23,r,1,(-121.76378772032348, 121.76378772032349),24,-3,11,no,m,6,m,1.080761799996253,1,21,test2,1,1.0808879000251181,-40.0
10,lyy,f,23,r,1,(121.76378772032349, 121.76378772032349),22,3,1,no,m,6,m,0.8008676000172272,1,22,test2,1,0.8010015999898314,-40.0
10,lyy,f,23,r,1,(-172.20000000000002, 2.1088417881317425e-14),25,-7,13,no,m,6,m,0.9021023000241257,1,23,test2,1,0.9025039999978617,-40.0
10,lyy,f,23,r,1,(121.76378772032346, -121.76378772032352),28,25,4,yes,x,5,x,0.5098476000130177,1,24,test2,1,0.5099823999917135,-20.0
10,lyy,f,23,r,1,(-3.163262682197613e-14, -172.20000000000002),27,-3,11,yes,x,5,x,1.399847399967257,1,25,test2,1,1.4000884999986738,-48.0
10,lyy,f,23,r,1,(121.76378772032346, -121.76378772032352),28,7,3,no,m,6,m,1.2781301999930292,1,26,test2,1,1.278342999983579,-48.0
10,lyy,f,23,r,1,(-3.163262682197613e-14, -172.20000000000002),27,-5,12,yes,x,5,x,0.5344472999568097,1,27,test2,1,0.5349535999703221,-50.0
10,lyy,f,23,r,1,(-121.76378772032352, -121.76378772032348),26,3,1,yes,x,5,x,0.8298960000392981,1,28,test2,1,0.8304330999962986,-42.0
10,lyy,f,23,r,1,(-3.163262682197613e-14, -172.20000000000002),27,-5,12,yes,x,5,x,0.534409100015182,1,29,test2,1,0.5348699999740347,-50.0
10,lyy,f,23,r,1,(1.0544208940658713e-14, 172.20000000000002),23,-25,14,yes,x,5,x,0.446954800048843,1,30,test2,1,0.44709299999522045,-70.0
10,lyy,f,23,r,1,(-3.163262682197613e-14, -172.20000000000002),27,5,2,yes,x,5,x,0.5635548999998719,1,31,test2,1,0.5636570999631658,-40.0
10,lyy,f,23,r,1,(-121.76378772032352, -121.76378772032348),26,3,1,no,m,6,m,0.8653361999895424,1,32,test2,1,0.8656083999667317,-40.0
10,lyy,f,23,r,1,(121.76378772032346, -121.76378772032352),28,-5,12,yes,x,5,x,1.0321300000068732,1,33,test2,1,1.0330382999964058,-50.0
10,lyy,f,23,r,1,(121.76378772032346, -121.76378772032352),28,-7,13,yes,x,5,x,0.5467174999648705,1,34,test2,1,0.5468233000137843,-52.0
10,lyy,f,23,r,1,(-121.76378772032348, 121.76378772032349),24,-5,12,yes,x,5,x,0.7104201000183821,1,35,test2,1,0.7105599999777041,-50.0
10,lyy,f,23,r,1,(-121.76378772032348, 121.76378772032349),24,-7,13,yes,x,5,x,0.46138329996028915,1,36,test2,1,0.4616657000151463,-52.0
10,lyy,f,23,r,1,(121.76378772032346, -121.76378772032352),28,-25,14,yes,x,5,x,0.41773169999942183,1,37,test2,1,0.4179610999999568,-70.0
10,lyy,f,23,r,1,(121.76378772032346, -121.76378772032352),28,5,2,yes,x,5,x,0.9492423999472521,1,38,test2,1,0.9494122000178322,-40.0
10,lyy,f,23,r,1,(-3.163262682197613e-14, -172.20000000000002),27,5,2,yes,x,5,x,0.6419651999603957,1,39,test2,1,0.6420950999599881,-40.0
10,lyy,f,23,r,1,(1.0544208940658713e-14, 172.20000000000002),23,-7,13,yes,x,5,x,0.596988900040742,1,40,test2,1,0.5971643999801017,-52.0
10,lyy,f,23,r,1,(172.20000000000002, 0.0),21,5,2,no,m,6,m,0.6456593999755569,1,41,test2,1,0.6458865000167862,-52.0
10,lyy,f,23,r,1,(121.76378772032349, 121.76378772032349),22,-7,13,yes,x,5,x,0.5761993000051007,1,42,test2,1,0.5768526999745518,-52.0
10,lyy,f,23,r,1,(121.76378772032349, 121.76378772032349),22,5,2,no,m,6,m,0.7963819000287913,1,43,test2,1,0.7964801000198349,-52.0
10,lyy,f,23,r,1,(172.20000000000002, 0.0),21,25,4,yes,x,5,x,0.47667489998275414,1,44,test2,1,0.47737059998326004,-20.0
10,lyy,f,23,r,1,(-121.76378772032348, 121.76378772032349),24,3,1,no,m,6,m,0.6380814000149257,1,45,test2,1,0.6384151999955066,-20.0
10,lyy,f,23,r,1,(1.0544208940658713e-14, 172.20000000000002),23,-7,13,no,m,6,m,0.8344047000282444,1,46,test2,1,0.8345903000445105,-20.0
10,lyy,f,23,r,1,(-121.76378772032348, 121.76378772032349),24,7,3,no,m,6,m,0.8949315000209026,1,47,test2,1,0.8951723999925889,-20.0
10,lyy,f,23,r,1,(-3.163262682197613e-14, -172.20000000000002),27,3,1,no,m,6,m,0.8610917000332847,1,48,test2,1,0.8613644000142813,-20.0
10,lyy,f,23,r,1,(121.76378772032346, -121.76378772032352),28,5,2,yes,x,5,x,0.547876600001473,1,49,test2,1,0.5482372000114992,-40.0
10,lyy,f,23,r,1,(-3.163262682197613e-14, -172.20000000000002),27,3,1,yes,x,5,x,0.9070679999422282,1,50,test2,1,0.9072281999979168,-42.0
10,lyy,f,23,r,1,(-121.76378772032352, -121.76378772032348),26,-7,13,no,m,6,m,0.874629600031767,1,51,test2,1,0.8749340000213124,-42.0
10,lyy,f,23,r,1,(172.20000000000002, 0.0),21,5,2,yes,x,5,x,0.5343347000307404,1,52,test2,1,0.5344332999666221,-40.0
10,lyy,f,23,r,1,(-172.20000000000002, 2.1088417881317425e-14),25,25,4,yes,x,5,x,0.49389099999098107,1,53,test2,1,0.4940171000198461,-20.0
10,lyy,f,23,r,1,(-121.76378772032352, -121.76378772032348),26,7,3,yes,x,5,x,0.8139282000483945,1,54,test2,1,0.8140258000348695,-38.0
10,lyy,f,23,r,1,(121.76378772032349, 121.76378772032349),22,25,4,yes,x,5,x,0.851674199977424,1,55,test2,1,0.8521633999771439,-20.0
10,lyy,f,23,r,1,(-121.76378772032348, 121.76378772032349),24,5,2,yes,x,5,x,0.5494209000025876,1,56,test2,1,0.54959329997655,-40.0
10,lyy,f,23,r,1,(-121.76378772032348, 121.76378772032349),24,-25,14,yes,x,5,x,0.4579960000119172,1,57,test2,1,0.4581002000486478,-70.0
10,lyy,f,23,r,1,(-121.76378772032352, -121.76378772032348),26,-5,12,yes,x,5,x,1.0936185999889858,1,58,test2,1,1.0937269999994896,-50.0
10,lyy,f,23,r,1,(-3.163262682197613e-14, -172.20000000000002),27,-7,13,no,m,6,m,0.9286501000169665,1,59,test2,1,0.9287770999944769,-50.0
10,lyy,f,23,r,1,(172.20000000000002, 0.0),21,7,3,no,m,6,m,0.7033734999713488,1,60,test2,1,0.7039308000239544,-50.0
10,lyy,f,23,r,1,(172.20000000000002, 0.0),21,7,3,yes,x,5,x,0.7190187000087462,1,61,test2,1,0.7192440999788232,-38.0
10,lyy,f,23,r,1,(121.76378772032349, 121.76378772032349),22,-7,13,no,m,6,m,1.2383392000338063,1,62,test2,1,1.2384394999826327,-38.0
10,lyy,f,23,r,1,(121.76378772032346, -121.76378772032352),28,3,1,yes,x,5,x,1.347898299980443,1,63,test2,1,1.3480013000080362,-42.0
10,lyy,f,23,r,1,(-3.163262682197613e-14, -172.20000000000002),27,-3,11,yes,x,5,x,0.6727850000024773,1,64,test2,1,0.6728977999882773,-48.0
10,lyy,f,23,r,1,(121.76378772032349, 121.76378772032349),22,5,2,yes,x,5,x,0.5980500000296161,1,65,test2,1,0.5983507999917492,-40.0
10,lyy,f,23,r,1,(-172.20000000000002, 2.1088417881317425e-14),25,3,1,yes,x,5,x,0.9720938999671489,1,66,test2,1,0.9722237999667414,-42.0
10,lyy,f,23,r,1,(-121.76378772032352, -121.76378772032348),26,-25,14,yes,x,5,x,0.4525114999851212,1,67,test2,1,0.45275260001653805,-70.0
10,lyy,f,23,r,1,(-3.163262682197613e-14, -172.20000000000002),27,-3,11,no,m,6,m,0.8067685000132769,1,68,test2,1,0.8070305000292137,-70.0
10,lyy,f,23,r,1,(172.20000000000002, 0.0),21,-5,12,no,m,6,m,0.8958870000205934,1,69,test2,1,0.8965158999781124,-70.0
10,lyy,f,23,r,1,(-3.163262682197613e-14, -172.20000000000002),27,-7,13,yes,x,5,x,0.6251624000142328,1,70,test2,1,0.6255581000004895,-52.0
10,lyy,f,23,r,1,(121.76378772032346, -121.76378772032352),28,7,3,yes,x,5,x,0.6184285000199452,1,71,test2,1,0.6188763999962248,-38.0
10,lyy,f,23,r,1,(-3.163262682197613e-14, -172.20000000000002),27,-25,14,yes,x,5,x,0.6640876000165008,1,72,test2,1,0.6644272000412457,-70.0
10,lyy,f,23,r,1,(-172.20000000000002, 2.1088417881317425e-14),25,-5,12,no,m,6,m,0.981633499963209,1,73,test2,1,0.98193240002729,-70.0
10,lyy,f,23,r,1,(-3.163262682197613e-14, -172.20000000000002),27,7,3,yes,x,5,x,0.6903340999851935,1,74,test2,1,0.6906529999687336,-38.0
10,lyy,f,23,r,1,(-3.163262682197613e-14, -172.20000000000002),27,-25,14,yes,x,5,x,0.4523120000376366,1,75,test2,1,0.4524885999853723,-70.0
10,lyy,f,23,r,1,(121.76378772032349, 121.76378772032349),22,-25,14,no,m,6,m,0.7081655999645591,1,76,test2,1,0.7082700000028126,-70.0
10,lyy,f,23,r,1,(-121.76378772032352, -121.76378772032348),26,-7,13,yes,x,5,x,0.7017980000237003,1,77,test2,1,0.7019120000186376,-52.0
10,lyy,f,23,r,1,(172.20000000000002, 0.0),21,3,1,no,m,6,m,0.9708870999747887,1,78,test2,1,0.9709991000127047,-52.0
10,lyy,f,23,r,1,(-172.20000000000002, 2.1088417881317425e-14),25,-3,11,yes,x,5,x,0.9277531999978237,1,79,test2,1,0.9278533999458887,-48.0
10,lyy,f,23,r,1,(-121.76378772032348, 121.76378772032349),24,25,4,yes,x,5,x,0.5607633999898098,1,80,test2,1,0.5609783000545576,-20.0
10,lyy,f,23,r,1,(-172.20000000000002, 2.1088417881317425e-14),25,3,1,yes,x,5,x,0.885027699987404,1,81,test2,1,0.8851641999790445,-42.0
10,lyy,f,23,r,1,(172.20000000000002, 0.0),21,-7,13,yes,x,5,x,0.5645748000242747,1,82,test2,1,0.5648115999647416,-52.0
10,lyy,f,23,r,1,(-121.76378772032352, -121.76378772032348),26,-3,11,yes,x,5,x,0.8424447000143118,1,83,test2,1,0.8429736000252888,-48.0
10,lyy,f,23,r,1,(172.20000000000002, 0.0),21,-3,11,no,m,6,m,1.1744018999743275,1,84,test2,1,1.1745066000148654,-48.0
10,lyy,f,23,r,1,(172.20000000000002, 0.0),21,25,4,no,m,6,m,0.6784850999829359,1,85,test2,1,0.6786450000363402,-48.0
10,lyy,f,23,r,1,(-121.76378772032352, -121.76378772032348),26,-25,14,yes,x,5,x,0.4986598000396043,1,86,test2,1,0.498892400006298,-70.0
10,lyy,f,23,r,1,(-172.20000000000002, 2.1088417881317425e-14),25,3,1,no,m,6,m,1.2317927000112832,1,87,test2,1,1.2319221000070684,-70.0
10,lyy,f,23,r,1,(121.76378772032349, 121.76378772032349),22,-5,12,no,m,6,m,0.6890532000106759,1,88,test2,1,0.6891553000314161,-70.0
10,lyy,f,23,r,1,(-121.76378772032348, 121.76378772032349),24,-25,14,yes,x,5,x,0.5164159999694675,1,89,test2,1,0.5168188000097871,-70.0
10,lyy,f,23,r,1,(-172.20000000000002, 2.1088417881317425e-14),25,-25,14,yes,x,5,x,0.4749202999519184,1,90,test2,1,0.47557640000013635,-70.0
10,lyy,f,23,r,1,(121.76378772032349, 121.76378772032349),22,25,4,yes,x,5,x,0.5181815999676473,1,91,test2,1,0.5183989999932237,-20.0
10,lyy,f,23,r,1,(121.76378772032346, -121.76378772032352),28,5,2,no,m,6,m,0.6537382999667898,1,92,test2,1,0.6539492000010796,-20.0
10,lyy,f,23,r,1,(121.76378772032349, 121.76378772032349),22,7,3,yes,x,5,x,0.9407721000025049,1,93,test2,1,0.9408715000026859,-38.0
10,lyy,f,23,r,1,(172.20000000000002, 0.0),21,5,2,yes,x,5,x,0.5053328999783844,1,94,test2,1,0.5056278000120074,-40.0
10,lyy,f,23,r,1,(1.0544208940658713e-14, 172.20000000000002),23,-3,11,yes,x,5,x,1.2365026999614201,1,95,test2,1,1.2367197999847122,-48.0
10,lyy,f,23,r,1,(-3.163262682197613e-14, -172.20000000000002),27,5,2,no,m,6,m,0.9019394000060856,1,96,test2,1,0.902063800022006,-48.0
10,lyy,f,23,r,1,(121.76378772032346, -121.76378772032352),28,25,4,no,m,6,m,1.2732297999900766,1,1,test1,2,1.2735582999885082,-48.0
10,lyy,f,23,r,1,(1.0544208940658713e-14, 172.20000000000002),23,25,4,yes,x,5,x,0.681929099955596,1,2,test1,2,0.6820747000165284,-20.0
10,lyy,f,23,r,1,(1.0544208940658713e-14, 172.20000000000002),23,-5,12,no,m,6,m,0.9143899999908172,1,3,test1,2,0.9150407000561245,-20.0
10,lyy,f,23,r,1,(121.76378772032346, -121.76378772032352),28,3,1,yes,x,5,x,1.1305008999770507,1,4,test1,2,1.130747799994424,-42.0
10,lyy,f,23,r,1,(1.0544208940658713e-14, 172.20000000000002),23,7,3,yes,x,5,x,0.4495240000542253,1,5,test1,2,0.4497345000272617,-38.0
10,lyy,f,23,r,1,(-121.76378772032352, -121.76378772032348),26,-3,11,yes,x,5,x,0.9378781999694183,1,6,test1,2,0.938106199959293,-48.0
10,lyy,f,23,r,1,(-121.76378772032352, -121.76378772032348),26,7,3,yes,x,5,x,0.46464219997869805,1,7,test1,2,0.46475779998581856,-38.0
10,lyy,f,23,r,1,(172.20000000000002, 0.0),21,7,3,yes,x,5,x,0.4673202999983914,1,8,test1,2,0.46744089998537675,-38.0
10,lyy,f,23,r,1,(-121.76378772032348, 121.76378772032349),24,3,1,yes,x,5,x,0.7182829999946989,1,9,test1,2,0.7186351999989711,-42.0
10,lyy,f,23,r,1,(121.76378772032346, -121.76378772032352),28,7,3,yes,x,5,x,0.6897584000253119,1,10,test1,2,0.690014699997846,-38.0
10,lyy,f,23,r,1,(121.76378772032349, 121.76378772032349),22,-3,11,yes,x,5,x,0.6236116999643855,1,11,test1,2,0.6237230999977328,-48.0
10,lyy,f,23,r,1,(121.76378772032349, 121.76378772032349),22,-25,14,yes,x,5,x,0.4370817000162788,1,12,test1,2,0.4377149000065401,-70.0
10,lyy,f,23,r,1,(-121.76378772032352, -121.76378772032348),26,5,2,no,m,6,m,0.7845051999902353,1,13,test1,2,0.7846596000017598,-70.0
10,lyy,f,23,r,1,(-172.20000000000002, 2.1088417881317425e-14),25,-25,14,yes,x,5,x,0.5709899999783374,1,14,test1,2,0.5712249000207521,-70.0
10,lyy,f,23,r,1,(121.76378772032349, 121.76378772032349),22,-3,11,no,m,6,m,0.8379266000119969,1,15,test1,2,0.8380939000053331,-70.0
10,lyy,f,23,r,1,(-121.76378772032348, 121.76378772032349),24,-5,12,no,m,6,m,1.2140149000333622,1,16,test1,2,1.214618000027258,-70.0
10,lyy,f,23,r,1,(-121.76378772032348, 121.76378772032349),24,25,4,yes,x,5,x,0.47633309999946505,1,17,test1,2,0.47666929999832064,-20.0
10,lyy,f,23,r,1,(121.76378772032349, 121.76378772032349),22,-5,12,yes,x,5,x,0.6019215999986045,1,18,test1,2,0.6020214000018314,-50.0
10,lyy,f,23,r,1,(1.0544208940658713e-14, 172.20000000000002),23,3,1,yes,x,5,x,0.8940886000054888,1,19,test1,2,0.894217099994421,-42.0
10,lyy,f,23,r,1,(1.0544208940658713e-14, 172.20000000000002),23,25,4,no,m,6,m,1.0860563999740407,1,20,test1,2,1.08618209999986,-42.0
10,lyy,f,23,r,1,(172.20000000000002, 0.0),21,-5,12,yes,x,5,x,0.4596834999974817,1,21,test1,2,0.4597969999886118,-50.0
10,lyy,f,23,r,1,(-121.76378772032348, 121.76378772032349),24,-25,14,no,m,6,m,1.157709299994167,1,22,test1,2,1.157904299965594,-50.0
10,lyy,f,23,r,1,(1.0544208940658713e-14, 172.20000000000002),23,-7,13,yes,x,5,x,0.49828170001273975,1,23,test1,2,0.498929199995473,-52.0
10,lyy,f,23,r,1,(121.76378772032349, 121.76378772032349),22,7,3,yes,x,5,x,0.5120041000191122,1,24,test1,2,0.5120983999804594,-38.0
10,lyy,f,23,r,1,(172.20000000000002, 0.0),21,-25,14,no,m,6,m,0.8350709999795072,1,25,test1,2,0.8352285000146367,-38.0
10,lyy,f,23,r,1,(-121.76378772032348, 121.76378772032349),24,5,2,no,m,6,m,0.882736700004898,1,26,test1,2,0.8829727999982424,-38.0
10,lyy,f,23,r,1,(-121.76378772032352, -121.76378772032348),26,-7,13,yes,x,5,x,0.5228915000334382,1,27,test1,2,0.523022299981676,-52.0
10,lyy,f,23,r,1,(172.20000000000002, 0.0),21,3,1,yes,x,5,x,0.9143249999615364,1,28,test1,2,0.914441299973987,-42.0
10,lyy,f,23,r,1,(121.76378772032349, 121.76378772032349),22,3,1,yes,x,5,x,1.1250884999753907,1,29,test1,2,1.1251962999813259,-42.0
10,lyy,f,23,r,1,(172.20000000000002, 0.0),21,-25,14,yes,x,5,x,0.4818107999744825,1,30,test1,2,0.48196980002103373,-70.0
10,lyy,f,23,r,1,(-172.20000000000002, 2.1088417881317425e-14),25,5,2,no,m,6,m,1.2475782000110485,1,31,test1,2,1.2478995000128634,-70.0
10,lyy,f,23,r,1,(121.76378772032349, 121.76378772032349),22,7,3,no,m,6,m,1.0622597999754362,1,32,test1,2,1.0624751999857835,-70.0
10,lyy,f,23,r,1,(-121.76378772032352, -121.76378772032348),26,3,1,yes,x,5,x,0.9349759999895468,1,33,test1,2,0.9351435999851674,-42.0
10,lyy,f,23,r,1,(-3.163262682197613e-14, -172.20000000000002),27,25,4,yes,x,5,x,0.5078818000038154,1,34,test1,2,0.5080012999824248,-20.0
10,lyy,f,23,r,1,(172.20000000000002, 0.0),21,3,1,yes,x,5,x,0.7862267000018619,1,35,test1,2,0.7863891999586485,-42.0
10,lyy,f,23,r,1,(121.76378772032346, -121.76378772032352),28,-3,11,yes,x,5,m,1.1916798999882303,0,36,test1,2,1.1918362000142224,-48.0
10,lyy,f,23,r,1,(121.76378772032346, -121.76378772032352),28,-5,12,yes,x,5,x,0.6277868999750353,1,37,test1,2,0.6278908000094816,-50.0
10,lyy,f,23,r,1,(-172.20000000000002, 2.1088417881317425e-14),25,7,3,yes,x,5,x,0.4715361999697052,1,38,test1,2,0.47218709997832775,-38.0
10,lyy,f,23,r,1,(-121.76378772032352, -121.76378772032348),26,5,2,yes,x,5,x,0.785260200034827,1,39,test1,2,0.7855528999934904,-40.0
10,lyy,f,23,r,1,(172.20000000000002, 0.0),21,-25,14,yes,x,5,x,0.41439960000570863,1,40,test1,2,0.41452779999235645,-70.0
10,lyy,f,23,r,1,(121.76378772032349, 121.76378772032349),22,3,1,yes,x,5,x,0.8620344999944791,1,41,test1,2,0.8623783999937586,-42.0
10,lyy,f,23,r,1,(172.20000000000002, 0.0),21,-3,11,yes,x,5,x,1.0799039999837987,1,42,test1,2,1.0803882000036538,-48.0
10,lyy,f,23,r,1,(-172.20000000000002, 2.1088417881317425e-14),25,-5,12,yes,x,5,x,0.5158408000133932,1,43,test1,2,0.5159387999447063,-50.0
10,lyy,f,23,r,1,(-3.163262682197613e-14, -172.20000000000002),27,3,1,yes,x,5,x,1.1248639000114053,1,44,test1,2,1.125692599976901,-42.0
10,lyy,f,23,r,1,(1.0544208940658713e-14, 172.20000000000002),23,25,4,yes,x,5,x,0.46189849998336285,1,45,test1,2,0.4622790000285022,-20.0
10,lyy,f,23,r,1,(1.0544208940658713e-14, 172.20000000000002),23,-25,14,yes,x,5,x,0.6249431999749504,1,46,test1,2,0.6251800999743864,-70.0
10,lyy,f,23,r,1,(172.20000000000002, 0.0),21,-5,12,yes,x,5,x,0.46962859999621287,1,47,test1,2,0.46995960001368076,-50.0
10,lyy,f,23,r,1,(-121.76378772032352, -121.76378772032348),26,-3,11,no,m,6,m,1.3799271999741904,1,48,test1,2,1.3800669999909587,-50.0
10,lyy,f,23,r,1,(-3.163262682197613e-14, -172.20000000000002),27,7,3,no,m,6,m,1.4539479999803007,1,49,test1,2,1.4541852999827825,-50.0
10,lyy,f,23,r,1,(-121.76378772032352, -121.76378772032348),26,-25,14,no,m,6,m,1.4087157000321895,1,50,test1,2,1.4091483000083826,-50.0
10,lyy,f,23,r,1,(-121.76378772032348, 121.76378772032349),24,-3,11,yes,x,5,x,0.9763972999644466,1,51,test1,2,0.9765297999838367,-48.0
10,lyy,f,23,r,1,(172.20000000000002, 0.0),21,-7,13,no,m,6,m,1.1462108999839984,1,52,test1,2,1.1463137000100687,-48.0
10,lyy,f,23,r,1,(1.0544208940658713e-14, 172.20000000000002),23,3,1,yes,x,5,x,0.5251591999549419,1,53,test1,2,0.5253926999866962,-42.0
10,lyy,f,23,r,1,(121.76378772032349, 121.76378772032349),22,-25,14,yes,x,5,x,0.4406606999691576,1,54,test1,2,0.44076879997737706,-70.0
10,lyy,f,23,r,1,(121.76378772032346, -121.76378772032352),28,-3,11,no,m,6,m,1.6409872000222094,1,55,test1,2,1.64163520000875,-70.0
10,lyy,f,23,r,1,(-3.163262682197613e-14, -172.20000000000002),27,-25,14,no,m,6,m,1.1436580999870785,1,56,test1,2,1.1438993000192568,-70.0
10,lyy,f,23,r,1,(-172.20000000000002, 2.1088417881317425e-14),25,-3,11,no,m,6,m,1.2160335999797098,1,57,test1,2,1.2165264000068419,-70.0
10,lyy,f,23,r,1,(-3.163262682197613e-14, -172.20000000000002),27,-5,12,no,m,6,m,0.9310513000236824,1,58,test1,2,0.9316347000421956,-70.0
10,lyy,f,23,r,1,(-3.163262682197613e-14, -172.20000000000002),27,25,4,yes,x,5,x,0.4792091000126675,1,59,test1,2,0.4793265999760479,-20.0
10,lyy,f,23,r,1,(172.20000000000002, 0.0),21,-3,11,yes,x,5,x,0.5484875999973156,1,60,test1,2,0.548841799958609,-48.0
10,lyy,f,23,r,1,(-121.76378772032348, 121.76378772032349),24,-7,13,no,m,6,m,0.9213858000002801,1,61,test1,2,0.9216713000205345,-48.0
10,lyy,f,23,r,1,(121.76378772032346, -121.76378772032352),28,-5,12,no,m,6,m,1.0186338999774307,1,62,test1,2,1.0189741000067443,-48.0
10,lyy,f,23,r,1,(121.76378772032346, -121.76378772032352),28,-25,14,no,m,6,m,0.9610025000292808,1,63,test1,2,0.9614740000106394,-48.0
10,lyy,f,23,r,1,(121.76378772032346, -121.76378772032352),28,3,1,no,m,6,m,0.8597610000288114,1,64,test1,2,0.8602928000036627,-48.0
10,lyy,f,23,r,1,(1.0544208940658713e-14, 172.20000000000002),23,-5,12,yes,x,5,x,0.5629780999734066,1,65,test1,2,0.5631260999944061,-50.0
10,lyy,f,23,r,1,(-172.20000000000002, 2.1088417881317425e-14),25,7,3,no,m,6,m,0.8318565000081435,1,66,test1,2,0.8321933000115678,-50.0
10,lyy,f,23,r,1,(121.76378772032349, 121.76378772032349),22,-7,13,yes,x,5,x,0.4895973000093363,1,67,test1,2,0.49008810002123937,-52.0
10,lyy,f,23,r,1,(121.76378772032346, -121.76378772032352),28,-3,11,yes,x,5,x,1.0550589000340551,1,68,test1,2,1.0552601999952458,-48.0
10,lyy,f,23,r,1,(121.76378772032349, 121.76378772032349),22,25,4,no,m,6,m,0.7113194999983534,1,69,test1,2,0.7114516999572515,-48.0
10,lyy,f,23,r,1,(-121.76378772032348, 121.76378772032349),24,7,3,yes,x,5,x,0.5595388999790885,1,70,test1,2,0.5596675000269897,-38.0
10,lyy,f,23,r,1,(-121.76378772032352, -121.76378772032348),26,5,2,yes,x,5,x,0.8280771999852732,1,71,test1,2,0.8283169999485835,-40.0
10,lyy,f,23,r,1,(-172.20000000000002, 2.1088417881317425e-14),25,-25,14,no,m,6,m,0.6972620000015013,1,72,test1,2,0.6973674999899231,-40.0
10,lyy,f,23,r,1,(1.0544208940658713e-14, 172.20000000000002),23,-3,11,no,m,6,m,1.1704628000152297,1,73,test1,2,1.1711135000223294,-40.0
10,lyy,f,23,r,1,(-3.163262682197613e-14, -172.20000000000002),27,7,3,yes,x,5,x,0.4730017999536358,1,74,test1,2,0.4731039999751374,-38.0
10,lyy,f,23,r,1,(-3.163262682197613e-14, -172.20000000000002),27,25,4,no,m,6,m,0.659739599970635,1,75,test1,2,0.6598542999709025,-38.0
10,lyy,f,23,r,1,(-3.163262682197613e-14, -172.20000000000002),27,-7,13,yes,x,5,x,0.5209796999697573,1,76,test1,2,0.5211980000021867,-52.0
10,lyy,f,23,r,1,(-172.20000000000002, 2.1088417881317425e-14),25,5,2,yes,x,5,x,0.6756657999940217,1,77,test1,2,0.6759547999827191,-40.0
10,lyy,f,23,r,1,(-172.20000000000002, 2.1088417881317425e-14),25,25,4,yes,x,5,x,0.38554889999795705,1,78,test1,2,0.38605819997610524,-20.0
10,lyy,f,23,r,1,(1.0544208940658713e-14, 172.20000000000002),23,7,3,yes,x,5,x,0.47473979997448623,1,79,test1,2,0.4748783999821171,-38.0
10,lyy,f,23,r,1,(1.0544208940658713e-14, 172.20000000000002),23,5,2,no,m,6,m,1.1420916999923065,1,80,test1,2,1.1423311000107788,-38.0
10,lyy,f,23,r,1,(121.76378772032349, 121.76378772032349),22,-5,12,yes,x,5,x,0.8961917000124231,1,81,test1,2,0.8963153000222519,-50.0
10,lyy,f,23,r,1,(-121.76378772032348, 121.76378772032349),24,3,1,yes,x,5,x,0.6055566999712028,1,82,test1,2,0.6056627000216395,-42.0
10,lyy,f,23,r,1,(172.20000000000002, 0.0),21,-7,13,yes,x,5,x,0.7103888999554329,1,83,test1,2,0.7107393999467604,-52.0
10,lyy,f,23,r,1,(-121.76378772032348, 121.76378772032349),24,5,2,yes,x,5,x,0.7736919000162743,1,84,test1,2,0.7739852999802679,-40.0
10,lyy,f,23,r,1,(172.20000000000002, 0.0),21,25,4,yes,x,5,x,0.4775457999785431,1,85,test1,2,0.4777205999707803,-20.0
10,lyy,f,23,r,1,(-172.20000000000002, 2.1088417881317425e-14),25,-7,13,yes,x,5,x,0.7083105000201613,1,86,test1,2,0.7084230000036769,-52.0
10,lyy,f,23,r,1,(-172.20000000000002, 2.1088417881317425e-14),25,25,4,no,m,6,m,1.4845654999953695,1,87,test1,2,1.4848031000001356,-52.0
10,lyy,f,23,r,1,(-121.76378772032348, 121.76378772032349),24,25,4,no,m,6,m,0.7427817000425421,1,88,test1,2,0.7430124000529759,-52.0
10,lyy,f,23,r,1,(1.0544208940658713e-14, 172.20000000000002),23,-3,11,yes,x,5,x,0.7713828000123613,1,89,test1,2,0.7714789000456221,-48.0
10,lyy,f,23,r,1,(121.76378772032346, -121.76378772032352),28,25,4,yes,x,5,x,0.5630152999656275,1,90,test1,2,0.5632957000052556,-20.0
10,lyy,f,23,r,1,(-121.76378772032348, 121.76378772032349),24,-5,12,yes,x,5,x,0.9560058999923058,1,91,test1,2,0.9561710000270978,-50.0
10,lyy,f,23,r,1,(1.0544208940658713e-14, 172.20000000000002),23,7,3,no,m,6,m,0.8706428000004962,1,92,test1,2,0.8708938999916427,-50.0
10,lyy,f,23,r,1,(-121.76378772032352, -121.76378772032348),26,25,4,yes,x,5,x,0.6041643000207841,1,93,test1,2,0.604279300023336,-20.0
10,lyy,f,23,r,1,(-172.20000000000002, 2.1088417881317425e-14),25,7,3,yes,x,5,x,0.5972018999746069,1,94,test1,2,0.5972995999618433,-38.0
10,lyy,f,23,r,1,(1.0544208940658713e-14, 172.20000000000002),23,5,2,yes,x,5,x,0.6043636000249535,1,95,test1,2,0.6047737000044435,-40.0
10,lyy,f,23,r,1,(1.0544208940658713e-14, 172.20000000000002),23,-25,14,no,m,6,m,0.8954719000030309,1,96,test1,2,0.8957915999926627,-40.0
10,lyy,f,23,r,1,(-121.76378772032352, -121.76378772032348),26,-5,12,no,m,6,m,1.2413427999708802,1,1,test2,2,1.2414412999642082,-40.0
10,lyy,f,23,r,1,(121.76378772032346, -121.76378772032352),28,-7,13,yes,x,5,x,0.521002400026191,1,2,test2,2,0.5213020999799483,-52.0
10,lyy,f,23,r,1,(1.0544208940658713e-14, 172.20000000000002),23,5,2,yes,x,5,x,0.7619569000089541,1,3,test2,2,0.7621935000061058,-40.0
10,lyy,f,23,r,1,(-121.76378772032352, -121.76378772032348),26,-5,12,yes,x,5,x,0.6951049999915995,1,4,test2,2,0.6957050999626517,-50.0
10,lyy,f,23,r,1,(-172.20000000000002, 2.1088417881317425e-14),25,5,2,yes,x,5,x,0.4682333000237122,1,5,test2,2,0.46845019998727366,-40.0
10,lyy,f,23,r,1,(-172.20000000000002, 2.1088417881317425e-14),25,-3,11,yes,x,5,x,0.45930990000488237,1,6,test2,2,0.45945070002926514,-48.0
10,lyy,f,23,r,1,(-121.76378772032348, 121.76378772032349),24,7,3,yes,x,5,x,0.525212200009264,1,7,test2,2,0.5253156999824569,-38.0
10,lyy,f,23,r,1,(-172.20000000000002, 2.1088417881317425e-14),25,-7,13,yes,x,5,x,0.4334221000317484,1,8,test2,2,0.43364320002729073,-52.0
10,lyy,f,23,r,1,(1.0544208940658713e-14, 172.20000000000002),23,-5,12,yes,x,5,x,0.5496894000098109,1,9,test2,2,0.5503496999735944,-50.0
10,lyy,f,23,r,1,(-121.76378772032348, 121.76378772032349),24,-7,13,yes,x,5,x,0.4609472000156529,1,10,test2,2,0.46135110000614077,-52.0
10,lyy,f,23,r,1,(-121.76378772032352, -121.76378772032348),26,25,4,no,m,6,m,0.8298291999963112,1,11,test2,2,0.8301527000148781,-52.0
10,lyy,f,23,r,1,(121.76378772032346, -121.76378772032352),28,-25,14,yes,x,5,x,0.5906604999909177,1,12,test2,2,0.5916426000185311,-70.0
10,lyy,f,23,r,1,(-121.76378772032352, -121.76378772032348),26,25,4,yes,x,5,x,0.44551140000112355,1,13,test2,2,0.4457210999680683,-20.0
10,lyy,f,23,r,1,(121.76378772032349, 121.76378772032349),22,-3,11,yes,x,5,x,1.2536615999997593,1,14,test2,2,1.2537964000366628,-48.0
10,lyy,f,23,r,1,(-121.76378772032352, -121.76378772032348),26,7,3,no,m,6,m,0.5863712999853306,1,15,test2,2,0.5865045999526046,-48.0
10,lyy,f,23,r,1,(-121.76378772032348, 121.76378772032349),24,-3,11,yes,x,5,m,0.8374429999967106,0,16,test2,2,0.838100699998904,-48.0
10,lyy,f,23,r,1,(1.0544208940658713e-14, 172.20000000000002),23,3,1,no,m,6,m,0.962677099974826,1,17,test2,2,0.9631987999891862,-48.0
10,lyy,f,23,r,1,(-172.20000000000002, 2.1088417881317425e-14),25,-5,12,yes,x,5,x,0.5081178999971598,1,18,test2,2,0.5083417000132613,-50.0
10,lyy,f,23,r,1,(121.76378772032346, -121.76378772032352),28,-7,13,no,m,6,m,0.9902453999966383,1,19,test2,2,0.9909774999832734,-50.0
10,lyy,f,23,r,1,(121.76378772032349, 121.76378772032349),22,5,2,yes,x,5,x,0.7049207999953069,1,20,test2,2,0.7050961999921128,-40.0
10,lyy,f,23,r,1,(-121.76378772032348, 121.76378772032349),24,-3,11,no,m,6,m,0.6462941000354476,1,21,test2,2,0.6465047000092454,-40.0
10,lyy,f,23,r,1,(121.76378772032349, 121.76378772032349),22,3,1,no,m,6,m,1.0959165999665856,1,22,test2,2,1.0961591000086628,-40.0
10,lyy,f,23,r,1,(-172.20000000000002, 2.1088417881317425e-14),25,-7,13,no,m,6,m,0.8827066000085324,1,23,test2,2,0.8828112000483088,-40.0
10,lyy,f,23,r,1,(121.76378772032346, -121.76378772032352),28,25,4,yes,x,5,x,0.46173899999121204,1,24,test2,2,0.461957799969241,-20.0
10,lyy,f,23,r,1,(-3.163262682197613e-14, -172.20000000000002),27,-3,11,yes,x,5,x,1.013943099998869,1,25,test2,2,1.0141642999951728,-48.0
10,lyy,f,23,r,1,(121.76378772032346, -121.76378772032352),28,7,3,no,m,6,m,1.272143199981656,1,26,test2,2,1.2725412999861874,-48.0
10,lyy,f,23,r,1,(-3.163262682197613e-14, -172.20000000000002),27,-5,12,yes,x,5,x,0.5564902999904007,1,27,test2,2,0.5566456000087783,-50.0
10,lyy,f,23,r,1,(-121.76378772032352, -121.76378772032348),26,3,1,yes,x,5,x,1.2771606000023894,1,28,test2,2,1.2775320999789983,-42.0
10,lyy,f,23,r,1,(-3.163262682197613e-14, -172.20000000000002),27,-5,12,yes,x,5,x,0.5518583999946713,1,29,test2,2,0.5522907999693416,-50.0
10,lyy,f,23,r,1,(1.0544208940658713e-14, 172.20000000000002),23,-25,14,yes,x,5,x,0.4818494000355713,1,30,test2,2,0.4820793999824673,-70.0
10,lyy,f,23,r,1,(-3.163262682197613e-14, -172.20000000000002),27,5,2,yes,x,5,x,0.6034655999974348,1,31,test2,2,0.6037350000115111,-40.0
10,lyy,f,23,r,1,(-121.76378772032352, -121.76378772032348),26,3,1,no,m,6,m,1.4609187999740243,1,32,test2,2,1.461017699970398,-40.0
10,lyy,f,23,r,1,(121.76378772032346, -121.76378772032352),28,-5,12,yes,x,5,x,0.5935124999959953,1,33,test2,2,0.5936788999824785,-50.0
10,lyy,f,23,r,1,(121.76378772032346, -121.76378772032352),28,-7,13,yes,x,5,x,0.5683797999517992,1,34,test2,2,0.5686021000146866,-52.0
10,lyy,f,23,r,1,(-121.76378772032348, 121.76378772032349),24,-5,12,yes,x,5,x,0.5925259000505321,1,35,test2,2,0.5928697999916039,-50.0
10,lyy,f,23,r,1,(-121.76378772032348, 121.76378772032349),24,-7,13,yes,x,5,x,0.4040903999703005,1,36,test2,2,0.4042083999956958,-52.0
10,lyy,f,23,r,1,(121.76378772032346, -121.76378772032352),28,-25,14,yes,x,5,x,0.3675859999493696,1,37,test2,2,0.3678664999897592,-70.0
10,lyy,f,23,r,1,(121.76378772032346, -121.76378772032352),28,5,2,yes,x,5,x,0.76170319999801,1,38,test2,2,0.7623751999926753,-40.0
10,lyy,f,23,r,1,(-3.163262682197613e-14, -172.20000000000002),27,5,2,yes,x,5,x,0.7623780000139959,1,39,test2,2,0.7627082000253722,-40.0
10,lyy,f,23,r,1,(1.0544208940658713e-14, 172.20000000000002),23,-7,13,yes,x,5,x,0.5816540999803692,1,40,test2,2,0.581928700034041,-52.0
10,lyy,f,23,r,1,(172.20000000000002, 0.0),21,5,2,no,m,6,m,0.7220008000149392,1,41,test2,2,0.7221008000196889,-52.0
10,lyy,f,23,r,1,(121.76378772032349, 121.76378772032349),22,-7,13,yes,x,5,x,0.5817712999996729,1,42,test2,2,0.5825514000025578,-52.0
10,lyy,f,23,r,1,(121.76378772032349, 121.76378772032349),22,5,2,no,m,6,m,1.5158491000183858,1,43,test2,2,1.5159487000200897,-52.0
10,lyy,f,23,r,1,(172.20000000000002, 0.0),21,25,4,yes,x,5,x,0.41149599995696917,1,44,test2,2,0.41192569996928796,-20.0
10,lyy,f,23,r,1,(-121.76378772032348, 121.76378772032349),24,3,1,no,m,6,m,1.3949357999954373,1,45,test2,2,1.3950656999950297,-20.0
10,lyy,f,23,r,1,(1.0544208940658713e-14, 172.20000000000002),23,-7,13,no,m,6,m,1.2694586000288837,1,46,test2,2,1.2700106999836862,-20.0
10,lyy,f,23,r,1,(-121.76378772032348, 121.76378772032349),24,7,3,no,m,6,m,1.1943840000312775,1,47,test2,2,1.1947852000012062,-20.0
10,lyy,f,23,r,1,(-3.163262682197613e-14, -172.20000000000002),27,3,1,no,m,6,m,1.0095662000239827,1,48,test2,2,1.0098566000233404,-20.0
10,lyy,f,23,r,1,(121.76378772032346, -121.76378772032352),28,5,2,yes,x,5,x,0.5590895999921486,1,49,test2,2,0.5594750000163913,-40.0
10,lyy,f,23,r,1,(-3.163262682197613e-14, -172.20000000000002),27,3,1,yes,x,5,x,0.8776928000152111,1,50,test2,2,0.8779814000008628,-42.0
10,lyy,f,23,r,1,(-121.76378772032352, -121.76378772032348),26,-7,13,no,m,6,m,1.0837465999647975,1,51,test2,2,1.083900299970992,-42.0
10,lyy,f,23,r,1,(172.20000000000002, 0.0),21,5,2,yes,x,5,x,0.6728181000216864,1,52,test2,2,0.6730407999712043,-40.0
10,lyy,f,23,r,1,(-172.20000000000002, 2.1088417881317425e-14),25,25,4,yes,x,5,x,0.4708771000150591,1,53,test2,2,0.471116799977608,-20.0
10,lyy,f,23,r,1,(-121.76378772032352, -121.76378772032348),26,7,3,yes,x,5,x,0.5857077999971807,1,54,test2,2,0.585930900007952,-38.0
10,lyy,f,23,r,1,(121.76378772032349, 121.76378772032349),22,25,4,yes,x,5,x,0.43078709999099374,1,55,test2,2,0.4311887000221759,-20.0
10,lyy,f,23,r,1,(-121.76378772032348, 121.76378772032349),24,5,2,yes,x,5,x,0.4173778000404127,1,56,test2,2,0.4176195000181906,-40.0
10,lyy,f,23,r,1,(-121.76378772032348, 121.76378772032349),24,-25,14,yes,x,5,x,0.40832560003036633,1,57,test2,2,0.40842170000541955,-70.0
10,lyy,f,23,r,1,(-121.76378772032352, -121.76378772032348),26,-5,12,yes,x,5,x,0.9988910999963991,1,58,test2,2,0.9991202999954112,-50.0
10,lyy,f,23,r,1,(-3.163262682197613e-14, -172.20000000000002),27,-7,13,no,m,6,m,1.1349233000073582,1,59,test2,2,1.1352507000556216,-50.0
10,lyy,f,23,r,1,(172.20000000000002, 0.0),21,7,3,no,m,6,m,0.7137708999798633,1,60,test2,2,0.7139308999758214,-50.0
10,lyy,f,23,r,1,(172.20000000000002, 0.0),21,7,3,yes,x,5,x,0.6424606999498792,1,61,test2,2,0.6426473999745212,-38.0
10,lyy,f,23,r,1,(121.76378772032349, 121.76378772032349),22,-7,13,no,m,6,m,1.067726599983871,1,62,test2,2,1.0678276999969967,-38.0
10,lyy,f,23,r,1,(121.76378772032346, -121.76378772032352),28,3,1,yes,x,5,x,1.1115966000361368,1,63,test2,2,1.1119172000326216,-42.0
10,lyy,f,23,r,1,(-3.163262682197613e-14, -172.20000000000002),27,-3,11,yes,x,5,x,0.9332949999952689,1,64,test2,2,0.9334032000042498,-48.0
10,lyy,f,23,r,1,(121.76378772032349, 121.76378772032349),22,5,2,yes,x,5,x,0.8335791999706998,1,65,test2,2,0.8340158000355586,-40.0
10,lyy,f,23,r,1,(-172.20000000000002, 2.1088417881317425e-14),25,3,1,yes,x,5,x,1.1583945999736898,1,66,test2,2,1.1585934999748133,-42.0
10,lyy,f,23,r,1,(-121.76378772032352, -121.76378772032348),26,-25,14,yes,x,5,x,0.4214371999842115,1,67,test2,2,0.4216891000396572,-70.0
10,lyy,f,23,r,1,(-3.163262682197613e-14, -172.20000000000002),27,-3,11,no,m,6,m,1.3357406000141054,1,68,test2,2,1.336114900012035,-70.0
10,lyy,f,23,r,1,(172.20000000000002, 0.0),21,-5,12,no,m,6,m,1.2503368000034243,1,69,test2,2,1.2504396999720484,-70.0
10,lyy,f,23,r,1,(-3.163262682197613e-14, -172.20000000000002),27,-7,13,yes,x,5,x,0.466057300043758,1,70,test2,2,0.4661534000188112,-52.0
10,lyy,f,23,r,1,(121.76378772032346, -121.76378772032352),28,7,3,yes,x,5,x,0.6107146000140347,1,71,test2,2,0.6108908000169322,-38.0
10,lyy,f,23,r,1,(-3.163262682197613e-14, -172.20000000000002),27,-25,14,yes,x,5,x,0.39766019996022806,1,72,test2,2,0.3978124000132084,-70.0
10,lyy,f,23,r,1,(-172.20000000000002, 2.1088417881317425e-14),25,-5,12,no,m,6,m,1.743879100016784,1,73,test2,2,1.7439803999732248,-70.0
10,lyy,f,23,r,1,(-3.163262682197613e-14, -172.20000000000002),27,7,3,yes,x,5,x,0.5437084999866784,1,74,test2,2,0.5438073999830522,-38.0
10,lyy,f,23,r,1,(-3.163262682197613e-14, -172.20000000000002),27,-25,14,yes,x,5,x,0.4426188000361435,1,75,test2,2,0.4427781000267714,-70.0
10,lyy,f,23,r,1,(121.76378772032349, 121.76378772032349),22,-25,14,no,m,6,m,1.261926700011827,1,76,test2,2,1.2620608000434004,-70.0
10,lyy,f,23,r,1,(-121.76378772032352, -121.76378772032348),26,-7,13,yes,x,5,x,0.4587943000369705,1,77,test2,2,0.4590588000137359,-52.0
10,lyy,f,23,r,1,(172.20000000000002, 0.0),21,3,1,no,m,6,m,0.9709726999863051,1,78,test2,2,0.9710952999885194,-52.0
10,lyy,f,23,r,1,(-172.20000000000002, 2.1088417881317425e-14),25,-3,11,yes,x,5,x,1.1402842999668792,1,79,test2,2,1.140943399979733,-48.0
10,lyy,f,23,r,1,(-121.76378772032348, 121.76378772032349),24,25,4,yes,x,5,x,0.5676543999579735,1,80,test2,2,0.5677792999777012,-20.0
10,lyy,f,23,r,1,(-172.20000000000002, 2.1088417881317425e-14),25,3,1,yes,x,5,x,1.1523155000177212,1,81,test2,2,1.1524429999990389,-42.0
10,lyy,f,23,r,1,(172.20000000000002, 0.0),21,-7,13,yes,x,5,x,1.0035443000379018,1,82,test2,2,1.0036752999876626,-52.0
10,lyy,f,23,r,1,(-121.76378772032352, -121.76378772032348),26,-3,11,yes,x,5,x,1.3804271999979392,1,83,test2,2,1.3806546999840066,-48.0
10,lyy,f,23,r,1,(172.20000000000002, 0.0),21,-3,11,no,m,6,m,1.2642322999890894,1,84,test2,2,1.2644029999501072,-48.0
10,lyy,f,23,r,1,(172.20000000000002, 0.0),21,25,4,no,m,6,m,0.7946084000286646,1,85,test2,2,0.7947239000350237,-48.0
10,lyy,f,23,r,1,(-121.76378772032352, -121.76378772032348),26,-25,14,yes,x,5,x,0.4355128000024706,1,86,test2,2,0.4357664000126533,-70.0
10,lyy,f,23,r,1,(-172.20000000000002, 2.1088417881317425e-14),25,3,1,no,m,6,m,0.9957665000110865,1,87,test2,2,0.9960570000112057,-70.0
10,lyy,f,23,r,1,(121.76378772032349, 121.76378772032349),22,-5,12,no,m,6,m,0.8965063000214286,1,88,test2,2,0.8971260000253096,-70.0
10,lyy,f,23,r,1,(-121.76378772032348, 121.76378772032349),24,-25,14,yes,x,5,x,0.3772663999698125,1,89,test2,2,0.377556600025855,-70.0
10,lyy,f,23,r,1,(-172.20000000000002, 2.1088417881317425e-14),25,-25,14,yes,x,5,x,0.5632981999660842,1,90,test2,2,0.5635820999741554,-70.0
10,lyy,f,23,r,1,(121.76378772032349, 121.76378772032349),22,25,4,yes,x,5,x,0.5197917999466881,1,91,test2,2,0.5202067999634892,-20.0
10,lyy,f,23,r,1,(121.76378772032346, -121.76378772032352),28,5,2,no,m,6,m,0.9818454000051133,1,92,test2,2,0.9823731000069529,-20.0
10,lyy,f,23,r,1,(121.76378772032349, 121.76378772032349),22,7,3,yes,x,5,x,0.5449546999880113,1,93,test2,2,0.5450579999596812,-38.0
10,lyy,f,23,r,1,(172.20000000000002, 0.0),21,5,2,yes,x,5,x,0.5653935000300407,1,94,test2,2,0.5657160999835469,-40.0
10,lyy,f,23,r,1,(1.0544208940658713e-14, 172.20000000000002),23,-3,11,yes,x,5,x,1.2448547999956645,1,95,test2,2,1.2452006000094116,-48.0
10,lyy,f,23,r,1,(-3.163262682197613e-14, -172.20000000000002),27,5,2,no,m,6,m,0.7502308000111952,1,96,test2,2,0.7504449000116438,-48.0
10,lyy,f,23,r,1,(121.76378772032346, -121.76378772032352),28,25,4,no,m,6,m,1.6553488000063226,1,1,test1,3,1.6554503999650478,-48.0
10,lyy,f,23,r,1,(1.0544208940658713e-14, 172.20000000000002),23,25,4,yes,x,5,x,0.5174199000466615,1,2,test1,3,0.5175385999609716,-20.0
10,lyy,f,23,r,1,(1.0544208940658713e-14, 172.20000000000002),23,-5,12,no,m,6,m,1.5580976999481209,1,3,test1,3,1.5584985999739729,-20.0
10,lyy,f,23,r,1,(121.76378772032346, -121.76378772032352),28,3,1,yes,x,5,m,1.3453355999663472,0,4,test1,3,1.345500199997332,-42.0
10,lyy,f,23,r,1,(1.0544208940658713e-14, 172.20000000000002),23,7,3,yes,x,5,x,0.5558161000371911,1,5,test1,3,0.5560436000232585,-38.0
10,lyy,f,23,r,1,(-121.76378772032352, -121.76378772032348),26,-3,11,yes,x,5,x,1.0427089000004344,1,6,test1,3,1.0430474000168033,-48.0
10,lyy,f,23,r,1,(-121.76378772032352, -121.76378772032348),26,7,3,yes,x,5,x,0.41355130000738427,1,7,test1,3,0.41364709998015314,-38.0
10,lyy,f,23,r,1,(172.20000000000002, 0.0),21,7,3,yes,x,5,x,0.45466139999916777,1,8,test1,3,0.45477270003175363,-38.0
10,lyy,f,23,r,1,(-121.76378772032348, 121.76378772032349),24,3,1,yes,x,5,m,1.5273805999895558,0,9,test1,3,1.527840599999763,-42.0
10,lyy,f,23,r,1,(121.76378772032346, -121.76378772032352),28,7,3,yes,x,5,x,0.55393399996683,1,10,test1,3,0.5540422999765724,-38.0
10,lyy,f,23,r,1,(121.76378772032349, 121.76378772032349),22,-3,11,yes,x,5,x,1.1992502000066452,1,11,test1,3,1.1996053999755532,-48.0
10,lyy,f,23,r,1,(121.76378772032349, 121.76378772032349),22,-25,14,yes,x,5,x,0.3927426000009291,1,12,test1,3,0.3928484999923967,-70.0
10,lyy,f,23,r,1,(-121.76378772032352, -121.76378772032348),26,5,2,no,m,6,m,1.2724890999961644,1,13,test1,3,1.2729276000172831,-70.0
10,lyy,f,23,r,1,(-172.20000000000002, 2.1088417881317425e-14),25,-25,14,yes,x,5,x,0.35522300004959106,1,14,test1,3,0.3555717999697663,-70.0
10,lyy,f,23,r,1,(121.76378772032349, 121.76378772032349),22,-3,11,no,m,6,m,1.2653535000281408,1,15,test1,3,1.2657197000226006,-70.0
10,lyy,f,23,r,1,(-121.76378772032348, 121.76378772032349),24,-5,12,no,m,6,m,1.6282145000295714,1,16,test1,3,1.6284010999952443,-70.0
10,lyy,f,23,r,1,(-121.76378772032348, 121.76378772032349),24,25,4,yes,x,5,x,0.5469624000252225,1,17,test1,3,0.5470909000141546,-20.0
10,lyy,f,23,r,1,(121.76378772032349, 121.76378772032349),22,-5,12,yes,x,5,x,0.5584187000058591,1,18,test1,3,0.5586622999981046,-50.0
10,lyy,f,23,r,1,(1.0544208940658713e-14, 172.20000000000002),23,3,1,yes,x,5,x,0.8313048999989405,1,19,test1,3,0.8318702999968082,-42.0
10,lyy,f,23,r,1,(1.0544208940658713e-14, 172.20000000000002),23,25,4,no,m,6,m,1.8374583999975584,1,20,test1,3,1.8375911000184715,-42.0
10,lyy,f,23,r,1,(172.20000000000002, 0.0),21,-5,12,yes,x,5,x,0.5798706000205129,1,21,test1,3,0.5802914000232704,-50.0
10,lyy,f,23,r,1,(-121.76378772032348, 121.76378772032349),24,-25,14,no,m,6,m,1.4933616999769583,1,22,test1,3,1.4935443999711424,-50.0
10,lyy,f,23,r,1,(1.0544208940658713e-14, 172.20000000000002),23,-7,13,yes,x,5,x,0.4238340000156313,1,23,test1,3,0.42399949999526143,-52.0
10,lyy,f,23,r,1,(121.76378772032349, 121.76378772032349),22,7,3,yes,x,5,x,0.6127935000113212,1,24,test1,3,0.6130352999898605,-38.0
10,lyy,f,23,r,1,(172.20000000000002, 0.0),21,-25,14,no,m,6,m,1.475829100003466,1,25,test1,3,1.476085599977523,-38.0
10,lyy,f,23,r,1,(-121.76378772032348, 121.76378772032349),24,5,2,no,m,6,m,1.3627641000202857,1,26,test1,3,1.3628853999543935,-38.0
10,lyy,f,23,r,1,(-121.76378772032352, -121.76378772032348),26,-7,13,yes,x,5,x,0.586506100022234,1,27,test1,3,0.5874479999765754,-52.0
10,lyy,f,23,r,1,(172.20000000000002, 0.0),21,3,1,yes,x,5,x,0.474314899998717,1,28,test1,3,0.4745611999533139,-42.0
10,lyy,f,23,r,1,(121.76378772032349, 121.76378772032349),22,3,1,yes,x,5,x,1.1795253999880515,1,29,test1,3,1.1796813000109978,-42.0
10,lyy,f,23,r,1,(172.20000000000002, 0.0),21,-25,14,yes,x,5,x,0.5027691000141203,1,30,test1,3,0.5028636999777518,-70.0
10,lyy,f,23,r,1,(-172.20000000000002, 2.1088417881317425e-14),25,5,2,no,m,6,m,1.079294299997855,1,31,test1,3,1.0795685999910347,-70.0
10,lyy,f,23,r,1,(121.76378772032349, 121.76378772032349),22,7,3,no,m,6,m,1.3171089999959804,1,32,test1,3,1.3176153000094928,-70.0
10,lyy,f,23,r,1,(-121.76378772032352, -121.76378772032348),26,3,1,yes,x,5,x,0.5873771999613382,1,33,test1,3,0.5876237000338733,-42.0
10,lyy,f,23,r,1,(-3.163262682197613e-14, -172.20000000000002),27,25,4,yes,x,5,x,0.4709377000108361,1,34,test1,3,0.4710727999918163,-20.0
10,lyy,f,23,r,1,(172.20000000000002, 0.0),21,3,1,yes,x,5,x,0.5085467000026256,1,35,test1,3,0.5086466000066139,-42.0
10,lyy,f,23,r,1,(121.76378772032346, -121.76378772032352),28,-3,11,yes,x,5,x,1.6775631000055,1,36,test1,3,1.6781951999873854,-48.0
10,lyy,f,23,r,1,(121.76378772032346, -121.76378772032352),28,-5,12,yes,x,5,x,0.5235482000280172,1,37,test1,3,0.5236493999836966,-50.0
10,lyy,f,23,r,1,(-172.20000000000002, 2.1088417881317425e-14),25,7,3,yes,x,5,x,0.5589263000292704,1,38,test1,3,0.5592533000162803,-38.0
10,lyy,f,23,r,1,(-121.76378772032352, -121.76378772032348),26,5,2,yes,x,5,x,0.5467879000352696,1,39,test1,3,0.5472998999757692,-40.0
10,lyy,f,23,r,1,(172.20000000000002, 0.0),21,-25,14,yes,x,5,x,0.7022362999850884,1,40,test1,3,0.7024751999997534,-70.0
10,lyy,f,23,r,1,(121.76378772032349, 121.76378772032349),22,3,1,yes,x,5,x,1.0755287999636494,1,41,test1,3,1.075850100023672,-42.0
10,lyy,f,23,r,1,(172.20000000000002, 0.0),21,-3,11,yes,x,5,x,1.1860585000249557,1,42,test1,3,1.1861538999946788,-48.0
10,lyy,f,23,r,1,(-172.20000000000002, 2.1088417881317425e-14),25,-5,12,yes,x,5,x,0.5503645000280812,1,43,test1,3,0.5506030000397004,-50.0
10,lyy,f,23,r,1,(-3.163262682197613e-14, -172.20000000000002),27,3,1,yes,x,5,x,1.075244399951771,1,44,test1,3,1.0754216999630444,-42.0
10,lyy,f,23,r,1,(1.0544208940658713e-14, 172.20000000000002),23,25,4,yes,x,5,x,0.4221084000309929,1,45,test1,3,0.42222359997686,-20.0
10,lyy,f,23,r,1,(1.0544208940658713e-14, 172.20000000000002),23,-25,14,yes,x,5,x,0.4382082999800332,1,46,test1,3,0.43832700001075864,-70.0
10,lyy,f,23,r,1,(172.20000000000002, 0.0),21,-5,12,yes,x,5,x,0.5923478999757208,1,47,test1,3,0.5930218999856152,-50.0
10,lyy,f,23,r,1,(-121.76378772032352, -121.76378772032348),26,-3,11,no,m,6,m,1.4524239000165835,1,48,test1,3,1.4528914999682456,-50.0
10,lyy,f,23,r,1,(-3.163262682197613e-14, -172.20000000000002),27,7,3,no,m,6,m,1.0245803000289015,1,49,test1,3,1.0250111000495963,-50.0
10,lyy,f,23,r,1,(-121.76378772032352, -121.76378772032348),26,-25,14,no,m,6,m,1.333545800007414,1,50,test1,3,1.3338667000061832,-50.0
10,lyy,f,23,r,1,(-121.76378772032348, 121.76378772032349),24,-3,11,yes,x,5,x,1.012192900001537,1,51,test1,3,1.01233440003125,-48.0
10,lyy,f,23,r,1,(172.20000000000002, 0.0),21,-7,13,no,m,6,m,1.1525550999795087,1,52,test1,3,1.1528549999929965,-48.0
10,lyy,f,23,r,1,(1.0544208940658713e-14, 172.20000000000002),23,3,1,yes,x,5,x,0.5970327000250109,1,53,test1,3,0.5973192999954335,-42.0
10,lyy,f,23,r,1,(121.76378772032349, 121.76378772032349),22,-25,14,yes,x,5,x,0.6138966999715194,1,54,test1,3,0.6140274999779649,-70.0
10,lyy,f,23,r,1,(121.76378772032346, -121.76378772032352),28,-3,11,no,m,6,m,1.5537935000029393,1,55,test1,3,1.5538940000114962,-70.0
10,lyy,f,23,r,1,(-3.163262682197613e-14, -172.20000000000002),27,-25,14,no,m,6,m,1.2727251999895088,1,56,test1,3,1.2729053999646567,-70.0
10,lyy,f,23,r,1,(-172.20000000000002, 2.1088417881317425e-14),25,-3,11,no,m,6,m,1.3565546000027098,1,57,test1,3,1.3567610000027344,-70.0
10,lyy,f,23,r,1,(-3.163262682197613e-14, -172.20000000000002),27,-5,12,no,m,6,m,1.345304899965413,1,58,test1,3,1.3454825999797322,-70.0
10,lyy,f,23,r,1,(-3.163262682197613e-14, -172.20000000000002),27,25,4,yes,x,5,x,0.4904619000153616,1,59,test1,3,0.490557000041008,-20.0
10,lyy,f,23,r,1,(172.20000000000002, 0.0),21,-3,11,yes,x,5,x,0.9159483999828808,1,60,test1,3,0.9160455000237562,-48.0
10,lyy,f,23,r,1,(-121.76378772032348, 121.76378772032349),24,-7,13,no,m,6,m,1.3071735000121407,1,61,test1,3,1.3072727000107989,-48.0
10,lyy,f,23,r,1,(121.76378772032346, -121.76378772032352),28,-5,12,no,m,6,m,0.8430014999466948,1,62,test1,3,0.8431029999628663,-48.0
10,lyy,f,23,r,1,(121.76378772032346, -121.76378772032352),28,-25,14,no,m,6,m,1.4311183000099845,1,63,test1,3,1.4312351999687962,-48.0
10,lyy,f,23,r,1,(121.76378772032346, -121.76378772032352),28,3,1,no,m,6,m,1.253411200013943,1,64,test1,3,1.25374939996982,-48.0
10,lyy,f,23,r,1,(1.0544208940658713e-14, 172.20000000000002),23,-5,12,yes,x,5,x,0.5415378999896348,1,65,test1,3,0.5417922000051476,-50.0
10,lyy,f,23,r,1,(-172.20000000000002, 2.1088417881317425e-14),25,7,3,no,m,6,m,1.6530382999917492,1,66,test1,3,1.6531837999937125,-50.0
10,lyy,f,23,r,1,(121.76378772032349, 121.76378772032349),22,-7,13,yes,x,5,x,0.5598799000144936,1,67,test1,3,0.5600082000019029,-52.0
10,lyy,f,23,r,1,(121.76378772032346, -121.76378772032352),28,-3,11,yes,x,5,x,0.80388199997833,1,68,test1,3,0.8040567000280134,-48.0
10,lyy,f,23,r,1,(121.76378772032349, 121.76378772032349),22,25,4,no,m,6,m,1.3193711999920197,1,69,test1,3,1.3196902999770828,-48.0
10,lyy,f,23,r,1,(-121.76378772032348, 121.76378772032349),24,7,3,yes,x,5,x,0.41138399997726083,1,70,test1,3,0.41154549998464063,-38.0
10,lyy,f,23,r,1,(-121.76378772032352, -121.76378772032348),26,5,2,yes,x,5,x,0.5098104999633506,1,71,test1,3,0.510206000006292,-40.0
10,lyy,f,23,r,1,(-172.20000000000002, 2.1088417881317425e-14),25,-25,14,no,m,6,m,1.1097684999695048,1,72,test1,3,1.1101413000142202,-40.0
10,lyy,f,23,r,1,(1.0544208940658713e-14, 172.20000000000002),23,-3,11,no,m,6,m,1.347542900010012,1,73,test1,3,1.3476579999551177,-40.0
10,lyy,f,23,r,1,(-3.163262682197613e-14, -172.20000000000002),27,7,3,yes,x,5,x,0.7857574999798089,1,74,test1,3,0.786378999997396,-38.0
10,lyy,f,23,r,1,(-3.163262682197613e-14, -172.20000000000002),27,25,4,no,m,6,m,1.318159000016749,1,75,test1,3,1.3183608999825083,-38.0
10,lyy,f,23,r,1,(-3.163262682197613e-14, -172.20000000000002),27,-7,13,yes,x,5,x,0.551205400028266,1,76,test1,3,0.5518485000357032,-52.0
10,lyy,f,23,r,1,(-172.20000000000002, 2.1088417881317425e-14),25,5,2,yes,x,5,x,0.5078166000312194,1,77,test1,3,0.5081342000048608,-40.0
10,lyy,f,23,r,1,(-172.20000000000002, 2.1088417881317425e-14),25,25,4,yes,x,5,x,0.39975480001885444,1,78,test1,3,0.3998833000077866,-20.0
10,lyy,f,23,r,1,(1.0544208940658713e-14, 172.20000000000002),23,7,3,yes,x,5,x,0.5451754999812692,1,79,test1,3,0.545840099977795,-38.0
10,lyy,f,23,r,1,(1.0544208940658713e-14, 172.20000000000002),23,5,2,no,m,6,m,1.2190439999685623,1,80,test1,3,1.2192939999513328,-38.0
10,lyy,f,23,r,1,(121.76378772032349, 121.76378772032349),22,-5,12,yes,x,5,x,0.595584399998188,1,81,test1,3,0.5960117999929935,-50.0
10,lyy,f,23,r,1,(-121.76378772032348, 121.76378772032349),24,3,1,yes,x,5,x,1.0021769999875687,1,82,test1,3,1.0024177000159398,-42.0
10,lyy,f,23,r,1,(172.20000000000002, 0.0),21,-7,13,yes,x,5,x,0.588800799974706,1,83,test1,3,0.5889004999771714,-52.0
10,lyy,f,23,r,1,(-121.76378772032348, 121.76378772032349),24,5,2,yes,x,5,x,0.8223850000067614,1,84,test1,3,0.8228094999794848,-40.0
10,lyy,f,23,r,1,(172.20000000000002, 0.0),21,25,4,yes,x,5,x,0.663078100013081,1,85,test1,3,0.6634134000050835,-20.0
10,lyy,f,23,r,1,(-172.20000000000002, 2.1088417881317425e-14),25,-7,13,yes,x,5,x,0.6957766000414267,1,86,test1,3,0.6960723000229336,-52.0
10,lyy,f,23,r,1,(-172.20000000000002, 2.1088417881317425e-14),25,25,4,no,m,6,m,1.330107300018426,1,87,test1,3,1.3303227999713272,-52.0
10,lyy,f,23,r,1,(-121.76378772032348, 121.76378772032349),24,25,4,no,m,6,m,1.1626731000142172,1,88,test1,3,1.1630714999628253,-52.0
10,lyy,f,23,r,1,(1.0544208940658713e-14, 172.20000000000002),23,-3,11,yes,x,5,x,1.4466814000043087,1,89,test1,3,1.447165200021118,-48.0
10,lyy,f,23,r,1,(121.76378772032346, -121.76378772032352),28,25,4,yes,x,5,x,0.4930037999874912,1,90,test1,3,0.4931160000269301,-20.0
10,lyy,f,23,r,1,(-121.76378772032348, 121.76378772032349),24,-5,12,yes,x,5,x,0.8365721000009216,1,91,test1,3,0.8367893000249751,-50.0
10,lyy,f,23,r,1,(1.0544208940658713e-14, 172.20000000000002),23,7,3,no,m,6,m,1.8340548999840394,1,92,test1,3,1.8342924999888055,-50.0
10,lyy,f,23,r,1,(-121.76378772032352, -121.76378772032348),26,25,4,yes,x,5,x,0.5192990999785252,1,93,test1,3,0.5194583999691531,-20.0
10,lyy,f,23,r,1,(-172.20000000000002, 2.1088417881317425e-14),25,7,3,yes,x,5,x,0.4697337999823503,1,94,test1,3,0.46986610000021756,-38.0
10,lyy,f,23,r,1,(1.0544208940658713e-14, 172.20000000000002),23,5,2,yes,x,5,x,0.8353363000205718,1,95,test1,3,0.8356180000118911,-40.0
10,lyy,f,23,r,1,(1.0544208940658713e-14, 172.20000000000002),23,-25,14,no,m,6,m,1.2744046000298113,1,96,test1,3,1.275006800016854,-40.0
10,lyy,f,23,r,1,(-121.76378772032352, -121.76378772032348),26,-5,12,no,m,6,m,0.9534609999973327,1,1,test2,3,0.953557200031355,-40.0
10,lyy,f,23,r,1,(121.76378772032346, -121.76378772032352),28,-7,13,yes,x,5,x,0.5552147999987938,1,2,test2,3,0.5555045999935828,-52.0
10,lyy,f,23,r,1,(1.0544208940658713e-14, 172.20000000000002),23,5,2,yes,x,5,x,0.5252481999923475,1,3,test2,3,0.5253523000283167,-40.0
10,lyy,f,23,r,1,(-121.76378772032352, -121.76378772032348),26,-5,12,yes,x,5,x,0.5600336999632418,1,4,test2,3,0.5601689000031911,-50.0
10,lyy,f,23,r,1,(-172.20000000000002, 2.1088417881317425e-14),25,5,2,yes,x,5,x,1.0175878999871202,1,5,test2,3,1.0177087999763899,-40.0
10,lyy,f,23,r,1,(-172.20000000000002, 2.1088417881317425e-14),25,-3,11,yes,x,5,x,0.6650646000052802,1,6,test2,3,0.6654495000257157,-48.0
10,lyy,f,23,r,1,(-121.76378772032348, 121.76378772032349),24,7,3,yes,x,5,x,0.4899683999828994,1,7,test2,3,0.49010270001599565,-38.0
10,lyy,f,23,r,1,(-172.20000000000002, 2.1088417881317425e-14),25,-7,13,yes,x,5,x,0.5215374999679625,1,8,test2,3,0.5219190999632701,-52.0
10,lyy,f,23,r,1,(1.0544208940658713e-14, 172.20000000000002),23,-5,12,yes,x,5,x,0.49916349997511134,1,9,test2,3,0.49926010001217946,-50.0
10,lyy,f,23,r,1,(-121.76378772032348, 121.76378772032349),24,-7,13,yes,x,5,x,0.5509024999919347,1,10,test2,3,0.5513492999598384,-52.0
10,lyy,f,23,r,1,(-121.76378772032352, -121.76378772032348),26,25,4,no,m,6,m,1.2807538999477401,1,11,test2,3,1.2810770999640226,-52.0
10,lyy,f,23,r,1,(121.76378772032346, -121.76378772032352),28,-25,14,yes,x,5,x,0.47008480003569275,1,12,test2,3,0.47024759999476373,-70.0
10,lyy,f,23,r,1,(-121.76378772032352, -121.76378772032348),26,25,4,yes,x,5,x,0.7137357000028715,1,13,test2,3,0.7138310000300407,-20.0
10,lyy,f,23,r,1,(121.76378772032349, 121.76378772032349),22,-3,11,yes,x,5,x,0.9165959000238217,1,14,test2,3,0.9168356999871321,-48.0
10,lyy,f,23,r,1,(-121.76378772032352, -121.76378772032348),26,7,3,no,m,6,m,1.369755499996245,1,15,test2,3,1.3699897999758832,-48.0
10,lyy,f,23,r,1,(-121.76378772032348, 121.76378772032349),24,-3,11,yes,x,5,x,0.9179254000191577,1,16,test2,3,0.9181869000312872,-48.0
10,lyy,f,23,r,1,(1.0544208940658713e-14, 172.20000000000002),23,3,1,no,m,6,m,0.9218207999947481,1,17,test2,3,0.9220495999907143,-48.0
10,lyy,f,23,r,1,(-172.20000000000002, 2.1088417881317425e-14),25,-5,12,yes,x,5,x,0.7076906000147574,1,18,test2,3,0.707847599987872,-50.0
10,lyy,f,23,r,1,(121.76378772032346, -121.76378772032352),28,-7,13,no,m,6,m,1.7061522000003606,1,19,test2,3,1.7063613000209443,-50.0
10,lyy,f,23,r,1,(121.76378772032349, 121.76378772032349),22,5,2,yes,x,5,x,0.9719048000406474,1,20,test2,3,0.9721196000464261,-40.0
10,lyy,f,23,r,1,(-121.76378772032348, 121.76378772032349),24,-3,11,no,m,6,m,1.453295800019987,1,21,test2,3,1.4534681999939494,-40.0
10,lyy,f,23,r,1,(121.76378772032349, 121.76378772032349),22,3,1,no,m,6,m,1.5827207999536768,1,22,test2,3,1.5831786999478936,-40.0
10,lyy,f,23,r,1,(-172.20000000000002, 2.1088417881317425e-14),25,-7,13,no,m,6,m,1.0311725999927148,1,23,test2,3,1.0314592000213452,-40.0
10,lyy,f,23,r,1,(121.76378772032346, -121.76378772032352),28,25,4,yes,x,5,x,0.41892520000692457,1,24,test2,3,0.419021200039424,-20.0
10,lyy,f,23,r,1,(-3.163262682197613e-14, -172.20000000000002),27,-3,11,yes,x,5,x,1.103556199988816,1,25,test2,3,1.1037814000155777,-48.0
10,lyy,f,23,r,1,(121.76378772032346, -121.76378772032352),28,7,3,no,m,6,m,1.75382919999538,1,26,test2,3,1.754038600018248,-48.0
10,lyy,f,23,r,1,(-3.163262682197613e-14, -172.20000000000002),27,-5,12,yes,x,5,x,0.7291350999730639,1,27,test2,3,0.7293102000257932,-50.0
10,lyy,f,23,r,1,(-121.76378772032352, -121.76378772032348),26,3,1,yes,x,5,x,0.8964380999677815,1,28,test2,3,0.8975941999815404,-42.0
10,lyy,f,23,r,1,(-3.163262682197613e-14, -172.20000000000002),27,-5,12,yes,x,5,x,0.5112022000248544,1,29,test2,3,0.5114409999805503,-50.0
10,lyy,f,23,r,1,(1.0544208940658713e-14, 172.20000000000002),23,-25,14,yes,x,5,x,0.39675810001790524,1,30,test2,3,0.39694050000980496,-70.0
10,lyy,f,23,r,1,(-3.163262682197613e-14, -172.20000000000002),27,5,2,yes,x,5,x,0.6498198000481352,1,31,test2,3,0.6499578999937512,-40.0
10,lyy,f,23,r,1,(-121.76378772032352, -121.76378772032348),26,3,1,no,m,6,m,1.3260806000325829,1,32,test2,3,1.326188299979549,-40.0
10,lyy,f,23,r,1,(121.76378772032346, -121.76378772032352),28,-5,12,yes,x,5,x,1.067423600004986,1,33,test2,3,1.0681944999960251,-50.0
10,lyy,f,23,r,1,(121.76378772032346, -121.76378772032352),28,-7,13,yes,x,5,x,0.7694505999679677,1,34,test2,3,0.7696080000023358,-52.0
10,lyy,f,23,r,1,(-121.76378772032348, 121.76378772032349),24,-5,12,yes,x,5,x,0.7893815999850631,1,35,test2,3,0.7896881999913603,-50.0
10,lyy,f,23,r,1,(-121.76378772032348, 121.76378772032349),24,-7,13,yes,x,5,x,0.6517259999527596,1,36,test2,3,0.6518268999643624,-52.0
10,lyy,f,23,r,1,(121.76378772032346, -121.76378772032352),28,-25,14,yes,x,5,x,0.702059899980668,1,37,test2,3,0.7021910999901593,-70.0
10,lyy,f,23,r,1,(121.76378772032346, -121.76378772032352),28,5,2,yes,x,5,m,0.5436060000211,0,38,test2,3,0.54384110000683,-40.0
10,lyy,f,23,r,1,(-3.163262682197613e-14, -172.20000000000002),27,5,2,yes,x,5,x,0.8354965999606065,1,39,test2,3,0.8358790999627672,-40.0
10,lyy,f,23,r,1,(1.0544208940658713e-14, 172.20000000000002),23,-7,13,yes,x,5,x,0.4993876999942586,1,40,test2,3,0.49948920001043007,-52.0
10,lyy,f,23,r,1,(172.20000000000002, 0.0),21,5,2,no,m,6,m,1.0848475000238977,1,41,test2,3,1.0850134999491274,-52.0
10,lyy,f,23,r,1,(121.76378772032349, 121.76378772032349),22,-7,13,yes,x,5,x,1.059173899993766,1,42,test2,3,1.0592675999505445,-52.0
10,lyy,f,23,r,1,(121.76378772032349, 121.76378772032349),22,5,2,no,m,6,m,1.334159699967131,1,43,test2,3,1.334288000012748,-52.0
10,lyy,f,23,r,1,(172.20000000000002, 0.0),21,25,4,yes,x,5,x,0.6693552999640815,1,44,test2,3,0.669506200007163,-20.0
10,lyy,f,23,r,1,(-121.76378772032348, 121.76378772032349),24,3,1,no,m,6,m,1.251781500002835,1,45,test2,3,1.2518843000289053,-20.0
10,lyy,f,23,r,1,(1.0544208940658713e-14, 172.20000000000002),23,-7,13,no,m,6,m,1.0397622000309639,1,46,test2,3,1.0400685000349768,-20.0
10,lyy,f,23,r,1,(-121.76378772032348, 121.76378772032349),24,7,3,no,m,6,m,1.3537980999681167,1,47,test2,3,1.3545061000040732,-20.0
10,lyy,f,23,r,1,(-3.163262682197613e-14, -172.20000000000002),27,3,1,no,m,6,m,1.2983638999867253,1,48,test2,3,1.2985997999785468,-20.0
10,lyy,f,23,r,1,(121.76378772032346, -121.76378772032352),28,5,2,yes,x,5,x,0.8140457000117749,1,49,test2,3,0.814146000018809,-40.0
10,lyy,f,23,r,1,(-3.163262682197613e-14, -172.20000000000002),27,3,1,yes,x,5,x,0.8046898000175133,1,50,test2,3,0.804803200007882,-42.0
10,lyy,f,23,r,1,(-121.76378772032352, -121.76378772032348),26,-7,13,no,m,6,m,1.4270802999963053,1,51,test2,3,1.4272937000496313,-42.0
10,lyy,f,23,r,1,(172.20000000000002, 0.0),21,5,2,yes,x,5,x,0.5302121000131592,1,52,test2,3,0.530584899999667,-40.0
10,lyy,f,23,r,1,(-172.20000000000002, 2.1088417881317425e-14),25,25,4,yes,x,5,x,0.45235600002342835,1,53,test2,3,0.45257790002506226,-20.0
10,lyy,f,23,r,1,(-121.76378772032352, -121.76378772032348),26,7,3,yes,x,5,x,0.4583106000209227,1,54,test2,3,0.45843880000757053,-38.0
10,lyy,f,23,r,1,(121.76378772032349, 121.76378772032349),22,25,4,yes,x,5,x,0.546046799980104,1,55,test2,3,0.5461721000028774,-20.0
10,lyy,f,23,r,1,(-121.76378772032348, 121.76378772032349),24,5,2,yes,x,5,x,0.5041847000247799,1,56,test2,3,0.5043476999853738,-40.0
10,lyy,f,23,r,1,(-121.76378772032348, 121.76378772032349),24,-25,14,yes,x,5,x,0.5201856000348926,1,57,test2,3,0.5204401999944821,-70.0
10,lyy,f,23,r,1,(-121.76378772032352, -121.76378772032348),26,-5,12,yes,x,5,x,0.4888280999730341,1,58,test2,3,0.4891185999731533,-50.0
10,lyy,f,23,r,1,(-3.163262682197613e-14, -172.20000000000002),27,-7,13,no,m,6,m,1.4065823000273667,1,59,test2,3,1.4066973999724723,-50.0
10,lyy,f,23,r,1,(172.20000000000002, 0.0),21,7,3,no,m,6,m,1.0204551999922842,1,60,test2,3,1.0209269000333734,-50.0
10,lyy,f,23,r,1,(172.20000000000002, 0.0),21,7,3,yes,x,5,x,0.7178054000250995,1,61,test2,3,0.7181552000110969,-38.0
10,lyy,f,23,r,1,(121.76378772032349, 121.76378772032349),22,-7,13,no,m,6,m,1.0002787999692373,1,62,test2,3,1.0005828000139445,-38.0
10,lyy,f,23,r,1,(121.76378772032346, -121.76378772032352),28,3,1,yes,x,5,x,1.0808080999995582,1,63,test2,3,1.0811757000046782,-42.0
10,lyy,f,23,r,1,(-3.163262682197613e-14, -172.20000000000002),27,-3,11,yes,x,5,x,1.053375400020741,1,64,test2,3,1.0537084999959916,-48.0
10,lyy,f,23,r,1,(121.76378772032349, 121.76378772032349),22,5,2,yes,x,5,x,1.3905439000227489,1,65,test2,3,1.3909097999567166,-40.0
10,lyy,f,23,r,1,(-172.20000000000002, 2.1088417881317425e-14),25,3,1,yes,x,5,x,1.0185647999751382,1,66,test2,3,1.0187292000046,-42.0
10,lyy,f,23,r,1,(-121.76378772032352, -121.76378772032348),26,-25,14,yes,x,5,x,0.4597187000326812,1,67,test2,3,0.45987500000046566,-70.0
10,lyy,f,23,r,1,(-3.163262682197613e-14, -172.20000000000002),27,-3,11,no,m,6,m,0.9661111999885179,1,68,test2,3,0.966235300002154,-70.0
10,lyy,f,23,r,1,(172.20000000000002, 0.0),21,-5,12,no,m,6,m,1.5079654000001028,1,69,test2,3,1.508070999989286,-70.0
10,lyy,f,23,r,1,(-3.163262682197613e-14, -172.20000000000002),27,-7,13,yes,x,5,x,1.0460301999701187,1,70,test2,3,1.0461351000121795,-52.0
10,lyy,f,23,r,1,(121.76378772032346, -121.76378772032352),28,7,3,yes,x,5,x,0.5291824999731034,1,71,test2,3,0.5294188999687321,-38.0
10,lyy,f,23,r,1,(-3.163262682197613e-14, -172.20000000000002),27,-25,14,yes,x,5,x,0.5393635999644175,1,72,test2,3,0.5394810999860056,-70.0
10,lyy,f,23,r,1,(-172.20000000000002, 2.1088417881317425e-14),25,-5,12,no,m,6,m,0.8310321000171825,1,73,test2,3,0.831126699980814,-70.0
10,lyy,f,23,r,1,(-3.163262682197613e-14, -172.20000000000002),27,7,3,yes,x,5,x,0.811432300019078,1,74,test2,3,0.8120936999912374,-38.0
10,lyy,f,23,r,1,(-3.163262682197613e-14, -172.20000000000002),27,-25,14,yes,x,5,x,0.5087404000223614,1,75,test2,3,0.5088532000081614,-70.0
10,lyy,f,23,r,1,(121.76378772032349, 121.76378772032349),22,-25,14,no,m,6,m,1.1919612000347115,1,76,test2,3,1.192058700020425,-70.0
10,lyy,f,23,r,1,(-121.76378772032352, -121.76378772032348),26,-7,13,yes,x,5,x,0.9084605000098236,1,77,test2,3,0.9091104999533854,-52.0
10,lyy,f,23,r,1,(172.20000000000002, 0.0),21,3,1,no,m,6,m,1.16971069999272,1,78,test2,3,1.1698132999590598,-52.0
10,lyy,f,23,r,1,(-172.20000000000002, 2.1088417881317425e-14),25,-3,11,yes,x,5,x,0.8330054999678396,1,79,test2,3,0.8331055999733508,-48.0
10,lyy,f,23,r,1,(-121.76378772032348, 121.76378772032349),24,25,4,yes,x,5,x,0.607987699972,1,80,test2,3,0.6084129000082612,-20.0
10,lyy,f,23,r,1,(-172.20000000000002, 2.1088417881317425e-14),25,3,1,yes,x,5,x,1.2028707999852486,1,81,test2,3,1.2029717999976128,-42.0
10,lyy,f,23,r,1,(172.20000000000002, 0.0),21,-7,13,yes,x,5,x,0.5397145000169985,1,82,test2,3,0.5399336999980733,-52.0
10,lyy,f,23,r,1,(-121.76378772032352, -121.76378772032348),26,-3,11,yes,x,5,x,0.7092115999548696,1,83,test2,3,0.7094741999753751,-48.0
10,lyy,f,23,r,1,(172.20000000000002, 0.0),21,-3,11,no,m,6,m,0.8046925999806263,1,84,test2,3,0.8053265999769792,-48.0
10,lyy,f,23,r,1,(172.20000000000002, 0.0),21,25,4,no,m,6,m,0.8779368000105023,1,85,test2,3,0.8780370999593288,-48.0
10,lyy,f,23,r,1,(-121.76378772032352, -121.76378772032348),26,-25,14,yes,x,5,x,0.523987099993974,1,86,test2,3,0.524514899996575,-70.0
10,lyy,f,23,r,1,(-172.20000000000002, 2.1088417881317425e-14),25,3,1,no,m,6,m,1.3372172999661416,1,87,test2,3,1.3374273999943398,-70.0
10,lyy,f,23,r,1,(121.76378772032349, 121.76378772032349),22,-5,12,no,m,6,m,1.3347280999878421,1,88,test2,3,1.3348538999562152,-70.0
10,lyy,f,23,r,1,(-121.76378772032348, 121.76378772032349),24,-25,14,yes,x,5,x,0.46751069999299943,1,89,test2,3,0.46779999998398125,-70.0
10,lyy,f,23,r,1,(-172.20000000000002, 2.1088417881317425e-14),25,-25,14,yes,x,5,x,0.35057029995368794,1,90,test2,3,0.3510833000182174,-70.0
10,lyy,f,23,r,1,(121.76378772032349, 121.76378772032349),22,25,4,yes,x,5,x,1.131700300029479,1,91,test2,3,1.1318298999685794,-20.0
10,lyy,f,23,r,1,(121.76378772032346, -121.76378772032352),28,5,2,no,m,6,m,1.0241294000297785,1,92,test2,3,1.0242359999683686,-20.0
10,lyy,f,23,r,1,(121.76378772032349, 121.76378772032349),22,7,3,yes,x,5,x,0.7420442000147887,1,93,test2,3,0.7421493000001647,-38.0
10,lyy,f,23,r,1,(172.20000000000002, 0.0),21,5,2,yes,x,5,x,0.5177942999871448,1,94,test2,3,0.518022199976258,-40.0
10,lyy,f,23,r,1,(1.0544208940658713e-14, 172.20000000000002),23,-3,11,yes,x,5,x,0.5499466999899596,1,95,test2,3,0.550074000027962,-48.0
10,lyy,f,23,r,1,(-3.163262682197613e-14, -172.20000000000002),27,5,2,no,m,6,m,1.199235400010366,1,96,test2,3,1.1993383999797516,-48.0
10,lyy,f,23,r,1,(121.76378772032346, -121.76378772032352),28,25,4,no,m,6,m,1.2698456999496557,1,1,test1,4,1.2699461000156589,-48.0
10,lyy,f,23,r,1,(1.0544208940658713e-14, 172.20000000000002),23,25,4,yes,x,5,x,0.5224711999762803,1,2,test1,4,0.5225992999621667,-20.0
10,lyy,f,23,r,1,(1.0544208940658713e-14, 172.20000000000002),23,-5,12,no,m,6,m,1.2925726000103168,1,3,test1,4,1.2927382999914698,-20.0
10,lyy,f,23,r,1,(121.76378772032346, -121.76378772032352),28,3,1,yes,x,5,x,0.9353832999477163,1,4,test1,4,0.9356234999722801,-42.0
10,lyy,f,23,r,1,(1.0544208940658713e-14, 172.20000000000002),23,7,3,yes,x,5,x,0.4764725999557413,1,5,test1,4,0.47671339998487383,-38.0
10,lyy,f,23,r,1,(-121.76378772032352, -121.76378772032348),26,-3,11,yes,x,5,x,0.5651729999808595,1,6,test1,4,0.5652696000179276,-48.0
10,lyy,f,23,r,1,(-121.76378772032352, -121.76378772032348),26,7,3,yes,x,5,x,0.7793120000278577,1,7,test1,4,0.7795542999519967,-38.0
10,lyy,f,23,r,1,(172.20000000000002, 0.0),21,7,3,yes,x,5,x,0.7127483999938704,1,8,test1,4,0.7129883000161499,-38.0
10,lyy,f,23,r,1,(-121.76378772032348, 121.76378772032349),24,3,1,yes,x,5,x,1.140687400009483,1,9,test1,4,1.1411551000201143,-42.0
10,lyy,f,23,r,1,(121.76378772032346, -121.76378772032352),28,7,3,yes,x,5,x,0.5380052999826148,1,10,test1,4,0.5386809000046924,-38.0
10,lyy,f,23,r,1,(121.76378772032349, 121.76378772032349),22,-3,11,yes,x,5,x,1.1249613999971189,1,11,test1,4,1.1254401999758556,-48.0
10,lyy,f,23,r,1,(121.76378772032349, 121.76378772032349),22,-25,14,yes,x,5,x,0.6421154999989085,1,12,test1,4,0.6427915000240318,-70.0
10,lyy,f,23,r,1,(-121.76378772032352, -121.76378772032348),26,5,2,no,m,6,m,1.4091203999705613,1,13,test1,4,1.4092243000050075,-70.0
10,lyy,f,23,r,1,(-172.20000000000002, 2.1088417881317425e-14),25,-25,14,yes,x,5,x,0.441883500025142,1,14,test1,4,0.4421913999831304,-70.0
10,lyy,f,23,r,1,(121.76378772032349, 121.76378772032349),22,-3,11,no,m,6,m,1.7134075000067241,1,15,test1,4,1.713726400048472,-70.0
10,lyy,f,23,r,1,(-121.76378772032348, 121.76378772032349),24,-5,12,no,m,6,m,1.1915020000305958,1,16,test1,4,1.1917558999848552,-70.0
10,lyy,f,23,r,1,(-121.76378772032348, 121.76378772032349),24,25,4,yes,x,5,x,0.885033399972599,1,17,test1,4,0.8853075000224635,-20.0
10,lyy,f,23,r,1,(121.76378772032349, 121.76378772032349),22,-5,12,yes,x,5,x,1.1751724000205286,1,18,test1,4,1.1756196999922395,-50.0
10,lyy,f,23,r,1,(1.0544208940658713e-14, 172.20000000000002),23,3,1,yes,x,5,x,1.3837348999804817,1,19,test1,4,1.3839332000352442,-42.0
10,lyy,f,23,r,1,(1.0544208940658713e-14, 172.20000000000002),23,25,4,no,m,6,m,1.4097200999967754,1,20,test1,4,1.4098537000245415,-42.0
10,lyy,f,23,r,1,(172.20000000000002, 0.0),21,-5,12,yes,x,5,x,0.5412986000301316,1,21,test1,4,0.5415173000073992,-50.0
10,lyy,f,23,r,1,(-121.76378772032348, 121.76378772032349),24,-25,14,no,m,6,m,1.4265115999733098,1,22,test1,4,1.4269138000090607,-50.0
10,lyy,f,23,r,1,(1.0544208940658713e-14, 172.20000000000002),23,-7,13,yes,x,5,x,0.4895598000148311,1,23,test1,4,0.4896611000294797,-52.0
10,lyy,f,23,r,1,(121.76378772032349, 121.76378772032349),22,7,3,yes,x,5,x,0.5914467999828048,1,24,test1,4,0.5915475999936461,-38.0
10,lyy,f,23,r,1,(172.20000000000002, 0.0),21,-25,14,no,m,6,m,1.3089519999921322,1,25,test1,4,1.3094656999455765,-38.0
10,lyy,f,23,r,1,(-121.76378772032348, 121.76378772032349),24,5,2,no,m,6,m,1.5374969000113197,1,26,test1,4,1.5382768000126816,-38.0
10,lyy,f,23,r,1,(-121.76378772032352, -121.76378772032348),26,-7,13,yes,x,5,x,1.2957849000231363,1,27,test1,4,1.2961304999771528,-52.0
10,lyy,f,23,r,1,(172.20000000000002, 0.0),21,3,1,yes,x,5,x,1.0278570000082254,1,28,test1,4,1.02838780003367,-42.0
10,lyy,f,23,r,1,(121.76378772032349, 121.76378772032349),22,3,1,yes,x,5,x,1.1125953999580815,1,29,test1,4,1.1126981999841519,-42.0
10,lyy,f,23,r,1,(172.20000000000002, 0.0),21,-25,14,yes,x,5,x,0.5179987999727018,1,30,test1,4,0.5180997999850661,-70.0
10,lyy,f,23,r,1,(-172.20000000000002, 2.1088417881317425e-14),25,5,2,no,m,6,m,1.1354275000048801,1,31,test1,4,1.1358719999552704,-70.0
10,lyy,f,23,r,1,(121.76378772032349, 121.76378772032349),22,7,3,no,m,6,m,1.652008700009901,1,32,test1,4,1.652708799985703,-70.0
10,lyy,f,23,r,1,(-121.76378772032352, -121.76378772032348),26,3,1,yes,x,5,x,1.226692500000354,1,33,test1,4,1.2268215999938548,-42.0
10,lyy,f,23,r,1,(-3.163262682197613e-14, -172.20000000000002),27,25,4,yes,x,5,x,0.667635599966161,1,34,test1,4,0.6678508999757469,-20.0
10,lyy,f,23,r,1,(172.20000000000002, 0.0),21,3,1,yes,x,5,x,0.6282065000268631,1,35,test1,4,0.6283920000423677,-42.0
10,lyy,f,23,r,1,(121.76378772032346, -121.76378772032352),28,-3,11,yes,x,5,x,0.6093024999718182,1,36,test1,4,0.6094242000253871,-48.0
10,lyy,f,23,r,1,(121.76378772032346, -121.76378772032352),28,-5,12,yes,x,5,x,0.539945499971509,1,37,test1,4,0.5400450999732129,-50.0
10,lyy,f,23,r,1,(-172.20000000000002, 2.1088417881317425e-14),25,7,3,yes,x,5,x,0.42223680001916364,1,38,test1,4,0.42240129999117926,-38.0
10,lyy,f,23,r,1,(-121.76378772032352, -121.76378772032348),26,5,2,yes,x,5,x,0.5493293000035919,1,39,test1,4,0.5494595999480225,-40.0
10,lyy,f,23,r,1,(172.20000000000002, 0.0),21,-25,14,yes,x,5,x,0.41853489994537085,1,40,test1,4,0.4186828000238165,-70.0
10,lyy,f,23,r,1,(121.76378772032349, 121.76378772032349),22,3,1,yes,x,5,x,0.855000099982135,1,41,test1,4,0.8551072000409476,-42.0
10,lyy,f,23,r,1,(172.20000000000002, 0.0),21,-3,11,yes,x,5,x,0.7097959000384435,1,42,test1,4,0.7099014999694191,-48.0
10,lyy,f,23,r,1,(-172.20000000000002, 2.1088417881317425e-14),25,-5,12,yes,x,5,x,0.47393110004486516,1,43,test1,4,0.4741566999582574,-50.0
10,lyy,f,23,r,1,(-3.163262682197613e-14, -172.20000000000002),27,3,1,yes,x,5,x,1.041364100005012,1,44,test1,4,1.0418394000153057,-42.0
10,lyy,f,23,r,1,(1.0544208940658713e-14, 172.20000000000002),23,25,4,yes,x,5,x,0.3999710000352934,1,45,test1,4,0.40008400002261624,-20.0
10,lyy,f,23,r,1,(1.0544208940658713e-14, 172.20000000000002),23,-25,14,yes,x,5,x,0.40881809999700636,1,46,test1,4,0.4094545000116341,-70.0
10,lyy,f,23,r,1,(172.20000000000002, 0.0),21,-5,12,yes,x,5,x,0.5386525999638252,1,47,test1,4,0.5387646000017412,-50.0
10,lyy,f,23,r,1,(-121.76378772032352, -121.76378772032348),26,-3,11,no,m,6,m,1.4793818999896757,1,48,test1,4,1.48005330003798,-50.0
10,lyy,f,23,r,1,(-3.163262682197613e-14, -172.20000000000002),27,7,3,no,m,6,m,1.3036608999827877,1,49,test1,4,1.3042173000285402,-50.0
10,lyy,f,23,r,1,(-121.76378772032352, -121.76378772032348),26,-25,14,no,m,6,m,1.1833316000411287,1,50,test1,4,1.1834330999990925,-50.0
10,lyy,f,23,r,1,(-121.76378772032348, 121.76378772032349),24,-3,11,yes,x,5,x,0.7097268999787048,1,51,test1,4,0.709853199950885,-48.0
10,lyy,f,23,r,1,(172.20000000000002, 0.0),21,-7,13,no,m,6,m,1.393669199955184,1,52,test1,4,1.393842300050892,-48.0
10,lyy,f,23,r,1,(1.0544208940658713e-14, 172.20000000000002),23,3,1,yes,x,5,x,0.7530706000397913,1,53,test1,4,0.7534374000388198,-42.0
10,lyy,f,23,r,1,(121.76378772032349, 121.76378772032349),22,-25,14,yes,x,5,x,0.44889770000008866,1,54,test1,4,0.4491035000537522,-70.0
10,lyy,f,23,r,1,(121.76378772032346, -121.76378772032352),28,-3,11,no,m,6,m,1.3463950000004843,1,55,test1,4,1.346738499996718,-70.0
10,lyy,f,23,r,1,(-3.163262682197613e-14, -172.20000000000002),27,-25,14,no,m,6,m,0.7548304999945685,1,56,test1,4,0.7550455000018701,-70.0
10,lyy,f,23,r,1,(-172.20000000000002, 2.1088417881317425e-14),25,-3,11,no,m,6,m,1.0325644999975339,1,57,test1,4,1.0328051000251435,-70.0
10,lyy,f,23,r,1,(-3.163262682197613e-14, -172.20000000000002),27,-5,12,no,m,6,m,1.0531507999985479,1,58,test1,4,1.053527900017798,-70.0
10,lyy,f,23,r,1,(-3.163262682197613e-14, -172.20000000000002),27,25,4,yes,x,5,x,0.5369232000084594,1,59,test1,4,0.5370209999964572,-20.0
10,lyy,f,23,r,1,(172.20000000000002, 0.0),21,-3,11,yes,x,5,x,1.53145539999241,1,60,test1,4,1.5318427999736741,-48.0
10,lyy,f,23,r,1,(-121.76378772032348, 121.76378772032349),24,-7,13,no,m,6,m,1.17244989995379,1,61,test1,4,1.172725900018122,-48.0
10,lyy,f,23,r,1,(121.76378772032346, -121.76378772032352),28,-5,12,no,m,6,m,1.1342926999786869,1,62,test1,4,1.1345863999449648,-48.0
10,lyy,f,23,r,1,(121.76378772032346, -121.76378772032352),28,-25,14,no,m,6,m,1.4476116999867372,1,63,test1,4,1.447836900013499,-48.0
10,lyy,f,23,r,1,(121.76378772032346, -121.76378772032352),28,3,1,no,m,6,m,1.2682825999800116,1,64,test1,4,1.2689142999588512,-48.0
10,lyy,f,23,r,1,(1.0544208940658713e-14, 172.20000000000002),23,-5,12,yes,x,5,x,0.5648796999594197,1,65,test1,4,0.5649800000246614,-50.0
10,lyy,f,23,r,1,(-172.20000000000002, 2.1088417881317425e-14),25,7,3,no,m,6,x,1.4585464000119828,0,66,test1,4,1.4586676999460906,-50.0
10,lyy,f,23,r,1,(121.76378772032349, 121.76378772032349),22,-7,13,yes,x,5,x,0.4674501999979839,1,67,test1,4,0.4675480999867432,-52.0
10,lyy,f,23,r,1,(121.76378772032346, -121.76378772032352),28,-3,11,yes,x,5,x,1.3620891000027768,1,68,test1,4,1.362353400036227,-48.0
10,lyy,f,23,r,1,(121.76378772032349, 121.76378772032349),22,25,4,no,m,6,m,1.0640005000168458,1,69,test1,4,1.06416230002651,-48.0
10,lyy,f,23,r,1,(-121.76378772032348, 121.76378772032349),24,7,3,yes,x,5,x,0.5503195999772288,1,70,test1,4,0.5506567999836989,-38.0
10,lyy,f,23,r,1,(-121.76378772032352, -121.76378772032348),26,5,2,yes,x,5,x,0.8676704000099562,1,71,test1,4,0.8677729000337422,-40.0
10,lyy,f,23,r,1,(-172.20000000000002, 2.1088417881317425e-14),25,-25,14,no,m,6,m,1.3775788000202738,1,72,test1,4,1.3777970999944955,-40.0
10,lyy,f,23,r,1,(1.0544208940658713e-14, 172.20000000000002),23,-3,11,no,m,6,m,0.9685605999547988,1,73,test1,4,0.9688745000166818,-40.0
10,lyy,f,23,r,1,(-3.163262682197613e-14, -172.20000000000002),27,7,3,yes,x,5,x,0.5396872000419535,1,74,test1,4,0.5397884999983944,-38.0
10,lyy,f,23,r,1,(-3.163262682197613e-14, -172.20000000000002),27,25,4,no,m,6,m,1.1646285000024363,1,75,test1,4,1.1649316999828443,-38.0
10,lyy,f,23,r,1,(-3.163262682197613e-14, -172.20000000000002),27,-7,13,yes,x,5,x,0.8600982000352815,1,76,test1,4,0.8602042999700643,-52.0
10,lyy,f,23,r,1,(-172.20000000000002, 2.1088417881317425e-14),25,5,2,yes,x,5,x,0.5866920999833383,1,77,test1,4,0.586973899975419,-40.0
10,lyy,f,23,r,1,(-172.20000000000002, 2.1088417881317425e-14),25,25,4,yes,x,5,x,0.5987617999780923,1,78,test1,4,0.5991041000233963,-20.0
10,lyy,f,23,r,1,(1.0544208940658713e-14, 172.20000000000002),23,7,3,yes,x,5,x,0.5934789999737404,1,79,test1,4,0.5935753000085242,-38.0
10,lyy,f,23,r,1,(1.0544208940658713e-14, 172.20000000000002),23,5,2,no,m,6,m,0.9185069999657571,1,80,test1,4,0.9190413999604061,-38.0
10,lyy,f,23,r,1,(121.76378772032349, 121.76378772032349),22,-5,12,yes,x,5,x,0.6187702000024728,1,81,test1,4,0.6189364999881946,-50.0
10,lyy,f,23,r,1,(-121.76378772032348, 121.76378772032349),24,3,1,yes,x,5,x,1.350902300036978,1,82,test1,4,1.3513723000069149,-42.0
10,lyy,f,23,r,1,(172.20000000000002, 0.0),21,-7,13,yes,x,5,x,1.0451440999750048,1,83,test1,4,1.0457440000027418,-52.0
10,lyy,f,23,r,1,(-121.76378772032348, 121.76378772032349),24,5,2,yes,x,5,x,1.027471899986267,1,84,test1,4,1.0276339999982156,-40.0
10,lyy,f,23,r,1,(172.20000000000002, 0.0),21,25,4,yes,x,5,x,0.9481652999529615,1,85,test1,4,0.9484246000065468,-20.0
10,lyy,f,23,r,1,(-172.20000000000002, 2.1088417881317425e-14),25,-7,13,yes,x,5,x,0.5066001999657601,1,86,test1,4,0.5070080999867059,-52.0
10,lyy,f,23,r,1,(-172.20000000000002, 2.1088417881317425e-14),25,25,4,no,m,6,m,1.4357540999772027,1,87,test1,4,1.4358553999918513,-52.0
10,lyy,f,23,r,1,(-121.76378772032348, 121.76378772032349),24,25,4,no,m,6,m,0.9449109999695793,1,88,test1,4,0.9451294000027701,-52.0
10,lyy,f,23,r,1,(1.0544208940658713e-14, 172.20000000000002),23,-3,11,yes,x,5,x,0.8127103999722749,1,89,test1,4,0.8130177999846637,-48.0
10,lyy,f,23,r,1,(121.76378772032346, -121.76378772032352),28,25,4,yes,x,5,x,0.507549999980256,1,90,test1,4,0.5078382000210695,-20.0
10,lyy,f,23,r,1,(-121.76378772032348, 121.76378772032349),24,-5,12,yes,x,5,x,0.8772839999874122,1,91,test1,4,0.8773985999869183,-50.0
10,lyy,f,23,r,1,(1.0544208940658713e-14, 172.20000000000002),23,7,3,no,m,6,m,1.3008784999838099,1,92,test1,4,1.3015255000209436,-50.0
10,lyy,f,23,r,1,(-121.76378772032352, -121.76378772032348),26,25,4,yes,x,5,x,0.5576108999666758,1,93,test1,4,0.5577139999950305,-20.0
10,lyy,f,23,r,1,(-172.20000000000002, 2.1088417881317425e-14),25,7,3,yes,x,5,x,1.0378841999918222,1,94,test1,4,1.0382225000066683,-38.0
10,lyy,f,23,r,1,(1.0544208940658713e-14, 172.20000000000002),23,5,2,yes,x,5,x,1.3211480000172742,1,95,test1,4,1.3212455000029877,-40.0
10,lyy,f,23,r,1,(1.0544208940658713e-14, 172.20000000000002),23,-25,14,no,m,6,m,1.8196269999607466,1,96,test1,4,1.8199489999678917,-40.0
10,lyy,f,23,r,1,(-121.76378772032352, -121.76378772032348),26,-5,12,no,m,6,m,0.9158003000193276,1,1,test2,4,0.9160918000270613,-40.0
10,lyy,f,23,r,1,(121.76378772032346, -121.76378772032352),28,-7,13,yes,x,5,x,0.5115969000034966,1,2,test2,4,0.511850599956233,-52.0
10,lyy,f,23,r,1,(1.0544208940658713e-14, 172.20000000000002),23,5,2,yes,x,5,x,0.6004353000316769,1,3,test2,4,0.6005314000067301,-40.0
10,lyy,f,23,r,1,(-121.76378772032352, -121.76378772032348),26,-5,12,yes,x,5,x,0.5787030000356026,1,4,test2,4,0.578920699947048,-50.0
10,lyy,f,23,r,1,(-172.20000000000002, 2.1088417881317425e-14),25,5,2,yes,x,5,x,0.5577239000122063,1,5,test2,4,0.5579560999758542,-40.0
10,lyy,f,23,r,1,(-172.20000000000002, 2.1088417881317425e-14),25,-3,11,yes,x,5,x,0.6158237000345252,1,6,test2,4,0.6159520000219345,-48.0
10,lyy,f,23,r,1,(-121.76378772032348, 121.76378772032349),24,7,3,yes,x,5,x,0.43760639999527484,1,7,test2,4,0.4382784999907017,-38.0
10,lyy,f,23,r,1,(-172.20000000000002, 2.1088417881317425e-14),25,-7,13,yes,x,5,x,0.5090978000080213,1,8,test2,4,0.5091975999530405,-52.0
10,lyy,f,23,r,1,(1.0544208940658713e-14, 172.20000000000002),23,-5,12,yes,x,5,x,0.48931370000354946,1,9,test2,4,0.4895989999640733,-50.0
10,lyy,f,23,r,1,(-121.76378772032348, 121.76378772032349),24,-7,13,yes,x,5,x,0.8088830999913625,1,10,test2,4,0.8089978999923915,-52.0
10,lyy,f,23,r,1,(-121.76378772032352, -121.76378772032348),26,25,4,no,m,6,m,1.1479716000030749,1,11,test2,4,1.1481722999596968,-52.0
10,lyy,f,23,r,1,(121.76378772032346, -121.76378772032352),28,-25,14,yes,x,5,x,0.6372387000010349,1,12,test2,4,0.6375332999741659,-70.0
10,lyy,f,23,r,1,(-121.76378772032352, -121.76378772032348),26,25,4,yes,x,5,x,0.43219119997229427,1,13,test2,4,0.4324287999770604,-20.0
10,lyy,f,23,r,1,(121.76378772032349, 121.76378772032349),22,-3,11,yes,x,5,x,0.9061988000175916,1,14,test2,4,0.9063813000102527,-48.0
10,lyy,f,23,r,1,(-121.76378772032352, -121.76378772032348),26,7,3,no,m,6,m,1.3279131000163034,1,15,test2,4,1.3284480999573134,-48.0
10,lyy,f,23,r,1,(-121.76378772032348, 121.76378772032349),24,-3,11,yes,x,5,x,1.0007428999524564,1,16,test2,4,1.000988099956885,-48.0
10,lyy,f,23,r,1,(1.0544208940658713e-14, 172.20000000000002),23,3,1,no,m,6,m,1.024150000012014,1,17,test2,4,1.0243764000479132,-48.0
10,lyy,f,23,r,1,(-172.20000000000002, 2.1088417881317425e-14),25,-5,12,yes,x,5,x,0.5448712999932468,1,18,test2,4,0.5451269000186585,-50.0
10,lyy,f,23,r,1,(121.76378772032346, -121.76378772032352),28,-7,13,no,m,6,m,0.7818104000180028,1,19,test2,4,0.7822260999819264,-50.0
10,lyy,f,23,r,1,(121.76378772032349, 121.76378772032349),22,5,2,yes,x,5,x,0.8995741999824531,1,20,test2,4,0.8997157999547198,-40.0
10,lyy,f,23,r,1,(-121.76378772032348, 121.76378772032349),24,-3,11,no,m,6,m,1.1316557999816723,1,21,test2,4,1.1319092000485398,-40.0
10,lyy,f,23,r,1,(121.76378772032349, 121.76378772032349),22,3,1,no,m,6,m,1.3055249999742955,1,22,test2,4,1.3056243000319228,-40.0
10,lyy,f,23,r,1,(-172.20000000000002, 2.1088417881317425e-14),25,-7,13,no,m,6,m,0.7209856999688782,1,23,test2,4,0.7212089999811724,-40.0
10,lyy,f,23,r,1,(121.76378772032346, -121.76378772032352),28,25,4,yes,x,5,x,0.5515743000432849,1,24,test2,4,0.5520001000259072,-20.0
10,lyy,f,23,r,1,(-3.163262682197613e-14, -172.20000000000002),27,-3,11,yes,x,5,x,0.8916216000216082,1,25,test2,4,0.8917485999991186,-48.0
10,lyy,f,23,r,1,(121.76378772032346, -121.76378772032352),28,7,3,no,m,6,m,1.7369389000232331,1,26,test2,4,1.7375952000147663,-48.0
10,lyy,f,23,r,1,(-3.163262682197613e-14, -172.20000000000002),27,-5,12,yes,x,5,x,0.5110054999822751,1,27,test2,4,0.5111668000463396,-50.0
10,lyy,f,23,r,1,(-121.76378772032352, -121.76378772032348),26,3,1,yes,x,5,x,1.1378293999587186,1,28,test2,4,1.1379502000054345,-42.0
10,lyy,f,23,r,1,(-3.163262682197613e-14, -172.20000000000002),27,-5,12,yes,x,5,x,0.9061854999745265,1,29,test2,4,0.9063555999891832,-50.0
10,lyy,f,23,r,1,(1.0544208940658713e-14, 172.20000000000002),23,-25,14,yes,x,5,x,0.4091091000009328,1,30,test2,4,0.40931970003293827,-70.0
10,lyy,f,23,r,1,(-3.163262682197613e-14, -172.20000000000002),27,5,2,yes,x,5,x,0.49841410003136843,1,31,test2,4,0.49851400003535673,-40.0
10,lyy,f,23,r,1,(-121.76378772032352, -121.76378772032348),26,3,1,no,m,6,m,1.0788149000145495,1,32,test2,4,1.0793962000170723,-40.0
10,lyy,f,23,r,1,(121.76378772032346, -121.76378772032352),28,-5,12,yes,x,5,x,0.90347090002615,1,33,test2,4,0.9036444000084884,-50.0
10,lyy,f,23,r,1,(121.76378772032346, -121.76378772032352),28,-7,13,yes,x,5,x,0.8064743000431918,1,34,test2,4,0.8068102999823168,-52.0
10,lyy,f,23,r,1,(-121.76378772032348, 121.76378772032349),24,-5,12,yes,x,5,x,0.495092700002715,1,35,test2,4,0.4955778000294231,-50.0
10,lyy,f,23,r,1,(-121.76378772032348, 121.76378772032349),24,-7,13,yes,x,5,x,0.9819826000020839,1,36,test2,4,0.9822128999512643,-52.0
10,lyy,f,23,r,1,(121.76378772032346, -121.76378772032352),28,-25,14,yes,x,5,x,0.9923045999603346,1,37,test2,4,0.9926532999961637,-70.0
10,lyy,f,23,r,1,(121.76378772032346, -121.76378772032352),28,5,2,yes,x,5,x,0.7874531999696046,1,38,test2,4,0.7883099999744445,-40.0
10,lyy,f,23,r,1,(-3.163262682197613e-14, -172.20000000000002),27,5,2,yes,x,5,x,0.7284323999774642,1,39,test2,4,0.7286138000199571,-40.0
10,lyy,f,23,r,1,(1.0544208940658713e-14, 172.20000000000002),23,-7,13,yes,x,5,x,0.47033509996253997,1,40,test2,4,0.4706302999984473,-52.0
10,lyy,f,23,r,1,(172.20000000000002, 0.0),21,5,2,no,m,6,m,1.5905525999842212,1,41,test2,4,1.5906571000232361,-52.0
10,lyy,f,23,r,1,(121.76378772032349, 121.76378772032349),22,-7,13,yes,x,5,x,0.5757318999967538,1,42,test2,4,0.5759840999962762,-52.0
10,lyy,f,23,r,1,(121.76378772032349, 121.76378772032349),22,5,2,no,m,6,m,0.8912457000114955,1,43,test2,4,0.8915140000171959,-52.0
10,lyy,f,23,r,1,(172.20000000000002, 0.0),21,25,4,yes,x,5,x,0.48565320001216605,1,44,test2,4,0.4858162999735214,-20.0
10,lyy,f,23,r,1,(-121.76378772032348, 121.76378772032349),24,3,1,no,m,6,m,1.000479299982544,1,45,test2,4,1.0006076999707147,-20.0
10,lyy,f,23,r,1,(1.0544208940658713e-14, 172.20000000000002),23,-7,13,no,m,6,m,1.5899355000001378,1,46,test2,4,1.590140899992548,-20.0
10,lyy,f,23,r,1,(-121.76378772032348, 121.76378772032349),24,7,3,no,m,6,m,0.8389483999926597,1,47,test2,4,0.83911459997762,-20.0
10,lyy,f,23,r,1,(-3.163262682197613e-14, -172.20000000000002),27,3,1,no,m,6,m,1.0463219999801368,1,48,test2,4,1.0464391999994405,-20.0
10,lyy,f,23,r,1,(121.76378772032346, -121.76378772032352),28,5,2,yes,x,5,x,1.0105397999868728,1,49,test2,4,1.0106372999725863,-40.0
10,lyy,f,23,r,1,(-3.163262682197613e-14, -172.20000000000002),27,3,1,yes,x,5,x,0.8219169999938458,1,50,test2,4,0.8226779000251554,-42.0
10,lyy,f,23,r,1,(-121.76378772032352, -121.76378772032348),26,-7,13,no,m,6,m,0.8417784999473952,1,51,test2,4,0.8419169000117108,-42.0
10,lyy,f,23,r,1,(172.20000000000002, 0.0),21,5,2,yes,x,5,x,1.1966471999767236,1,52,test2,4,1.1967467000358738,-40.0
10,lyy,f,23,r,1,(-172.20000000000002, 2.1088417881317425e-14),25,25,4,yes,x,5,x,0.6822505000163801,1,53,test2,4,0.6824895999743603,-20.0
10,lyy,f,23,r,1,(-121.76378772032352, -121.76378772032348),26,7,3,yes,x,5,x,0.8696415000013076,1,54,test2,4,0.8697423000121489,-38.0
10,lyy,f,23,r,1,(121.76378772032349, 121.76378772032349),22,25,4,yes,x,5,x,0.6997640000190586,1,55,test2,4,0.6999230000074022,-20.0
10,lyy,f,23,r,1,(-121.76378772032348, 121.76378772032349),24,5,2,yes,x,5,x,1.1387097000260837,1,56,test2,4,1.1389154000207782,-40.0
10,lyy,f,23,r,1,(-121.76378772032348, 121.76378772032349),24,-25,14,yes,x,5,x,0.8698756999801844,1,57,test2,4,0.8701567999669351,-70.0
10,lyy,f,23,r,1,(-121.76378772032352, -121.76378772032348),26,-5,12,yes,x,5,x,0.5469084000214934,1,58,test2,4,0.5470422999933362,-50.0
