subj_id,subj_name,subj_gender ,subj_age,subj_handedness,subj_runNum,tar_l_x,tar_l_y,loc_code,tar_ori,tar_code,tar_pre ,cor_response,pre_code,subj_response,RT,correct,trial_num,type,bloc_num,dur, real_tar
10,lyy,f,23,r,2,(121.76378772032346, -121.76378772032352),28,-5,12,yes,x,5,x,1.6491099999984726,1,1,test1,1,1.6493496000184678,-50.0
10,lyy,f,23,r,2,(-172.20000000000002, 2.1088417881317425e-14),25,7,3,yes,x,5,x,0.5226668999530375,1,2,test1,1,0.5229204000206664,-38.0
10,lyy,f,23,r,2,(-3.163262682197613e-14, -172.20000000000002),27,3,1,yes,x,5,x,1.1631168000167236,1,3,test1,1,1.1633477000286803,-42.0
10,lyy,f,23,r,2,(-3.163262682197613e-14, -172.20000000000002),27,5,2,no,m,6,m,0.9491691999719478,1,4,test1,1,0.9495065999799408,-42.0
10,lyy,f,23,r,2,(-172.20000000000002, 2.1088417881317425e-14),25,25,4,yes,x,5,x,0.4445273000164889,1,5,test1,1,0.4446759999846108,-20.0
10,lyy,f,23,r,2,(-172.20000000000002, 2.1088417881317425e-14),25,-5,12,no,m,6,m,0.9677209000219591,1,6,test1,1,0.9683680000016466,-20.0
10,lyy,f,23,r,2,(-3.163262682197613e-14, -172.20000000000002),27,25,4,yes,x,5,x,0.44161979999626055,1,7,test1,1,0.44172150001395494,-20.0
10,lyy,f,23,r,2,(-121.76378772032348, 121.76378772032349),24,-5,12,yes,x,5,x,0.5102844000211917,1,8,test1,1,0.5105328999925405,-50.0
10,lyy,f,23,r,2,(121.76378772032346, -121.76378772032352),28,-7,13,yes,x,5,x,0.5524450000375509,1,9,test1,1,0.5529468999593519,-52.0
10,lyy,f,23,r,2,(172.20000000000002, 0.0),21,5,2,yes,x,5,x,0.47257330000866205,1,10,test1,1,0.4727652000146918,-40.0
10,lyy,f,23,r,2,(121.76378772032349, 121.76378772032349),22,5,2,no,m,6,m,0.9692608999903314,1,11,test1,1,0.969361099996604,-40.0
10,lyy,f,23,r,2,(121.76378772032346, -121.76378772032352),28,-5,12,no,m,6,m,1.2095179000170901,1,12,test1,1,1.2097259999718517,-40.0
10,lyy,f,23,r,2,(121.76378772032349, 121.76378772032349),22,25,4,yes,x,5,x,0.47576220001792535,1,13,test1,1,0.47589149995474145,-20.0
10,lyy,f,23,r,2,(-121.76378772032352, -121.76378772032348),26,-7,13,yes,x,5,x,0.4367713999818079,1,14,test1,1,0.43690249999053776,-52.0
10,lyy,f,23,r,2,(-121.76378772032348, 121.76378772032349),24,-7,13,yes,x,5,x,0.5201034999918193,1,15,test1,1,0.5202975000138395,-52.0
10,lyy,f,23,r,2,(172.20000000000002, 0.0),21,25,4,yes,x,5,x,0.40919610002310947,1,16,test1,1,0.40930509997997433,-20.0
10,lyy,f,23,r,2,(-121.76378772032352, -121.76378772032348),26,-7,13,yes,x,5,x,0.5154971000156365,1,17,test1,1,0.5158461999963038,-52.0
10,lyy,f,23,r,2,(-121.76378772032352, -121.76378772032348),26,5,2,yes,x,5,x,0.4032522999914363,1,18,test1,1,0.403376100002788,-40.0
10,lyy,f,23,r,2,(172.20000000000002, 0.0),21,-5,12,no,m,6,m,1.1153407000238076,1,19,test1,1,1.1154367999988608,-40.0
10,lyy,f,23,r,2,(121.76378772032349, 121.76378772032349),22,25,4,yes,x,5,x,0.41490800003521144,1,20,test1,1,0.4150939999963157,-20.0
10,lyy,f,23,r,2,(1.0544208940658713e-14, 172.20000000000002),23,25,4,yes,x,5,x,0.3905617000418715,1,21,test1,1,0.3906616999884136,-20.0
10,lyy,f,23,r,2,(-172.20000000000002, 2.1088417881317425e-14),25,-25,14,yes,x,5,x,0.3342636000015773,1,22,test1,1,0.33448040002258494,-70.0
10,lyy,f,23,r,2,(1.0544208940658713e-14, 172.20000000000002),23,7,3,yes,x,5,x,0.4191741999820806,1,23,test1,1,0.4193667999934405,-38.0
10,lyy,f,23,r,2,(1.0544208940658713e-14, 172.20000000000002),23,5,2,no,m,6,m,0.7948791999951936,1,24,test1,1,0.7952691999962553,-38.0
10,lyy,f,23,r,2,(121.76378772032346, -121.76378772032352),28,25,4,yes,x,5,x,0.4095013999613002,1,25,test1,1,0.4096008999622427,-20.0
10,lyy,f,23,r,2,(1.0544208940658713e-14, 172.20000000000002),23,-7,13,yes,x,5,x,0.595241500006523,1,26,test1,1,0.5953427000204101,-52.0
10,lyy,f,23,r,2,(1.0544208940658713e-14, 172.20000000000002),23,3,1,no,m,6,m,0.8195567999500781,1,27,test1,1,0.8196759999846108,-52.0
10,lyy,f,23,r,2,(1.0544208940658713e-14, 172.20000000000002),23,-25,14,yes,x,5,x,0.348894199996721,1,28,test1,1,0.3491679999860935,-70.0
10,lyy,f,23,r,2,(-3.163262682197613e-14, -172.20000000000002),27,25,4,no,m,6,m,0.9037874000496231,1,29,test1,1,0.9039953000028618,-70.0
10,lyy,f,23,r,2,(-121.76378772032348, 121.76378772032349),24,7,3,yes,x,5,x,0.5085029000183567,1,30,test1,1,0.5086033000261523,-38.0
10,lyy,f,23,r,2,(1.0544208940658713e-14, 172.20000000000002),23,-3,11,yes,x,5,x,0.8052659999812022,1,31,test1,1,0.8054704999667592,-48.0
10,lyy,f,23,r,2,(-172.20000000000002, 2.1088417881317425e-14),25,3,1,yes,x,5,m,1.3570200999965891,0,32,test1,1,1.357131999975536,-42.0
10,lyy,f,23,r,2,(172.20000000000002, 0.0),21,5,2,no,m,6,m,1.0392749999882653,1,33,test1,1,1.0395609000115655,-42.0
10,lyy,f,23,r,2,(-3.163262682197613e-14, -172.20000000000002),27,-25,14,yes,x,5,x,0.4401136999949813,1,34,test1,1,0.4402129999944009,-70.0
10,lyy,f,23,r,2,(121.76378772032349, 121.76378772032349),22,-3,11,yes,x,5,x,0.8576268999604508,1,35,test1,1,0.8577499000239186,-48.0
10,lyy,f,23,r,2,(172.20000000000002, 0.0),21,-3,11,yes,x,5,x,1.0951032000011764,1,36,test1,1,1.0955859000096098,-48.0
10,lyy,f,23,r,2,(121.76378772032346, -121.76378772032352),28,3,1,yes,x,5,x,1.07373230002122,1,37,test1,1,1.073827100044582,-42.0
10,lyy,f,23,r,2,(1.0544208940658713e-14, 172.20000000000002),23,-5,12,no,m,6,m,1.4653663000208326,1,38,test1,1,1.4656539999996312,-42.0
10,lyy,f,23,r,2,(-121.76378772032348, 121.76378772032349),24,25,4,no,m,6,m,1.2878843999933451,1,39,test1,1,1.288121499994304,-42.0
10,lyy,f,23,r,2,(121.76378772032346, -121.76378772032352),28,-5,12,yes,x,5,x,0.5349657000042498,1,40,test1,1,0.5351521999691613,-50.0
10,lyy,f,23,r,2,(1.0544208940658713e-14, 172.20000000000002),23,5,2,yes,x,5,x,0.542151500005275,1,41,test1,1,0.5422709000413306,-40.0
10,lyy,f,23,r,2,(-121.76378772032352, -121.76378772032348),26,25,4,yes,x,5,x,0.3577006999985315,1,42,test1,1,0.35806269996101037,-20.0
10,lyy,f,23,r,2,(121.76378772032349, 121.76378772032349),22,-5,12,no,m,6,m,1.535972399986349,1,43,test1,1,1.5361056000110693,-20.0
10,lyy,f,23,r,2,(1.0544208940658713e-14, 172.20000000000002),23,5,2,yes,x,5,x,0.4205288999946788,1,44,test1,1,0.42064620001474395,-40.0
10,lyy,f,23,r,2,(121.76378772032349, 121.76378772032349),22,3,1,no,m,6,m,1.4485317000071518,1,45,test1,1,1.4486343000316992,-40.0
10,lyy,f,23,r,2,(-3.163262682197613e-14, -172.20000000000002),27,-3,11,yes,x,5,x,0.8194469000445679,1,46,test1,1,0.8196207999717444,-48.0
10,lyy,f,23,r,2,(1.0544208940658713e-14, 172.20000000000002),23,7,3,no,m,6,m,0.9679870000109076,1,47,test1,1,0.9682099000201561,-48.0
10,lyy,f,23,r,2,(121.76378772032349, 121.76378772032349),22,-3,11,yes,x,5,x,0.9791751999873668,1,48,test1,1,0.9793996000080369,-48.0
10,lyy,f,23,r,2,(-121.76378772032348, 121.76378772032349),24,-3,11,yes,x,5,x,1.1091451999964193,1,49,test1,1,1.1094395999680273,-48.0
10,lyy,f,23,r,2,(-3.163262682197613e-14, -172.20000000000002),27,-3,11,no,m,6,m,1.0436189000029117,1,50,test1,1,1.043927100021392,-48.0
10,lyy,f,23,r,2,(121.76378772032346, -121.76378772032352),28,-3,11,yes,x,5,x,0.5463832999812439,1,51,test1,1,0.5464828000403941,-48.0
10,lyy,f,23,r,2,(1.0544208940658713e-14, 172.20000000000002),23,-5,12,yes,x,5,x,0.4127734000212513,1,52,test1,1,0.412874500034377,-50.0
10,lyy,f,23,r,2,(-121.76378772032348, 121.76378772032349),24,-7,13,yes,x,5,x,0.4586711000301875,1,53,test1,1,0.45880880003096536,-52.0
10,lyy,f,23,r,2,(-3.163262682197613e-14, -172.20000000000002),27,-7,13,yes,x,5,x,0.4511874999734573,1,54,test1,1,0.4513104999787174,-52.0
10,lyy,f,23,r,2,(1.0544208940658713e-14, 172.20000000000002),23,-5,12,yes,x,5,x,0.4631861000088975,1,55,test1,1,0.46332079998683184,-50.0
10,lyy,f,23,r,2,(-3.163262682197613e-14, -172.20000000000002),27,-25,14,no,m,6,x,0.4204419999732636,0,56,test1,1,0.420725800038781,-50.0
10,lyy,f,23,r,2,(-121.76378772032348, 121.76378772032349),24,25,4,yes,x,5,x,0.4915235000080429,1,57,test1,1,0.49172559997532517,-20.0
10,lyy,f,23,r,2,(-121.76378772032348, 121.76378772032349),24,-25,14,no,m,6,m,1.1841292000026442,1,58,test1,1,1.1849386999965645,-20.0
10,lyy,f,23,r,2,(-3.163262682197613e-14, -172.20000000000002),27,-7,13,yes,x,5,x,0.7204372000414878,1,59,test1,1,0.7206766000017524,-52.0
10,lyy,f,23,r,2,(121.76378772032346, -121.76378772032352),28,-3,11,no,m,6,m,1.3041697000153363,1,60,test1,1,1.304300699965097,-52.0
10,lyy,f,23,r,2,(-3.163262682197613e-14, -172.20000000000002),27,-3,11,yes,x,5,x,1.0982271999819204,1,61,test1,1,1.0983563999761827,-48.0
10,lyy,f,23,r,2,(-3.163262682197613e-14, -172.20000000000002),27,5,2,yes,x,5,x,0.7924699999857694,1,62,test1,1,0.7927824000362307,-40.0
10,lyy,f,23,r,2,(-172.20000000000002, 2.1088417881317425e-14),25,3,1,yes,x,5,m,1.3345448999898508,0,63,test1,1,1.334765299980063,-42.0
10,lyy,f,23,r,2,(-172.20000000000002, 2.1088417881317425e-14),25,-7,13,yes,x,5,x,0.48824159998912364,1,64,test1,1,0.48834549996536225,-52.0
10,lyy,f,23,r,2,(-3.163262682197613e-14, -172.20000000000002),27,25,4,yes,x,5,x,0.4498454999993555,1,65,test1,1,0.45028230000752956,-20.0
10,lyy,f,23,r,2,(121.76378772032349, 121.76378772032349),22,7,3,no,m,6,m,1.362498799979221,1,66,test1,1,1.3627310000010766,-20.0
10,lyy,f,23,r,2,(1.0544208940658713e-14, 172.20000000000002),23,7,3,yes,x,5,x,0.57900599995628,1,67,test1,1,0.5791637999936938,-38.0
10,lyy,f,23,r,2,(-172.20000000000002, 2.1088417881317425e-14),25,5,2,yes,x,5,x,0.6787750999792479,1,68,test1,1,0.678989099978935,-40.0
10,lyy,f,23,r,2,(172.20000000000002, 0.0),21,-5,12,yes,x,5,x,0.5065733999945223,1,69,test1,1,0.5066757999593392,-50.0
10,lyy,f,23,r,2,(-3.163262682197613e-14, -172.20000000000002),27,-25,14,yes,x,5,x,0.664069099992048,1,70,test1,1,0.6643104000249878,-70.0
10,lyy,f,23,r,2,(121.76378772032346, -121.76378772032352),28,7,3,yes,x,5,x,0.6602738000219688,1,71,test1,1,0.6604373000445776,-38.0
10,lyy,f,23,r,2,(121.76378772032349, 121.76378772032349),22,3,1,yes,x,5,x,0.8765828000032343,1,72,test1,1,0.8767948999884538,-42.0
10,lyy,f,23,r,2,(172.20000000000002, 0.0),21,-25,14,yes,x,5,x,0.46992709999904037,1,73,test1,1,0.47009069996420294,-70.0
10,lyy,f,23,r,2,(-121.76378772032352, -121.76378772032348),26,3,1,yes,x,5,m,1.6694561000331305,0,74,test1,1,1.6697747999569401,-42.0
10,lyy,f,23,r,2,(-172.20000000000002, 2.1088417881317425e-14),25,-25,14,no,m,6,m,1.5124884999822825,1,75,test1,1,1.5126575999893248,-42.0
10,lyy,f,23,r,2,(1.0544208940658713e-14, 172.20000000000002),23,3,1,yes,x,5,x,0.8034759999718517,1,76,test1,1,0.803576999984216,-42.0
10,lyy,f,23,r,2,(-121.76378772032348, 121.76378772032349),24,3,1,yes,x,5,x,0.8088652999722399,1,77,test1,1,0.8089928000117652,-42.0
10,lyy,f,23,r,2,(121.76378772032349, 121.76378772032349),22,-3,11,no,m,6,m,1.6014170999987982,1,78,test1,1,1.6016213999828324,-42.0
10,lyy,f,23,r,2,(121.76378772032346, -121.76378772032352),28,-3,11,yes,x,5,x,1.1279325999785215,1,79,test1,1,1.1281687999726273,-48.0
10,lyy,f,23,r,2,(-3.163262682197613e-14, -172.20000000000002),27,-5,12,yes,x,5,x,0.5107393999933265,1,80,test1,1,0.5110899999854155,-50.0
10,lyy,f,23,r,2,(-121.76378772032352, -121.76378772032348),26,-5,12,yes,x,5,x,0.5596709999954328,1,81,test1,1,0.5597884999588132,-50.0
10,lyy,f,23,r,2,(-172.20000000000002, 2.1088417881317425e-14),25,3,1,no,m,6,m,1.6720515000051819,1,82,test1,1,1.672289699956309,-50.0
10,lyy,f,23,r,2,(-121.76378772032352, -121.76378772032348),26,5,2,no,m,6,m,1.275576899992302,1,83,test1,1,1.2758494000299834,-50.0
10,lyy,f,23,r,2,(-121.76378772032352, -121.76378772032348),26,-3,11,no,m,6,m,0.9357972000143491,1,84,test1,1,0.936022799985949,-50.0
10,lyy,f,23,r,2,(121.76378772032346, -121.76378772032352),28,-7,13,yes,x,5,x,0.48291710001649335,1,85,test1,1,0.48301689996151254,-52.0
10,lyy,f,23,r,2,(1.0544208940658713e-14, 172.20000000000002),23,-7,13,no,m,6,x,1.9244987000129186,0,86,test1,1,1.9247893000137992,-52.0
10,lyy,f,23,r,2,(-121.76378772032352, -121.76378772032348),26,7,3,yes,x,5,x,0.5292857000022195,1,87,test1,1,0.5293848000001162,-38.0
10,lyy,f,23,r,2,(121.76378772032349, 121.76378772032349),22,-7,13,no,m,6,m,1.1364148000138812,1,88,test1,1,1.13685400004033,-38.0
10,lyy,f,23,r,2,(-3.163262682197613e-14, -172.20000000000002),27,7,3,no,m,6,m,1.0802708999835886,1,89,test1,1,1.0803681999677792,-38.0
10,lyy,f,23,r,2,(-121.76378772032348, 121.76378772032349),24,5,2,yes,x,5,x,0.5527155000017956,1,90,test1,1,0.5530156999593601,-40.0
10,lyy,f,23,r,2,(1.0544208940658713e-14, 172.20000000000002),23,25,4,no,m,6,m,1.0483524999581277,1,91,test1,1,1.0484559999895282,-40.0
10,lyy,f,23,r,2,(-121.76378772032348, 121.76378772032349),24,-3,11,no,m,6,m,1.1403720000525936,1,92,test1,1,1.1405450999736786,-40.0
10,lyy,f,23,r,2,(121.76378772032346, -121.76378772032352),28,7,3,yes,x,5,x,0.5852957000024617,1,93,test1,1,0.5855141999782063,-38.0
10,lyy,f,23,r,2,(172.20000000000002, 0.0),21,-7,13,yes,x,5,x,0.45223340002121404,1,94,test1,1,0.45238550001522526,-52.0
10,lyy,f,23,r,2,(-121.76378772032352, -121.76378772032348),26,25,4,yes,x,5,x,0.4823618999798782,1,95,test1,1,0.482478899997659,-20.0
10,lyy,f,23,r,2,(-121.76378772032348, 121.76378772032349),24,-25,14,yes,x,5,x,0.3849898999906145,1,96,test1,1,0.38510289997793734,-70.0
10,lyy,f,23,r,2,(172.20000000000002, 0.0),21,7,3,yes,x,5,x,0.774905199999921,1,1,test2,1,0.7751923999749124,-38.0
10,lyy,f,23,r,2,(172.20000000000002, 0.0),21,3,1,yes,x,5,x,0.9531811000197195,1,2,test2,1,0.9533156999968924,-42.0
10,lyy,f,23,r,2,(172.20000000000002, 0.0),21,7,3,yes,x,5,x,0.4854893999872729,1,3,test2,1,0.48586299997987226,-38.0
10,lyy,f,23,r,2,(-121.76378772032348, 121.76378772032349),24,3,1,no,m,6,x,1.2775316000333987,0,4,test2,1,1.2778194999555126,-38.0
10,lyy,f,23,r,2,(-172.20000000000002, 2.1088417881317425e-14),25,7,3,no,m,6,m,1.4651673999615014,1,5,test2,1,1.4653779999935068,-38.0
10,lyy,f,23,r,2,(-121.76378772032352, -121.76378772032348),26,-25,14,yes,x,5,x,0.4938141999882646,1,6,test2,1,0.49395089998142794,-70.0
10,lyy,f,23,r,2,(172.20000000000002, 0.0),21,-25,14,no,m,6,m,1.324655900010839,1,7,test2,1,1.3249466000124812,-70.0
10,lyy,f,23,r,2,(-3.163262682197613e-14, -172.20000000000002),27,-7,13,no,m,6,m,0.7777366999653168,1,8,test2,1,0.7778415000066161,-70.0
10,lyy,f,23,r,2,(121.76378772032346, -121.76378772032352),28,3,1,no,m,6,m,1.2761232999619097,1,9,test2,1,1.2764666000148281,-70.0
10,lyy,f,23,r,2,(121.76378772032346, -121.76378772032352),28,5,2,yes,x,5,x,0.5008719000034034,1,10,test2,1,0.5015009000198916,-40.0
10,lyy,f,23,r,2,(-3.163262682197613e-14, -172.20000000000002),27,-5,12,yes,x,5,x,0.532645900035277,1,11,test2,1,0.5329499999643303,-50.0
10,lyy,f,23,r,2,(-121.76378772032352, -121.76378772032348),26,3,1,no,m,6,m,0.8575313000474125,1,12,test2,1,0.8576443000347354,-50.0
10,lyy,f,23,r,2,(172.20000000000002, 0.0),21,-3,11,no,m,6,m,0.706093399960082,1,13,test2,1,0.706251900002826,-50.0
10,lyy,f,23,r,2,(-172.20000000000002, 2.1088417881317425e-14),25,-3,11,no,m,6,m,0.7725097999791615,1,14,test2,1,0.7728111000033095,-50.0
10,lyy,f,23,r,2,(-172.20000000000002, 2.1088417881317425e-14),25,25,4,no,m,6,m,0.6521911000018008,1,15,test2,1,0.6524622999713756,-50.0
10,lyy,f,23,r,2,(1.0544208940658713e-14, 172.20000000000002),23,-7,13,yes,x,5,x,0.4138931999914348,1,16,test2,1,0.4141272999695502,-52.0
10,lyy,f,23,r,2,(-172.20000000000002, 2.1088417881317425e-14),25,25,4,yes,x,5,x,0.3837582999840379,1,17,test2,1,0.3840331999817863,-20.0
10,lyy,f,23,r,2,(-121.76378772032348, 121.76378772032349),24,-25,14,yes,x,5,x,0.3729356999974698,1,18,test2,1,0.37305140000535175,-70.0
10,lyy,f,23,r,2,(121.76378772032346, -121.76378772032352),28,-25,14,no,m,6,m,1.4519795999513008,1,19,test2,1,1.4522583999787457,-70.0
10,lyy,f,23,r,2,(172.20000000000002, 0.0),21,3,1,no,m,6,m,1.6099403999978676,1,20,test2,1,1.6101606000447646,-70.0
10,lyy,f,23,r,2,(172.20000000000002, 0.0),21,7,3,no,m,6,m,0.7611175999627449,1,21,test2,1,0.7613820999977179,-70.0
10,lyy,f,23,r,2,(-172.20000000000002, 2.1088417881317425e-14),25,-3,11,yes,x,5,x,0.9295165999792516,1,22,test2,1,0.9297505000140518,-48.0
10,lyy,f,23,r,2,(172.20000000000002, 0.0),21,5,2,yes,x,5,x,0.9048883999930695,1,23,test2,1,0.905275699973572,-40.0
10,lyy,f,23,r,2,(121.76378772032349, 121.76378772032349),22,-7,13,yes,x,5,x,0.5571293000248261,1,24,test2,1,0.5573218000354245,-52.0
10,lyy,f,23,r,2,(-3.163262682197613e-14, -172.20000000000002),27,3,1,yes,x,5,x,1.2042862999951467,1,25,test2,1,1.20438930002274,-42.0
10,lyy,f,23,r,2,(-121.76378772032352, -121.76378772032348),26,3,1,yes,x,5,x,1.2080892999656498,1,26,test2,1,1.208376299997326,-42.0
10,lyy,f,23,r,2,(121.76378772032349, 121.76378772032349),22,25,4,no,m,6,m,0.9903476000181399,1,27,test2,1,0.9904993000091054,-42.0
10,lyy,f,23,r,2,(-121.76378772032352, -121.76378772032348),26,7,3,yes,x,5,x,0.8491909999866039,1,28,test2,1,0.8492944000172429,-38.0
10,lyy,f,23,r,2,(121.76378772032346, -121.76378772032352),28,-25,14,yes,x,5,x,0.540693300019484,1,29,test2,1,0.5409481000388041,-70.0
10,lyy,f,23,r,2,(121.76378772032346, -121.76378772032352),28,7,3,no,m,6,m,1.499462100036908,1,30,test2,1,1.4995609000325203,-70.0
10,lyy,f,23,r,2,(-121.76378772032352, -121.76378772032348),26,-25,14,yes,x,5,x,0.5380374999949709,1,31,test2,1,0.5381680999998935,-70.0
10,lyy,f,23,r,2,(-121.76378772032352, -121.76378772032348),26,5,2,yes,x,5,x,0.627013600023929,1,32,test2,1,0.6276989999460056,-40.0
10,lyy,f,23,r,2,(-121.76378772032348, 121.76378772032349),24,3,1,yes,x,5,x,0.9521681999904104,1,33,test2,1,0.9523136999923736,-42.0
10,lyy,f,23,r,2,(121.76378772032346, -121.76378772032352),28,5,2,no,m,6,m,1.810951700026635,1,34,test2,1,1.8110858000000007,-42.0
10,lyy,f,23,r,2,(1.0544208940658713e-14, 172.20000000000002),23,-25,14,no,m,6,m,1.1788296999875456,1,35,test2,1,1.1789554000133649,-42.0
10,lyy,f,23,r,2,(-3.163262682197613e-14, -172.20000000000002),27,5,2,yes,x,5,x,0.6576725999475457,1,36,test2,1,0.6577720999484882,-40.0
10,lyy,f,23,r,2,(-121.76378772032352, -121.76378772032348),26,-5,12,no,m,6,m,1.0726883000461385,1,37,test2,1,1.0728186999913305,-40.0
10,lyy,f,23,r,2,(172.20000000000002, 0.0),21,25,4,yes,x,5,x,0.7048931000172161,1,38,test2,1,0.7052733000018634,-20.0
10,lyy,f,23,r,2,(-121.76378772032352, -121.76378772032348),26,-25,14,no,m,6,m,1.3731357000069693,1,39,test2,1,1.373266100010369,-20.0
10,lyy,f,23,r,2,(121.76378772032349, 121.76378772032349),22,-25,14,yes,x,5,x,0.658444500004407,1,40,test2,1,0.6585456999600865,-70.0
10,lyy,f,23,r,2,(121.76378772032349, 121.76378772032349),22,-25,14,no,m,6,m,1.289016900002025,1,41,test2,1,1.2891751000424847,-70.0
10,lyy,f,23,r,2,(121.76378772032346, -121.76378772032352),28,25,4,yes,x,5,x,0.5526610999950208,1,42,test2,1,0.5529923000140116,-20.0
10,lyy,f,23,r,2,(-121.76378772032348, 121.76378772032349),24,5,2,yes,x,5,x,0.8904967000125907,1,43,test2,1,0.8907285999739543,-40.0
10,lyy,f,23,r,2,(-172.20000000000002, 2.1088417881317425e-14),25,-5,12,yes,x,5,x,0.8741481999750249,1,44,test2,1,0.8742444000090472,-50.0
10,lyy,f,23,r,2,(-172.20000000000002, 2.1088417881317425e-14),25,-25,14,yes,x,5,x,0.5726316999644041,1,45,test2,1,0.5727325999760069,-70.0
10,lyy,f,23,r,2,(-172.20000000000002, 2.1088417881317425e-14),25,7,3,yes,x,5,x,0.5355810999753885,1,46,test2,1,0.536200699978508,-38.0
10,lyy,f,23,r,2,(-3.163262682197613e-14, -172.20000000000002),27,7,3,yes,x,5,x,0.7135976999998093,1,47,test2,1,0.7138203000067733,-38.0
10,lyy,f,23,r,2,(121.76378772032346, -121.76378772032352),28,-25,14,yes,x,5,x,0.4746508999960497,1,48,test2,1,0.474815999972634,-70.0
10,lyy,f,23,r,2,(-121.76378772032352, -121.76378772032348),26,-7,13,no,m,6,m,1.210394699999597,1,49,test2,1,1.2106168000027537,-70.0
10,lyy,f,23,r,2,(-121.76378772032348, 121.76378772032349),24,7,3,yes,x,5,x,0.5432358999969438,1,50,test2,1,0.5435513999545947,-38.0
10,lyy,f,23,r,2,(121.76378772032349, 121.76378772032349),22,3,1,yes,x,5,x,1.2551915000076406,1,51,test2,1,1.2553549999720417,-42.0
10,lyy,f,23,r,2,(-121.76378772032348, 121.76378772032349),24,-5,12,no,m,6,m,1.0896420999779366,1,52,test2,1,1.089842099987436,-42.0
10,lyy,f,23,r,2,(121.76378772032346, -121.76378772032352),28,25,4,no,m,6,m,1.5331649000290781,1,53,test2,1,1.533640900044702,-42.0
10,lyy,f,23,r,2,(-121.76378772032348, 121.76378772032349),24,-3,11,yes,x,5,x,0.932084100029897,1,54,test2,1,0.9321890999563038,-48.0
10,lyy,f,23,r,2,(-172.20000000000002, 2.1088417881317425e-14),25,-3,11,yes,x,5,x,0.8332897999789566,1,55,test2,1,0.8336902000010014,-48.0
10,lyy,f,23,r,2,(121.76378772032349, 121.76378772032349),22,7,3,yes,x,5,x,0.6914938999689184,1,56,test2,1,0.6916085999691859,-38.0
10,lyy,f,23,r,2,(-3.163262682197613e-14, -172.20000000000002),27,7,3,yes,x,5,x,0.5045461999834515,1,57,test2,1,0.5050154000055045,-38.0
10,lyy,f,23,r,2,(-121.76378772032348, 121.76378772032349),24,7,3,no,m,6,m,1.2175674000172876,1,58,test2,1,1.2179449999821372,-38.0
10,lyy,f,23,r,2,(121.76378772032349, 121.76378772032349),22,-7,13,yes,x,5,x,0.7867136999848299,1,59,test2,1,0.7868131999857724,-52.0
10,lyy,f,23,r,2,(172.20000000000002, 0.0),21,-3,11,yes,x,5,x,1.097789500025101,1,60,test2,1,1.0979220000444911,-48.0
10,lyy,f,23,r,2,(172.20000000000002, 0.0),21,-7,13,yes,x,5,x,0.8034878000034951,1,61,test2,1,0.8037765999906696,-52.0
10,lyy,f,23,r,2,(1.0544208940658713e-14, 172.20000000000002),23,-3,11,no,m,6,m,1.340652599988971,1,62,test2,1,1.340750899980776,-52.0
10,lyy,f,23,r,2,(172.20000000000002, 0.0),21,3,1,yes,x,5,x,0.9130229000002146,1,63,test2,1,0.9136092999833636,-42.0
10,lyy,f,23,r,2,(121.76378772032349, 121.76378772032349),22,-5,12,yes,x,5,x,0.5484440000145696,1,64,test2,1,0.5486833000322804,-50.0
10,lyy,f,23,r,2,(121.76378772032349, 121.76378772032349),22,5,2,yes,x,5,x,0.7974050999619067,1,65,test2,1,0.7975329000037163,-40.0
10,lyy,f,23,r,2,(-121.76378772032348, 121.76378772032349),24,-7,13,no,m,6,m,1.6313701999606565,1,66,test2,1,1.6315362000023015,-40.0
10,lyy,f,23,r,2,(121.76378772032346, -121.76378772032352),28,3,1,yes,x,5,x,1.3089173000189476,1,67,test2,1,1.309046300011687,-42.0
10,lyy,f,23,r,2,(-121.76378772032352, -121.76378772032348),26,25,4,no,m,6,m,1.4913528999895789,1,68,test2,1,1.4914515999844298,-42.0
10,lyy,f,23,r,2,(172.20000000000002, 0.0),21,-7,13,no,m,6,m,0.978945599985309,1,69,test2,1,0.9795641000382602,-42.0
10,lyy,f,23,r,2,(172.20000000000002, 0.0),21,-25,14,yes,x,5,x,0.535042000003159,1,70,test2,1,0.5352077999850735,-70.0
10,lyy,f,23,r,2,(-121.76378772032348, 121.76378772032349),24,25,4,yes,x,5,x,0.40794379997532815,1,71,test2,1,0.40804240002762526,-20.0
10,lyy,f,23,r,2,(-121.76378772032352, -121.76378772032348),26,-3,11,yes,x,5,x,0.9602751999627799,1,72,test2,1,0.9603805000078864,-48.0
10,lyy,f,23,r,2,(121.76378772032349, 121.76378772032349),22,-5,12,yes,x,5,x,0.5442944000242278,1,73,test2,1,0.5445132000022568,-50.0
10,lyy,f,23,r,2,(121.76378772032346, -121.76378772032352),28,-7,13,no,m,6,m,1.1785296000307426,1,74,test2,1,1.1789576000301167,-50.0
10,lyy,f,23,r,2,(172.20000000000002, 0.0),21,-5,12,yes,x,5,x,0.8382233000011183,1,75,test2,1,0.8385199999902397,-50.0
10,lyy,f,23,r,2,(121.76378772032346, -121.76378772032352),28,5,2,yes,x,5,x,1.0287583000026643,1,76,test2,1,1.0289739000145346,-40.0
10,lyy,f,23,r,2,(121.76378772032349, 121.76378772032349),22,7,3,yes,x,5,x,0.5360248999786563,1,77,test2,1,0.5364440999692306,-38.0
10,lyy,f,23,r,2,(172.20000000000002, 0.0),21,25,4,no,m,6,m,1.3675802999641746,1,78,test2,1,1.3680034999852069,-38.0
10,lyy,f,23,r,2,(-3.163262682197613e-14, -172.20000000000002),27,3,1,no,m,6,m,0.849082900036592,1,79,test2,1,0.8496232999605127,-38.0
10,lyy,f,23,r,2,(1.0544208940658713e-14, 172.20000000000002),23,-25,14,yes,x,5,x,0.4565053999540396,1,80,test2,1,0.4566357000148855,-70.0
10,lyy,f,23,r,2,(121.76378772032349, 121.76378772032349),22,5,2,yes,x,5,x,0.5724173000198789,1,81,test2,1,0.5725436999928206,-40.0
10,lyy,f,23,r,2,(121.76378772032349, 121.76378772032349),22,-25,14,yes,x,5,x,0.5347397000296041,1,82,test2,1,0.5354079000535421,-70.0
10,lyy,f,23,r,2,(-121.76378772032352, -121.76378772032348),26,-3,11,yes,x,5,m,0.7357873999862932,0,83,test2,1,0.7358922000275925,-48.0
10,lyy,f,23,r,2,(-121.76378772032352, -121.76378772032348),26,7,3,no,m,6,m,1.0811036000377499,1,84,test2,1,1.081336899951566,-48.0
10,lyy,f,23,r,2,(-172.20000000000002, 2.1088417881317425e-14),25,-7,13,yes,x,5,x,0.6935395000036806,1,85,test2,1,0.6937041999772191,-52.0
10,lyy,f,23,r,2,(1.0544208940658713e-14, 172.20000000000002),23,-3,11,yes,x,5,x,0.9858377000200562,1,86,test2,1,0.9859396999818273,-48.0
10,lyy,f,23,r,2,(-121.76378772032348, 121.76378772032349),24,5,2,no,m,6,m,1.480042700015474,1,87,test2,1,1.4804147999966517,-48.0
10,lyy,f,23,r,2,(1.0544208940658713e-14, 172.20000000000002),23,25,4,yes,x,5,x,0.464339199999813,1,88,test2,1,0.4644646000233479,-20.0
10,lyy,f,23,r,2,(-172.20000000000002, 2.1088417881317425e-14),25,-5,12,yes,x,5,x,0.917702799953986,1,89,test2,1,0.9179802999715321,-50.0
10,lyy,f,23,r,2,(-172.20000000000002, 2.1088417881317425e-14),25,5,2,yes,x,5,x,0.6149582999642007,1,90,test2,1,0.6158285000128672,-40.0
10,lyy,f,23,r,2,(1.0544208940658713e-14, 172.20000000000002),23,3,1,yes,x,5,m,1.4760322000365704,0,91,test2,1,1.4762218000250868,-42.0
10,lyy,f,23,r,2,(-121.76378772032348, 121.76378772032349),24,-5,12,yes,x,5,x,0.7163364999578334,1,92,test2,1,0.7164340000017546,-50.0
10,lyy,f,23,r,2,(-172.20000000000002, 2.1088417881317425e-14),25,-7,13,no,m,6,m,1.1746367000159808,1,93,test2,1,1.1747601999668404,-50.0
10,lyy,f,23,r,2,(-172.20000000000002, 2.1088417881317425e-14),25,5,2,no,m,6,m,1.3275619999621995,1,94,test2,1,1.3280490000033751,-50.0
10,lyy,f,23,r,2,(-3.163262682197613e-14, -172.20000000000002),27,-5,12,no,m,6,m,1.751941700000316,1,95,test2,1,1.7521463999873959,-50.0
10,lyy,f,23,r,2,(-121.76378772032352, -121.76378772032348),26,-5,12,yes,x,5,x,0.5812487999792211,1,96,test2,1,0.5813514999463223,-50.0
10,lyy,f,23,r,2,(121.76378772032346, -121.76378772032352),28,-5,12,yes,x,5,x,0.5982499000383541,1,1,test1,2,0.5985219999565743,-50.0
10,lyy,f,23,r,2,(-172.20000000000002, 2.1088417881317425e-14),25,7,3,yes,x,5,x,0.46803420002106577,1,2,test1,2,0.4681587999803014,-38.0
10,lyy,f,23,r,2,(-3.163262682197613e-14, -172.20000000000002),27,3,1,yes,x,5,x,0.6363391000195406,1,3,test1,2,0.6365790999843739,-42.0
10,lyy,f,23,r,2,(-3.163262682197613e-14, -172.20000000000002),27,5,2,no,m,6,m,0.9415225000120699,1,4,test1,2,0.9418063000193797,-42.0
10,lyy,f,23,r,2,(-172.20000000000002, 2.1088417881317425e-14),25,25,4,yes,x,5,x,0.43901320005534217,1,5,test1,2,0.43931480002356693,-20.0
10,lyy,f,23,r,2,(-172.20000000000002, 2.1088417881317425e-14),25,-5,12,no,m,6,m,1.5756717000040226,1,6,test1,2,1.5757860000012442,-20.0
10,lyy,f,23,r,2,(-3.163262682197613e-14, -172.20000000000002),27,25,4,yes,x,5,x,0.43572940002195537,1,7,test1,2,0.4359680999768898,-20.0
10,lyy,f,23,r,2,(-121.76378772032348, 121.76378772032349),24,-5,12,yes,x,5,x,0.7233201000490226,1,8,test1,2,0.7237352000083774,-50.0
10,lyy,f,23,r,2,(121.76378772032346, -121.76378772032352),28,-7,13,yes,x,5,x,0.48920720000751317,1,9,test1,2,0.48930610000388697,-52.0
10,lyy,f,23,r,2,(172.20000000000002, 0.0),21,5,2,yes,x,5,x,0.5766669000149705,1,10,test1,2,0.577065700024832,-40.0
10,lyy,f,23,r,2,(121.76378772032349, 121.76378772032349),22,5,2,no,m,6,m,1.3875185999786481,1,11,test1,2,1.3878130000084639,-40.0
10,lyy,f,23,r,2,(121.76378772032346, -121.76378772032352),28,-5,12,no,m,6,m,0.993919700034894,1,12,test1,2,0.9940378000028431,-40.0
10,lyy,f,23,r,2,(121.76378772032349, 121.76378772032349),22,25,4,yes,x,5,x,0.5671922999899834,1,13,test1,2,0.5673068999894895,-20.0
10,lyy,f,23,r,2,(-121.76378772032352, -121.76378772032348),26,-7,13,yes,x,5,x,0.7458171999896877,1,14,test1,2,0.7459346000105143,-52.0
10,lyy,f,23,r,2,(-121.76378772032348, 121.76378772032349),24,-7,13,yes,x,5,x,0.5856487000128254,1,15,test1,2,0.5857484000152908,-52.0
10,lyy,f,23,r,2,(172.20000000000002, 0.0),21,25,4,yes,x,5,x,0.5495862999814562,1,16,test1,2,0.5501517000375316,-20.0
10,lyy,f,23,r,2,(-121.76378772032352, -121.76378772032348),26,-7,13,yes,x,5,x,0.5450855999952182,1,17,test1,2,0.5452170000062324,-52.0
10,lyy,f,23,r,2,(-121.76378772032352, -121.76378772032348),26,5,2,yes,x,5,x,0.7034849000046961,1,18,test1,2,0.7036015000194311,-40.0
10,lyy,f,23,r,2,(172.20000000000002, 0.0),21,-5,12,no,m,6,m,1.6696842000237666,1,19,test1,2,1.6700829999754205,-40.0
10,lyy,f,23,r,2,(121.76378772032349, 121.76378772032349),22,25,4,yes,x,5,x,0.4614138000179082,1,20,test1,2,0.4615137000218965,-20.0
10,lyy,f,23,r,2,(1.0544208940658713e-14, 172.20000000000002),23,25,4,yes,x,5,x,0.49367270001675934,1,21,test1,2,0.49380700004985556,-20.0
10,lyy,f,23,r,2,(-172.20000000000002, 2.1088417881317425e-14),25,-25,14,yes,x,5,x,0.3902830999577418,1,22,test1,2,0.39054399996530265,-70.0
10,lyy,f,23,r,2,(1.0544208940658713e-14, 172.20000000000002),23,7,3,yes,x,5,x,0.6164613000000827,1,23,test1,2,0.6171234000357799,-38.0
10,lyy,f,23,r,2,(1.0544208940658713e-14, 172.20000000000002),23,5,2,no,m,6,m,1.6620656999875791,1,24,test1,2,1.6623164000338875,-38.0
10,lyy,f,23,r,2,(121.76378772032346, -121.76378772032352),28,25,4,yes,x,5,x,0.437280300015118,1,25,test1,2,0.4377117000403814,-20.0
10,lyy,f,23,r,2,(1.0544208940658713e-14, 172.20000000000002),23,-7,13,yes,x,5,x,0.6144650000496767,1,26,test1,2,0.6146832999656908,-52.0
10,lyy,f,23,r,2,(1.0544208940658713e-14, 172.20000000000002),23,3,1,no,m,6,m,1.763984800025355,1,27,test1,2,1.764334700012114,-52.0
10,lyy,f,23,r,2,(1.0544208940658713e-14, 172.20000000000002),23,-25,14,yes,x,5,x,0.4516806000028737,1,28,test1,2,0.4518021999974735,-70.0
10,lyy,f,23,r,2,(-3.163262682197613e-14, -172.20000000000002),27,25,4,no,m,6,m,1.1510033000377007,1,29,test1,2,1.1511163000250235,-70.0
10,lyy,f,23,r,2,(-121.76378772032348, 121.76378772032349),24,7,3,yes,x,5,x,0.43015480000758544,1,30,test1,2,0.4304298999486491,-38.0
10,lyy,f,23,r,2,(1.0544208940658713e-14, 172.20000000000002),23,-3,11,yes,x,5,x,0.7296712000388652,1,31,test1,2,0.7298610000289045,-48.0
10,lyy,f,23,r,2,(-172.20000000000002, 2.1088417881317425e-14),25,3,1,yes,x,5,x,0.5554243999649771,1,32,test1,2,0.5555870999814942,-42.0
10,lyy,f,23,r,2,(172.20000000000002, 0.0),21,5,2,no,m,6,m,1.3840472000301816,1,33,test1,2,1.3841568999923766,-42.0
10,lyy,f,23,r,2,(-3.163262682197613e-14, -172.20000000000002),27,-25,14,yes,x,5,x,0.4877612999989651,1,34,test1,2,0.4878815999836661,-70.0
10,lyy,f,23,r,2,(121.76378772032349, 121.76378772032349),22,-3,11,yes,x,5,x,1.3504358000354841,1,35,test1,2,1.3507029000320472,-48.0
10,lyy,f,23,r,2,(172.20000000000002, 0.0),21,-3,11,yes,x,5,x,1.1030051999841817,1,36,test1,2,1.1034054000047036,-48.0
10,lyy,f,23,r,2,(121.76378772032346, -121.76378772032352),28,3,1,yes,x,5,x,0.9660959999891929,1,37,test1,2,0.9662293999572285,-42.0
10,lyy,f,23,r,2,(1.0544208940658713e-14, 172.20000000000002),23,-5,12,no,m,6,m,1.6062597999698482,1,38,test1,2,1.6065107000176795,-42.0
10,lyy,f,23,r,2,(-121.76378772032348, 121.76378772032349),24,25,4,no,m,6,m,1.2805270999670029,1,39,test1,2,1.280659599986393,-42.0
10,lyy,f,23,r,2,(121.76378772032346, -121.76378772032352),28,-5,12,yes,x,5,m,0.6552820000215434,0,40,test1,2,0.6562051000073552,-50.0
10,lyy,f,23,r,2,(1.0544208940658713e-14, 172.20000000000002),23,5,2,yes,x,5,x,0.5097579999710433,1,41,test1,2,0.5098588999826461,-40.0
10,lyy,f,23,r,2,(-121.76378772032352, -121.76378772032348),26,25,4,yes,x,5,x,0.760667500027921,1,42,test1,2,0.7607788000022992,-20.0
10,lyy,f,23,r,2,(121.76378772032349, 121.76378772032349),22,-5,12,no,m,6,m,1.216140499978792,1,43,test1,2,1.216412500012666,-20.0
10,lyy,f,23,r,2,(1.0544208940658713e-14, 172.20000000000002),23,5,2,yes,x,5,x,1.2255973999854177,1,44,test1,2,1.2259020999772474,-40.0
10,lyy,f,23,r,2,(121.76378772032349, 121.76378772032349),22,3,1,no,m,6,m,1.360787000041455,1,45,test1,2,1.3610273000085726,-40.0
10,lyy,f,23,r,2,(-3.163262682197613e-14, -172.20000000000002),27,-3,11,yes,x,5,x,1.9385657000239007,1,46,test1,2,1.9388526999973692,-48.0
10,lyy,f,23,r,2,(1.0544208940658713e-14, 172.20000000000002),23,7,3,no,m,6,m,1.4024932000320405,1,47,test1,2,1.4033755999989808,-48.0
10,lyy,f,23,r,2,(121.76378772032349, 121.76378772032349),22,-3,11,yes,x,5,x,1.0071779999998398,1,48,test1,2,1.0073344000265934,-48.0
10,lyy,f,23,r,2,(-121.76378772032348, 121.76378772032349),24,-3,11,yes,x,5,x,1.5165428000036627,1,49,test1,2,1.5166630999883637,-48.0
10,lyy,f,23,r,2,(-3.163262682197613e-14, -172.20000000000002),27,-3,11,no,m,6,m,1.3776759000029415,1,50,test1,2,1.3779220000142232,-48.0
10,lyy,f,23,r,2,(121.76378772032346, -121.76378772032352),28,-3,11,yes,x,5,x,1.0113082000170834,1,51,test1,2,1.0115998000255786,-48.0
10,lyy,f,23,r,2,(1.0544208940658713e-14, 172.20000000000002),23,-5,12,yes,x,5,x,0.667456700000912,1,52,test1,2,0.6675569000071846,-50.0
10,lyy,f,23,r,2,(-121.76378772032348, 121.76378772032349),24,-7,13,yes,x,5,x,0.8291539000347257,1,53,test1,2,0.829482100030873,-52.0
10,lyy,f,23,r,2,(-3.163262682197613e-14, -172.20000000000002),27,-7,13,yes,x,5,x,1.53829500003485,1,54,test1,2,1.5386737000080757,-52.0
10,lyy,f,23,r,2,(1.0544208940658713e-14, 172.20000000000002),23,-5,12,yes,x,5,x,0.8368484000093304,1,55,test1,2,0.8370361000415869,-50.0
10,lyy,f,23,r,2,(-3.163262682197613e-14, -172.20000000000002),27,-25,14,no,m,6,m,1.9622703999630176,1,56,test1,2,1.962366199993994,-50.0
10,lyy,f,23,r,2,(-121.76378772032348, 121.76378772032349),24,25,4,yes,x,5,x,0.548921599984169,1,57,test1,2,0.549034500028938,-20.0
10,lyy,f,23,r,2,(-121.76378772032348, 121.76378772032349),24,-25,14,no,m,6,m,1.6053116000257432,1,58,test1,2,1.6054382000002079,-20.0
10,lyy,f,23,r,2,(-3.163262682197613e-14, -172.20000000000002),27,-7,13,yes,x,5,x,1.035044900025241,1,59,test1,2,1.0351766000385396,-52.0
10,lyy,f,23,r,2,(121.76378772032346, -121.76378772032352),28,-3,11,no,m,6,m,1.1936631000135094,1,60,test1,2,1.1939386000158265,-52.0
10,lyy,f,23,r,2,(-3.163262682197613e-14, -172.20000000000002),27,-3,11,yes,x,5,x,1.1327754000085406,1,61,test1,2,1.1331827000249177,-48.0
10,lyy,f,23,r,2,(-3.163262682197613e-14, -172.20000000000002),27,5,2,yes,x,5,x,0.49586540000746027,1,62,test1,2,0.49604810000164434,-40.0
10,lyy,f,23,r,2,(-172.20000000000002, 2.1088417881317425e-14),25,3,1,yes,x,5,x,0.8156183999963105,1,63,test1,2,0.8160908999852836,-42.0
10,lyy,f,23,r,2,(-172.20000000000002, 2.1088417881317425e-14),25,-7,13,yes,x,5,x,0.7712371000088751,1,64,test1,2,0.7714588000089861,-52.0
10,lyy,f,23,r,2,(-3.163262682197613e-14, -172.20000000000002),27,25,4,yes,x,5,x,0.5663871000288054,1,65,test1,2,0.566595199983567,-20.0
10,lyy,f,23,r,2,(121.76378772032349, 121.76378772032349),22,7,3,no,m,6,x,1.7321653999970295,0,66,test1,2,1.7322618999751285,-20.0
10,lyy,f,23,r,2,(1.0544208940658713e-14, 172.20000000000002),23,7,3,yes,x,5,x,0.6509831000003032,1,67,test1,2,0.6510776999639347,-38.0
10,lyy,f,23,r,2,(-172.20000000000002, 2.1088417881317425e-14),25,5,2,yes,x,5,x,0.7771921000094153,1,68,test1,2,0.7773267000447959,-40.0
10,lyy,f,23,r,2,(172.20000000000002, 0.0),21,-5,12,yes,x,5,x,0.9201551000005566,1,69,test1,2,0.9202854000031948,-50.0
10,lyy,f,23,r,2,(-3.163262682197613e-14, -172.20000000000002),27,-25,14,yes,x,5,x,0.4378285999991931,1,70,test1,2,0.43805289996089414,-70.0
10,lyy,f,23,r,2,(121.76378772032346, -121.76378772032352),28,7,3,yes,x,5,x,0.6240859999670647,1,71,test1,2,0.6244922999758273,-38.0
10,lyy,f,23,r,2,(121.76378772032349, 121.76378772032349),22,3,1,yes,x,5,x,1.5276053000125103,1,72,test1,2,1.5277048000134528,-42.0
10,lyy,f,23,r,2,(172.20000000000002, 0.0),21,-25,14,yes,x,5,x,0.5210622000158764,1,73,test1,2,0.5213591000065207,-70.0
10,lyy,f,23,r,2,(-121.76378772032352, -121.76378772032348),26,3,1,yes,x,5,x,0.8983722999691963,1,74,test1,2,0.8985085999593139,-42.0
10,lyy,f,23,r,2,(-172.20000000000002, 2.1088417881317425e-14),25,-25,14,no,m,6,m,1.5779493000009097,1,75,test1,2,1.5781834999797866,-42.0
10,lyy,f,23,r,2,(1.0544208940658713e-14, 172.20000000000002),23,3,1,yes,x,5,x,0.9582610999932513,1,76,test1,2,0.9584421000326984,-42.0
10,lyy,f,23,r,2,(-121.76378772032348, 121.76378772032349),24,3,1,yes,x,5,x,1.3414342000032775,1,77,test1,2,1.3420691000064835,-42.0
10,lyy,f,23,r,2,(121.76378772032349, 121.76378772032349),22,-3,11,no,m,6,m,1.5420139000052586,1,78,test1,2,1.5421397000318393,-42.0
10,lyy,f,23,r,2,(121.76378772032346, -121.76378772032352),28,-3,11,yes,x,5,x,1.4040158000425436,1,79,test1,2,1.4043100999551825,-48.0
10,lyy,f,23,r,2,(-3.163262682197613e-14, -172.20000000000002),27,-5,12,yes,x,5,x,0.6024072000291198,1,80,test1,2,0.6025649999501184,-50.0
10,lyy,f,23,r,2,(-121.76378772032352, -121.76378772032348),26,-5,12,yes,x,5,x,0.8242924999794923,1,81,test1,2,0.8245822999742813,-50.0
10,lyy,f,23,r,2,(-172.20000000000002, 2.1088417881317425e-14),25,3,1,no,m,6,m,1.588282800046727,1,82,test1,2,1.5884943999699317,-50.0
10,lyy,f,23,r,2,(-121.76378772032352, -121.76378772032348),26,5,2,no,m,6,None,None,0,83,test1,2,1.9800945000024512,-50.0
10,lyy,f,23,r,2,(-121.76378772032352, -121.76378772032348),26,-3,11,no,m,6,m,1.5763025999767706,1,84,test1,2,1.5765506000025198,-50.0
10,lyy,f,23,r,2,(121.76378772032346, -121.76378772032352),28,-7,13,yes,x,5,x,0.7060174999642186,1,85,test1,2,0.7062397999688983,-52.0
10,lyy,f,23,r,2,(1.0544208940658713e-14, 172.20000000000002),23,-7,13,no,m,6,m,1.156467699969653,1,86,test1,2,1.1567332000122406,-52.0
10,lyy,f,23,r,2,(-121.76378772032352, -121.76378772032348),26,7,3,yes,x,5,x,0.6505301999859512,1,87,test1,2,0.650989199988544,-38.0
10,lyy,f,23,r,2,(121.76378772032349, 121.76378772032349),22,-7,13,no,m,6,m,0.6751116000232287,1,88,test1,2,0.6753950000274926,-38.0
10,lyy,f,23,r,2,(-3.163262682197613e-14, -172.20000000000002),27,7,3,no,m,6,m,0.7195808999822475,1,89,test1,2,0.7197237000218593,-38.0
10,lyy,f,23,r,2,(-121.76378772032348, 121.76378772032349),24,5,2,yes,x,5,x,0.7597721000202,1,90,test1,2,0.7600041000405326,-40.0
10,lyy,f,23,r,2,(1.0544208940658713e-14, 172.20000000000002),23,25,4,no,m,6,m,0.7597883999696933,1,91,test1,2,0.7599956999765709,-40.0
10,lyy,f,23,r,2,(-121.76378772032348, 121.76378772032349),24,-3,11,no,m,6,m,1.2323357000132091,1,92,test1,2,1.2324747000238858,-40.0
10,lyy,f,23,r,2,(121.76378772032346, -121.76378772032352),28,7,3,yes,x,5,x,0.8091459999559447,1,93,test1,2,0.8094869999913499,-38.0
10,lyy,f,23,r,2,(172.20000000000002, 0.0),21,-7,13,yes,x,5,x,0.4596754999947734,1,94,test1,2,0.4601550999796018,-52.0
10,lyy,f,23,r,2,(-121.76378772032352, -121.76378772032348),26,25,4,yes,x,5,x,0.3473333999863826,1,95,test1,2,0.3476230000378564,-20.0
10,lyy,f,23,r,2,(-121.76378772032348, 121.76378772032349),24,-25,14,yes,x,5,x,0.3847255000146106,1,96,test1,2,0.38483980001183227,-70.0
10,lyy,f,23,r,2,(172.20000000000002, 0.0),21,7,3,yes,x,5,x,0.5667390000307932,1,1,test2,2,0.5670894000213593,-38.0
10,lyy,f,23,r,2,(172.20000000000002, 0.0),21,3,1,yes,x,5,x,0.59465690003708,1,2,test2,2,0.5947549999691546,-42.0
10,lyy,f,23,r,2,(172.20000000000002, 0.0),21,7,3,yes,x,5,x,0.4437652000342496,1,3,test2,2,0.44394879997707903,-38.0
10,lyy,f,23,r,2,(-121.76378772032348, 121.76378772032349),24,3,1,no,m,6,m,0.985987699998077,1,4,test2,2,0.9860888000112027,-38.0
10,lyy,f,23,r,2,(-172.20000000000002, 2.1088417881317425e-14),25,7,3,no,m,6,m,1.1502360999584198,1,5,test2,2,1.150404299958609,-38.0
10,lyy,f,23,r,2,(-121.76378772032352, -121.76378772032348),26,-25,14,yes,x,5,x,0.46666069998173043,1,6,test2,2,0.4668013000045903,-70.0
10,lyy,f,23,r,2,(172.20000000000002, 0.0),21,-25,14,no,m,6,m,1.4973821000312455,1,7,test2,2,1.497887100034859,-70.0
10,lyy,f,23,r,2,(-3.163262682197613e-14, -172.20000000000002),27,-7,13,no,m,6,m,0.8889492999878712,1,8,test2,2,0.8891499000019394,-70.0
10,lyy,f,23,r,2,(121.76378772032346, -121.76378772032352),28,3,1,no,m,6,m,1.043879700009711,1,9,test2,2,1.0439947999548167,-70.0
10,lyy,f,23,r,2,(121.76378772032346, -121.76378772032352),28,5,2,yes,x,5,x,0.5529587999917567,1,10,test2,2,0.5531058000051416,-40.0
10,lyy,f,23,r,2,(-3.163262682197613e-14, -172.20000000000002),27,-5,12,yes,x,5,x,0.5525893000303768,1,11,test2,2,0.5527850000071339,-50.0
10,lyy,f,23,r,2,(-121.76378772032352, -121.76378772032348),26,3,1,no,m,6,m,1.39323049999075,1,12,test2,2,1.3936311000143178,-50.0
10,lyy,f,23,r,2,(172.20000000000002, 0.0),21,-3,11,no,m,6,m,1.0766414999961853,1,13,test2,2,1.0767561999964528,-50.0
10,lyy,f,23,r,2,(-172.20000000000002, 2.1088417881317425e-14),25,-3,11,no,m,6,m,0.7423909000353888,1,14,test2,2,0.7425118000246584,-50.0
10,lyy,f,23,r,2,(-172.20000000000002, 2.1088417881317425e-14),25,25,4,no,m,6,m,1.1769287000061013,1,15,test2,2,1.1770694000297226,-50.0
10,lyy,f,23,r,2,(1.0544208940658713e-14, 172.20000000000002),23,-7,13,yes,x,5,x,0.5295786999631673,1,16,test2,2,0.5296803999808617,-52.0
10,lyy,f,23,r,2,(-172.20000000000002, 2.1088417881317425e-14),25,25,4,yes,x,5,x,0.6115301999961957,1,17,test2,2,0.6117344999802299,-20.0
10,lyy,f,23,r,2,(-121.76378772032348, 121.76378772032349),24,-25,14,yes,x,5,x,0.3847516000387259,1,18,test2,2,0.38499280001269653,-70.0
10,lyy,f,23,r,2,(121.76378772032346, -121.76378772032352),28,-25,14,no,m,6,m,1.694383900030516,1,19,test2,2,1.694805900042411,-70.0
10,lyy,f,23,r,2,(172.20000000000002, 0.0),21,3,1,no,m,6,m,0.8291164000402205,1,20,test2,2,0.8293473000521772,-70.0
10,lyy,f,23,r,2,(172.20000000000002, 0.0),21,7,3,no,m,6,m,0.6665018000057898,1,21,test2,2,0.6667323999572545,-70.0
10,lyy,f,23,r,2,(-172.20000000000002, 2.1088417881317425e-14),25,-3,11,yes,x,5,x,1.0037769000045955,1,22,test2,2,1.003931199957151,-48.0
10,lyy,f,23,r,2,(172.20000000000002, 0.0),21,5,2,yes,x,5,x,1.2816078999894671,1,23,test2,2,1.2818165000062436,-40.0
10,lyy,f,23,r,2,(121.76378772032349, 121.76378772032349),22,-7,13,yes,x,5,x,0.6543921999982558,1,24,test2,2,0.6545246999594383,-52.0
10,lyy,f,23,r,2,(-3.163262682197613e-14, -172.20000000000002),27,3,1,yes,x,5,x,1.1228289999999106,1,25,test2,2,1.1229586999979801,-42.0
10,lyy,f,23,r,2,(-121.76378772032352, -121.76378772032348),26,3,1,yes,x,5,x,0.8869770999881439,1,26,test2,2,0.8873716000234708,-42.0
10,lyy,f,23,r,2,(121.76378772032349, 121.76378772032349),22,25,4,no,m,6,m,1.7669249000027776,1,27,test2,2,1.7671504999743775,-42.0
10,lyy,f,23,r,2,(-121.76378772032352, -121.76378772032348),26,7,3,yes,x,5,x,0.4714727000100538,1,28,test2,2,0.4717231999966316,-38.0
10,lyy,f,23,r,2,(121.76378772032346, -121.76378772032352),28,-25,14,yes,x,5,x,0.48804359999485314,1,29,test2,2,0.4883840000256896,-70.0
10,lyy,f,23,r,2,(121.76378772032346, -121.76378772032352),28,7,3,no,m,6,m,1.280234100006055,1,30,test2,2,1.280333700007759,-70.0
10,lyy,f,23,r,2,(-121.76378772032352, -121.76378772032348),26,-25,14,yes,x,5,x,0.6049738000147045,1,31,test2,2,0.6052972999750637,-70.0
10,lyy,f,23,r,2,(-121.76378772032352, -121.76378772032348),26,5,2,yes,x,5,x,1.3797086999984458,1,32,test2,2,1.379835199972149,-40.0
10,lyy,f,23,r,2,(-121.76378772032348, 121.76378772032349),24,3,1,yes,x,5,x,1.4096896999981254,1,33,test2,2,1.4097895000013523,-42.0
10,lyy,f,23,r,2,(121.76378772032346, -121.76378772032352),28,5,2,no,m,6,m,1.206677199981641,1,34,test2,2,1.2069885999662802,-42.0
10,lyy,f,23,r,2,(1.0544208940658713e-14, 172.20000000000002),23,-25,14,no,m,6,m,0.8213778999634087,1,35,test2,2,0.821544400008861,-42.0
10,lyy,f,23,r,2,(-3.163262682197613e-14, -172.20000000000002),27,5,2,yes,x,5,x,0.6266149000148289,1,36,test2,2,0.62674540001899,-40.0
10,lyy,f,23,r,2,(-121.76378772032352, -121.76378772032348),26,-5,12,no,m,6,m,1.2992003000108525,1,37,test2,2,1.2993284999975003,-40.0
10,lyy,f,23,r,2,(172.20000000000002, 0.0),21,25,4,yes,x,5,x,0.5999689000309445,1,38,test2,2,0.6001897000242025,-20.0
10,lyy,f,23,r,2,(-121.76378772032352, -121.76378772032348),26,-25,14,no,m,6,m,0.9317430999944918,1,39,test2,2,0.9321391999837942,-20.0
10,lyy,f,23,r,2,(121.76378772032349, 121.76378772032349),22,-25,14,yes,x,5,x,0.423250799998641,1,40,test2,2,0.42345050000585616,-70.0
10,lyy,f,23,r,2,(121.76378772032349, 121.76378772032349),22,-25,14,no,m,6,m,1.1788221999886446,1,41,test2,2,1.1789390000049025,-70.0
10,lyy,f,23,r,2,(121.76378772032346, -121.76378772032352),28,25,4,yes,x,5,x,0.6976248000282794,1,42,test2,2,0.6978937000385486,-20.0
10,lyy,f,23,r,2,(-121.76378772032348, 121.76378772032349),24,5,2,yes,x,5,x,0.9463395000202581,1,43,test2,2,0.9464397000265308,-40.0
10,lyy,f,23,r,2,(-172.20000000000002, 2.1088417881317425e-14),25,-5,12,yes,x,5,x,0.5796365999849513,1,44,test2,2,0.5797517000464723,-50.0
10,lyy,f,23,r,2,(-172.20000000000002, 2.1088417881317425e-14),25,-25,14,yes,x,5,x,0.39101070002652705,1,45,test2,2,0.3911114999791607,-70.0
10,lyy,f,23,r,2,(-172.20000000000002, 2.1088417881317425e-14),25,7,3,yes,x,5,x,0.7972610000288114,1,46,test2,2,0.797420000017155,-38.0
10,lyy,f,23,r,2,(-3.163262682197613e-14, -172.20000000000002),27,7,3,yes,x,5,x,0.8386649999883957,1,47,test2,2,0.8388107999926433,-38.0
10,lyy,f,23,r,2,(121.76378772032346, -121.76378772032352),28,-25,14,yes,x,5,x,0.841907900001388,1,48,test2,2,0.8420092000160366,-70.0
10,lyy,f,23,r,2,(-121.76378772032352, -121.76378772032348),26,-7,13,no,m,6,m,1.4334741000202484,1,49,test2,2,1.4335671000299044,-70.0
10,lyy,f,23,r,2,(-121.76378772032348, 121.76378772032349),24,7,3,yes,x,5,x,0.6362633000244386,1,50,test2,2,0.6363678999477997,-38.0
10,lyy,f,23,r,2,(121.76378772032349, 121.76378772032349),22,3,1,yes,x,5,m,0.9065609999815933,0,51,test2,2,0.9067113000201061,-42.0
10,lyy,f,23,r,2,(-121.76378772032348, 121.76378772032349),24,-5,12,no,m,6,m,1.4033477999619208,1,52,test2,2,1.4034975999966264,-42.0
10,lyy,f,23,r,2,(121.76378772032346, -121.76378772032352),28,25,4,no,m,6,m,1.3014787000138313,1,53,test2,2,1.3016984999994747,-42.0
10,lyy,f,23,r,2,(-121.76378772032348, 121.76378772032349),24,-3,11,yes,x,5,x,0.9969419999979436,1,54,test2,2,0.997041700000409,-48.0
10,lyy,f,23,r,2,(-172.20000000000002, 2.1088417881317425e-14),25,-3,11,yes,x,5,x,1.7863342000055127,1,55,test2,2,1.7864969000220299,-48.0
10,lyy,f,23,r,2,(121.76378772032349, 121.76378772032349),22,7,3,yes,x,5,m,0.5974749999586493,0,56,test2,2,0.5981257999665104,-38.0
10,lyy,f,23,r,2,(-3.163262682197613e-14, -172.20000000000002),27,7,3,yes,x,5,x,0.5916052000247873,1,57,test2,2,0.59175999998115,-38.0
10,lyy,f,23,r,2,(-121.76378772032348, 121.76378772032349),24,7,3,no,m,6,m,1.1758572999970056,1,58,test2,2,1.1761264000087976,-38.0
10,lyy,f,23,r,2,(121.76378772032349, 121.76378772032349),22,-7,13,yes,x,5,x,0.6595174000249244,1,59,test2,2,0.6596133999992162,-52.0
10,lyy,f,23,r,2,(172.20000000000002, 0.0),21,-3,11,yes,x,5,x,0.9255177999730222,1,60,test2,2,0.9258108999929391,-48.0
10,lyy,f,23,r,2,(172.20000000000002, 0.0),21,-7,13,yes,x,5,x,0.4542702999897301,1,61,test2,2,0.45462510001379997,-52.0
10,lyy,f,23,r,2,(1.0544208940658713e-14, 172.20000000000002),23,-3,11,no,m,6,m,1.8804111999925226,1,62,test2,2,1.8810232999967411,-52.0
10,lyy,f,23,r,2,(172.20000000000002, 0.0),21,3,1,yes,x,5,x,1.0948222000151873,1,63,test2,2,1.0949511000071652,-42.0
10,lyy,f,23,r,2,(121.76378772032349, 121.76378772032349),22,-5,12,yes,x,5,x,0.9882567999884486,1,64,test2,2,0.9883793999906629,-50.0
10,lyy,f,23,r,2,(121.76378772032349, 121.76378772032349),22,5,2,yes,x,5,x,0.9221703000366688,1,65,test2,2,0.922544899978675,-40.0
10,lyy,f,23,r,2,(-121.76378772032348, 121.76378772032349),24,-7,13,no,m,6,m,1.059286699979566,1,66,test2,2,1.059850599966012,-40.0
10,lyy,f,23,r,2,(121.76378772032346, -121.76378772032352),28,3,1,yes,x,5,x,1.3720320999855176,1,67,test2,2,1.3723330000066198,-42.0
10,lyy,f,23,r,2,(-121.76378772032352, -121.76378772032348),26,25,4,no,m,6,m,1.7465465000132099,1,68,test2,2,1.7466503999894485,-42.0
10,lyy,f,23,r,2,(172.20000000000002, 0.0),21,-7,13,no,m,6,m,0.8579887999803759,1,69,test2,2,0.8581543999607675,-42.0
10,lyy,f,23,r,2,(172.20000000000002, 0.0),21,-25,14,yes,x,5,x,0.9738110000034794,1,70,test2,2,0.9741341000190005,-70.0
10,lyy,f,23,r,2,(-121.76378772032348, 121.76378772032349),24,25,4,yes,x,5,x,0.40127830003621057,1,71,test2,2,0.40177649998804554,-20.0
10,lyy,f,23,r,2,(-121.76378772032352, -121.76378772032348),26,-3,11,yes,x,5,x,0.7398027000017464,1,72,test2,2,0.7400386999943294,-48.0
10,lyy,f,23,r,2,(121.76378772032349, 121.76378772032349),22,-5,12,yes,x,5,None,None,0,73,test2,2,1.9800962999579497,-50.0
10,lyy,f,23,r,2,(121.76378772032346, -121.76378772032352),28,-7,13,no,m,6,m,1.010581500013359,1,74,test2,2,1.010682900028769,-50.0
10,lyy,f,23,r,2,(172.20000000000002, 0.0),21,-5,12,yes,x,5,x,1.1419015999999829,1,75,test2,2,1.1420182999572717,-50.0
10,lyy,f,23,r,2,(121.76378772032346, -121.76378772032352),28,5,2,yes,x,5,x,0.7134941999684088,1,76,test2,2,0.7138746000127867,-40.0
10,lyy,f,23,r,2,(121.76378772032349, 121.76378772032349),22,7,3,yes,x,5,x,0.6332476999959908,1,77,test2,2,0.6334110000170767,-38.0
10,lyy,f,23,r,2,(172.20000000000002, 0.0),21,25,4,no,m,6,m,1.2496773000457324,1,78,test2,2,1.2498474000021815,-38.0
10,lyy,f,23,r,2,(-3.163262682197613e-14, -172.20000000000002),27,3,1,no,m,6,m,1.276015700015705,1,79,test2,2,1.2762338999891654,-38.0
10,lyy,f,23,r,2,(1.0544208940658713e-14, 172.20000000000002),23,-25,14,yes,x,5,x,0.49324219999834895,1,80,test2,2,0.4934554999927059,-70.0
10,lyy,f,23,r,2,(121.76378772032349, 121.76378772032349),22,5,2,yes,x,5,x,1.0587011999450624,1,81,test2,2,1.0589063999941573,-40.0
10,lyy,f,23,r,2,(121.76378772032349, 121.76378772032349),22,-25,14,yes,x,5,x,0.5168238999904133,1,82,test2,2,0.517193200008478,-70.0
10,lyy,f,23,r,2,(-121.76378772032352, -121.76378772032348),26,-3,11,yes,x,5,x,1.6362979999976233,1,83,test2,2,1.6367405000492,-48.0
10,lyy,f,23,r,2,(-121.76378772032352, -121.76378772032348),26,7,3,no,m,6,m,1.318129300023429,1,84,test2,2,1.3184399000019766,-48.0
10,lyy,f,23,r,2,(-172.20000000000002, 2.1088417881317425e-14),25,-7,13,yes,x,5,x,0.7148256000364199,1,85,test2,2,0.7149488000432029,-52.0
10,lyy,f,23,r,2,(1.0544208940658713e-14, 172.20000000000002),23,-3,11,yes,x,5,x,0.9588260999880731,1,86,test2,2,0.9589257999905385,-48.0
10,lyy,f,23,r,2,(-121.76378772032348, 121.76378772032349),24,5,2,no,m,6,m,1.3728916000109166,1,87,test2,2,1.3731280999490991,-48.0
10,lyy,f,23,r,2,(1.0544208940658713e-14, 172.20000000000002),23,25,4,yes,x,5,x,0.5907466000062414,1,88,test2,2,0.5909871999756433,-20.0
10,lyy,f,23,r,2,(-172.20000000000002, 2.1088417881317425e-14),25,-5,12,yes,x,5,x,1.008635799982585,1,89,test2,2,1.008737399999518,-50.0
10,lyy,f,23,r,2,(-172.20000000000002, 2.1088417881317425e-14),25,5,2,yes,x,5,x,1.3644191999919713,1,90,test2,2,1.3645428000018,-40.0
10,lyy,f,23,r,2,(1.0544208940658713e-14, 172.20000000000002),23,3,1,yes,x,5,x,1.0857710999553092,1,91,test2,2,1.085930700006429,-42.0
10,lyy,f,23,r,2,(-121.76378772032348, 121.76378772032349),24,-5,12,yes,x,5,x,0.7353155000018887,1,92,test2,2,0.735417400021106,-50.0
10,lyy,f,23,r,2,(-172.20000000000002, 2.1088417881317425e-14),25,-7,13,no,m,6,m,1.2763303999672644,1,93,test2,2,1.2766138999722898,-50.0
10,lyy,f,23,r,2,(-172.20000000000002, 2.1088417881317425e-14),25,5,2,no,m,6,None,None,0,94,test2,2,1.980084499984514,-50.0
10,lyy,f,23,r,2,(-3.163262682197613e-14, -172.20000000000002),27,-5,12,no,m,6,m,1.1549658000003546,1,95,test2,2,1.1555096000083722,-50.0
10,lyy,f,23,r,2,(-121.76378772032352, -121.76378772032348),26,-5,12,yes,x,5,x,0.6979704999830574,1,96,test2,2,0.698241500009317,-50.0
10,lyy,f,23,r,2,(121.76378772032346, -121.76378772032352),28,-5,12,yes,x,5,x,0.7111861000303179,1,1,test1,3,0.7113489999901503,-50.0
10,lyy,f,23,r,2,(-172.20000000000002, 2.1088417881317425e-14),25,7,3,yes,x,5,x,0.4133201999939047,1,2,test1,3,0.41348499996820465,-38.0
10,lyy,f,23,r,2,(-3.163262682197613e-14, -172.20000000000002),27,3,1,yes,x,5,x,0.9523232000065036,1,3,test1,3,0.952428599994164,-42.0
10,lyy,f,23,r,2,(-3.163262682197613e-14, -172.20000000000002),27,5,2,no,m,6,m,1.4512013999628834,1,4,test1,3,1.4514852999709547,-42.0
10,lyy,f,23,r,2,(-172.20000000000002, 2.1088417881317425e-14),25,25,4,yes,x,5,x,0.44079010002315044,1,5,test1,3,0.4412626000121236,-20.0
10,lyy,f,23,r,2,(-172.20000000000002, 2.1088417881317425e-14),25,-5,12,no,m,6,m,0.9972953000105917,1,6,test1,3,0.9973985999822617,-20.0
10,lyy,f,23,r,2,(-3.163262682197613e-14, -172.20000000000002),27,25,4,yes,x,5,x,0.552604699973017,1,7,test1,3,0.5527660999796353,-20.0
10,lyy,f,23,r,2,(-121.76378772032348, 121.76378772032349),24,-5,12,yes,x,5,x,0.8401718999957666,1,8,test1,3,0.8404672000324354,-50.0
10,lyy,f,23,r,2,(121.76378772032346, -121.76378772032352),28,-7,13,yes,x,5,x,0.7361858000513166,1,9,test1,3,0.7365112999686971,-52.0
10,lyy,f,23,r,2,(172.20000000000002, 0.0),21,5,2,yes,x,5,x,1.0003870999789797,1,10,test1,3,1.0006756999646313,-40.0
10,lyy,f,23,r,2,(121.76378772032349, 121.76378772032349),22,5,2,no,m,6,x,1.8064599999925122,0,11,test1,3,1.8066195000428706,-40.0
10,lyy,f,23,r,2,(121.76378772032346, -121.76378772032352),28,-5,12,no,m,6,m,1.8464413000037894,1,12,test1,3,1.846824000007473,-40.0
10,lyy,f,23,r,2,(121.76378772032349, 121.76378772032349),22,25,4,yes,x,5,x,0.45740590000059456,1,13,test1,3,0.45751930004917085,-20.0
10,lyy,f,23,r,2,(-121.76378772032352, -121.76378772032348),26,-7,13,yes,x,5,x,0.7340728999697603,1,14,test1,3,0.7342012000153773,-52.0
10,lyy,f,23,r,2,(-121.76378772032348, 121.76378772032349),24,-7,13,yes,x,5,x,0.6336144000524655,1,15,test1,3,0.6338570999796502,-52.0
10,lyy,f,23,r,2,(172.20000000000002, 0.0),21,25,4,yes,x,5,x,0.4686385000240989,1,16,test1,3,0.46929029998136684,-20.0
10,lyy,f,23,r,2,(-121.76378772032352, -121.76378772032348),26,-7,13,yes,x,5,x,0.5735211000428535,1,17,test1,3,0.5736219000536948,-52.0
10,lyy,f,23,r,2,(-121.76378772032352, -121.76378772032348),26,5,2,yes,x,5,x,1.0329042000230402,1,18,test1,3,1.0330675999866799,-40.0
10,lyy,f,23,r,2,(172.20000000000002, 0.0),21,-5,12,no,m,6,m,1.3192983999615535,1,19,test1,3,1.3195765999844298,-40.0
10,lyy,f,23,r,2,(121.76378772032349, 121.76378772032349),22,25,4,yes,x,5,x,0.4907468000310473,1,20,test1,3,0.4908659000066109,-20.0
10,lyy,f,23,r,2,(1.0544208940658713e-14, 172.20000000000002),23,25,4,yes,x,5,x,0.5454430000390857,1,21,test1,3,0.5456487000337802,-20.0
10,lyy,f,23,r,2,(-172.20000000000002, 2.1088417881317425e-14),25,-25,14,yes,x,5,x,0.4308894000132568,1,22,test1,3,0.4310361999669112,-70.0
10,lyy,f,23,r,2,(1.0544208940658713e-14, 172.20000000000002),23,7,3,yes,x,5,x,0.46062119997804984,1,23,test1,3,0.46072129998356104,-38.0
10,lyy,f,23,r,2,(1.0544208940658713e-14, 172.20000000000002),23,5,2,no,m,6,m,1.135585699987132,1,24,test1,3,1.135865499963984,-38.0
10,lyy,f,23,r,2,(121.76378772032346, -121.76378772032352),28,25,4,yes,x,5,x,0.5495034999912605,1,25,test1,3,0.5496039999998175,-20.0
10,lyy,f,23,r,2,(1.0544208940658713e-14, 172.20000000000002),23,-7,13,yes,x,5,x,0.5836880999850109,1,26,test1,3,0.5838532000198029,-52.0
10,lyy,f,23,r,2,(1.0544208940658713e-14, 172.20000000000002),23,3,1,no,m,6,m,1.6576272000093013,1,27,test1,3,1.6581990999984555,-52.0
10,lyy,f,23,r,2,(1.0544208940658713e-14, 172.20000000000002),23,-25,14,yes,x,5,x,0.41548069997224957,1,28,test1,3,0.415770799969323,-70.0
10,lyy,f,23,r,2,(-3.163262682197613e-14, -172.20000000000002),27,25,4,no,m,6,m,1.5312698000343516,1,29,test1,3,1.5315662999637425,-70.0
10,lyy,f,23,r,2,(-121.76378772032348, 121.76378772032349),24,7,3,yes,x,5,x,0.5099994000047445,1,30,test1,3,0.5100995000102557,-38.0
10,lyy,f,23,r,2,(1.0544208940658713e-14, 172.20000000000002),23,-3,11,yes,x,5,x,1.064800699998159,1,31,test1,3,1.0649507000343874,-48.0
10,lyy,f,23,r,2,(-172.20000000000002, 2.1088417881317425e-14),25,3,1,yes,x,5,x,1.958997800014913,1,32,test1,3,1.9591294000274502,-42.0
10,lyy,f,23,r,2,(172.20000000000002, 0.0),21,5,2,no,m,6,None,None,0,33,test1,3,1.9800869000027888,-42.0
10,lyy,f,23,r,2,(-3.163262682197613e-14, -172.20000000000002),27,-25,14,yes,x,5,x,0.5341960999649018,1,34,test1,3,0.5344026999664493,-70.0
10,lyy,f,23,r,2,(121.76378772032349, 121.76378772032349),22,-3,11,yes,x,5,x,1.291224799992051,1,35,test1,3,1.2913448000326753,-48.0
10,lyy,f,23,r,2,(172.20000000000002, 0.0),21,-3,11,yes,x,5,x,1.159677500021644,1,36,test1,3,1.1598255000426434,-48.0
10,lyy,f,23,r,2,(121.76378772032346, -121.76378772032352),28,3,1,yes,x,5,x,0.539119600027334,1,37,test1,3,0.5397626000340097,-42.0
10,lyy,f,23,r,2,(1.0544208940658713e-14, 172.20000000000002),23,-5,12,no,m,6,m,0.8321011000080034,1,38,test1,3,0.8323587999911979,-42.0
10,lyy,f,23,r,2,(-121.76378772032348, 121.76378772032349),24,25,4,no,m,6,m,1.5761041000369005,1,39,test1,3,1.576331200019922,-42.0
10,lyy,f,23,r,2,(121.76378772032346, -121.76378772032352),28,-5,12,yes,x,5,x,1.10003129998222,1,40,test1,3,1.100249100010842,-50.0
10,lyy,f,23,r,2,(1.0544208940658713e-14, 172.20000000000002),23,5,2,yes,x,5,x,0.5576839999994263,1,41,test1,3,0.5579496999853291,-40.0
10,lyy,f,23,r,2,(-121.76378772032352, -121.76378772032348),26,25,4,yes,x,5,x,1.0720142000354826,1,42,test1,3,1.072669000015594,-20.0
10,lyy,f,23,r,2,(121.76378772032349, 121.76378772032349),22,-5,12,no,m,6,x,1.4700407999916933,0,43,test1,3,1.4703785000019707,-20.0
10,lyy,f,23,r,2,(1.0544208940658713e-14, 172.20000000000002),23,5,2,yes,x,5,x,0.6007187000359409,1,44,test1,3,0.6008404999738559,-40.0
10,lyy,f,23,r,2,(121.76378772032349, 121.76378772032349),22,3,1,no,m,6,m,1.1845269000041299,1,45,test1,3,1.1847196000162512,-40.0
10,lyy,f,23,r,2,(-3.163262682197613e-14, -172.20000000000002),27,-3,11,yes,x,5,x,0.916884400008712,1,46,test1,3,0.9170108000398614,-48.0
10,lyy,f,23,r,2,(1.0544208940658713e-14, 172.20000000000002),23,7,3,no,m,6,m,1.2461926999967545,1,47,test1,3,1.246317499957513,-48.0
10,lyy,f,23,r,2,(121.76378772032349, 121.76378772032349),22,-3,11,yes,x,5,x,0.811398999998346,1,48,test1,3,0.8117822999483906,-48.0
10,lyy,f,23,r,2,(-121.76378772032348, 121.76378772032349),24,-3,11,yes,x,5,x,0.9051450999686494,1,49,test1,3,0.9053871000069194,-48.0
10,lyy,f,23,r,2,(-3.163262682197613e-14, -172.20000000000002),27,-3,11,no,m,6,m,1.4506260000052862,1,50,test1,3,1.4508457999909297,-48.0
10,lyy,f,23,r,2,(121.76378772032346, -121.76378772032352),28,-3,11,yes,x,5,x,1.6395556000061333,1,51,test1,3,1.6398536000051536,-48.0
10,lyy,f,23,r,2,(1.0544208940658713e-14, 172.20000000000002),23,-5,12,yes,x,5,x,0.661499600042589,1,52,test1,3,0.661605600034818,-50.0
10,lyy,f,23,r,2,(-121.76378772032348, 121.76378772032349),24,-7,13,yes,x,5,x,0.4935597999719903,1,53,test1,3,0.493685599998571,-52.0
10,lyy,f,23,r,2,(-3.163262682197613e-14, -172.20000000000002),27,-7,13,yes,x,5,x,0.8766665000002831,1,54,test1,3,0.8769398999866098,-52.0
10,lyy,f,23,r,2,(1.0544208940658713e-14, 172.20000000000002),23,-5,12,yes,x,5,x,0.5982121999841183,1,55,test1,3,0.5983105999766849,-50.0
10,lyy,f,23,r,2,(-3.163262682197613e-14, -172.20000000000002),27,-25,14,no,m,6,m,1.3465127000235952,1,56,test1,3,1.3468893999815919,-50.0
10,lyy,f,23,r,2,(-121.76378772032348, 121.76378772032349),24,25,4,yes,x,5,x,0.5928970000240952,1,57,test1,3,0.5930291999829933,-20.0
10,lyy,f,23,r,2,(-121.76378772032348, 121.76378772032349),24,-25,14,no,m,6,m,0.890221500012558,1,58,test1,3,0.8903241999796592,-20.0
10,lyy,f,23,r,2,(-3.163262682197613e-14, -172.20000000000002),27,-7,13,yes,x,5,x,0.5057560999994166,1,59,test1,3,0.5060658999718726,-52.0
10,lyy,f,23,r,2,(121.76378772032346, -121.76378772032352),28,-3,11,no,m,6,None,None,0,60,test1,3,1.9800930000492372,-52.0
10,lyy,f,23,r,2,(-3.163262682197613e-14, -172.20000000000002),27,-3,11,yes,x,5,x,0.5952556000556797,1,61,test1,3,0.5953770000487566,-48.0
10,lyy,f,23,r,2,(-3.163262682197613e-14, -172.20000000000002),27,5,2,yes,x,5,x,0.8124867000151426,1,62,test1,3,0.812776800012216,-40.0
10,lyy,f,23,r,2,(-172.20000000000002, 2.1088417881317425e-14),25,3,1,yes,x,5,x,0.7632701999973506,1,63,test1,3,0.7635561999632046,-42.0
10,lyy,f,23,r,2,(-172.20000000000002, 2.1088417881317425e-14),25,-7,13,yes,x,5,x,0.5074709000182338,1,64,test1,3,0.5076232000137679,-52.0
10,lyy,f,23,r,2,(-3.163262682197613e-14, -172.20000000000002),27,25,4,yes,x,5,x,0.4315453000017442,1,65,test1,3,0.4316437999950722,-20.0
10,lyy,f,23,r,2,(121.76378772032349, 121.76378772032349),22,7,3,no,m,6,m,0.6387185999774374,1,66,test1,3,0.6390011999756098,-20.0
10,lyy,f,23,r,2,(1.0544208940658713e-14, 172.20000000000002),23,7,3,yes,x,5,x,0.6036783000454307,1,67,test1,3,0.603902900009416,-38.0
10,lyy,f,23,r,2,(-172.20000000000002, 2.1088417881317425e-14),25,5,2,yes,x,5,x,0.5404547999496572,1,68,test1,3,0.5407831000047736,-40.0
10,lyy,f,23,r,2,(172.20000000000002, 0.0),21,-5,12,yes,x,5,x,0.7107672999845818,1,69,test1,3,0.7110992000089027,-50.0
10,lyy,f,23,r,2,(-3.163262682197613e-14, -172.20000000000002),27,-25,14,yes,x,5,x,0.5157869000104256,1,70,test1,3,0.5158878999645822,-70.0
10,lyy,f,23,r,2,(121.76378772032346, -121.76378772032352),28,7,3,yes,x,5,x,0.6032193999853916,1,71,test1,3,0.6033477999735624,-38.0
10,lyy,f,23,r,2,(121.76378772032349, 121.76378772032349),22,3,1,yes,x,5,x,1.5803817000123672,1,72,test1,3,1.5810724000330083,-42.0
10,lyy,f,23,r,2,(172.20000000000002, 0.0),21,-25,14,yes,x,5,x,0.40562340000178665,1,73,test1,3,0.4058328000246547,-70.0
10,lyy,f,23,r,2,(-121.76378772032352, -121.76378772032348),26,3,1,yes,x,5,x,1.2479646999854594,1,74,test1,3,1.2485957000171766,-42.0
10,lyy,f,23,r,2,(-172.20000000000002, 2.1088417881317425e-14),25,-25,14,no,m,6,m,1.7730022000032477,1,75,test1,3,1.7731026000110433,-42.0
10,lyy,f,23,r,2,(1.0544208940658713e-14, 172.20000000000002),23,3,1,yes,x,5,m,1.8556129000498913,0,76,test1,3,1.8557859000284225,-42.0
10,lyy,f,23,r,2,(-121.76378772032348, 121.76378772032349),24,3,1,yes,x,5,x,1.2543226999696344,1,77,test1,3,1.2547088999999687,-42.0
10,lyy,f,23,r,2,(121.76378772032349, 121.76378772032349),22,-3,11,no,m,6,m,1.2413761999923736,1,78,test1,3,1.2414789000176825,-42.0
10,lyy,f,23,r,2,(121.76378772032346, -121.76378772032352),28,-3,11,yes,x,5,x,0.5564745000447147,1,79,test1,3,0.5571392000420019,-48.0
10,lyy,f,23,r,2,(-3.163262682197613e-14, -172.20000000000002),27,-5,12,yes,x,5,x,0.5967607999918982,1,80,test1,3,0.5968726000282913,-50.0
10,lyy,f,23,r,2,(-121.76378772032352, -121.76378772032348),26,-5,12,yes,x,5,x,0.9008234000066295,1,81,test1,3,0.9010397999663837,-50.0
10,lyy,f,23,r,2,(-172.20000000000002, 2.1088417881317425e-14),25,3,1,no,m,6,m,0.9705701000057161,1,82,test1,3,0.9706958999740891,-50.0
10,lyy,f,23,r,2,(-121.76378772032352, -121.76378772032348),26,5,2,no,m,6,m,1.193113799963612,1,83,test1,3,1.193277999991551,-50.0
10,lyy,f,23,r,2,(-121.76378772032352, -121.76378772032348),26,-3,11,no,m,6,m,1.3324357999954373,1,84,test1,3,1.3326055000070482,-50.0
10,lyy,f,23,r,2,(121.76378772032346, -121.76378772032352),28,-7,13,yes,x,5,x,0.5248407000326551,1,85,test1,3,0.5249443000066094,-52.0
10,lyy,f,23,r,2,(1.0544208940658713e-14, 172.20000000000002),23,-7,13,no,m,6,m,1.4319441000116058,1,86,test1,3,1.4321124999551103,-52.0
10,lyy,f,23,r,2,(-121.76378772032352, -121.76378772032348),26,7,3,yes,x,5,x,0.6275792000233196,1,87,test1,3,0.6279289000085555,-38.0
10,lyy,f,23,r,2,(121.76378772032349, 121.76378772032349),22,-7,13,no,m,6,m,1.4250117000192404,1,88,test1,3,1.4252287999843247,-38.0
10,lyy,f,23,r,2,(-3.163262682197613e-14, -172.20000000000002),27,7,3,no,m,6,m,0.9981448000180535,1,89,test1,3,0.998272700002417,-38.0
10,lyy,f,23,r,2,(-121.76378772032348, 121.76378772032349),24,5,2,yes,x,5,x,0.9633675999939442,1,90,test1,3,0.9634663999895565,-40.0
10,lyy,f,23,r,2,(1.0544208940658713e-14, 172.20000000000002),23,25,4,no,m,6,m,1.2369508999981917,1,91,test1,3,1.237296300008893,-40.0
10,lyy,f,23,r,2,(-121.76378772032348, 121.76378772032349),24,-3,11,no,m,6,m,0.9761129000107758,1,92,test1,3,0.9762487999978475,-40.0
10,lyy,f,23,r,2,(121.76378772032346, -121.76378772032352),28,7,3,yes,x,5,x,0.5969039000337943,1,93,test1,3,0.5971014999668114,-38.0
10,lyy,f,23,r,2,(172.20000000000002, 0.0),21,-7,13,yes,x,5,x,0.5292147000436671,1,94,test1,3,0.5294352999771945,-52.0
10,lyy,f,23,r,2,(-121.76378772032352, -121.76378772032348),26,25,4,yes,x,5,x,0.5819983999826945,1,95,test1,3,0.5821286999853328,-20.0
10,lyy,f,23,r,2,(-121.76378772032348, 121.76378772032349),24,-25,14,yes,x,5,x,0.4048793999827467,1,96,test1,3,0.40500550001161173,-70.0
10,lyy,f,23,r,2,(172.20000000000002, 0.0),21,7,3,yes,x,5,x,0.5227422999450937,1,1,test2,3,0.5228627999895252,-38.0
10,lyy,f,23,r,2,(172.20000000000002, 0.0),21,3,1,yes,x,5,x,0.45102780003799126,1,2,test2,3,0.4513944000354968,-42.0
10,lyy,f,23,r,2,(172.20000000000002, 0.0),21,7,3,yes,x,5,x,0.3794257999979891,1,3,test2,3,0.3797389000537805,-38.0
10,lyy,f,23,r,2,(-121.76378772032348, 121.76378772032349),24,3,1,no,m,6,x,0.670652600005269,0,4,test2,3,0.6707892999984324,-38.0
10,lyy,f,23,r,2,(-172.20000000000002, 2.1088417881317425e-14),25,7,3,no,m,6,m,0.6897788000060245,1,5,test2,3,0.6899843999999575,-38.0
10,lyy,f,23,r,2,(-121.76378772032352, -121.76378772032348),26,-25,14,yes,x,5,x,0.3682570999953896,1,6,test2,3,0.36845970002468675,-70.0
10,lyy,f,23,r,2,(172.20000000000002, 0.0),21,-25,14,no,m,6,m,0.9506171999964863,1,7,test2,3,0.9509917999967001,-70.0
10,lyy,f,23,r,2,(-3.163262682197613e-14, -172.20000000000002),27,-7,13,no,m,6,m,0.631929199967999,1,8,test2,3,0.632055299996864,-70.0
10,lyy,f,23,r,2,(121.76378772032346, -121.76378772032352),28,3,1,no,m,6,m,1.1320818000240251,1,9,test2,3,1.1323260000208393,-70.0
10,lyy,f,23,r,2,(121.76378772032346, -121.76378772032352),28,5,2,yes,x,5,x,0.5443720999755897,1,10,test2,3,0.5446583000011742,-40.0
10,lyy,f,23,r,2,(-3.163262682197613e-14, -172.20000000000002),27,-5,12,yes,x,5,x,0.6284382999874651,1,11,test2,3,0.6287939000176266,-50.0
10,lyy,f,23,r,2,(-121.76378772032352, -121.76378772032348),26,3,1,no,m,6,x,1.200296700000763,0,12,test2,3,1.2006984000327066,-50.0
10,lyy,f,23,r,2,(172.20000000000002, 0.0),21,-3,11,no,m,6,m,0.6790410000248812,1,13,test2,3,0.679234399984125,-50.0
10,lyy,f,23,r,2,(-172.20000000000002, 2.1088417881317425e-14),25,-3,11,no,m,6,m,0.8174763999995776,1,14,test2,3,0.8178615999640897,-50.0
10,lyy,f,23,r,2,(-172.20000000000002, 2.1088417881317425e-14),25,25,4,no,m,6,m,0.7468195999972522,1,15,test2,3,0.746969000028912,-50.0
10,lyy,f,23,r,2,(1.0544208940658713e-14, 172.20000000000002),23,-7,13,yes,x,5,x,0.5020116000087,1,16,test2,3,0.5026497999788262,-52.0
10,lyy,f,23,r,2,(-172.20000000000002, 2.1088417881317425e-14),25,25,4,yes,x,5,x,0.3785706000053324,1,17,test2,3,0.3786960000288673,-20.0
10,lyy,f,23,r,2,(-121.76378772032348, 121.76378772032349),24,-25,14,yes,x,5,x,0.3638597000390291,1,18,test2,3,0.3639969999785535,-70.0
10,lyy,f,23,r,2,(121.76378772032346, -121.76378772032352),28,-25,14,no,m,6,x,0.882681599992793,0,19,test2,3,0.8829765999689698,-70.0
10,lyy,f,23,r,2,(172.20000000000002, 0.0),21,3,1,no,m,6,m,0.7508768000407144,1,20,test2,3,0.7511892000329681,-70.0
10,lyy,f,23,r,2,(172.20000000000002, 0.0),21,7,3,no,m,6,m,0.6317963000037707,1,21,test2,3,0.6322097000083886,-70.0
10,lyy,f,23,r,2,(-172.20000000000002, 2.1088417881317425e-14),25,-3,11,yes,x,5,x,0.7153563000028953,1,22,test2,3,0.7156051999772899,-48.0
10,lyy,f,23,r,2,(172.20000000000002, 0.0),21,5,2,yes,x,5,x,0.47059889999218285,1,23,test2,3,0.4707265999750234,-40.0
10,lyy,f,23,r,2,(121.76378772032349, 121.76378772032349),22,-7,13,yes,x,5,x,0.5603740999940783,1,24,test2,3,0.5604735999950208,-52.0
10,lyy,f,23,r,2,(-3.163262682197613e-14, -172.20000000000002),27,3,1,yes,x,5,x,0.8096751000266522,1,25,test2,3,0.8099024000111967,-42.0
10,lyy,f,23,r,2,(-121.76378772032352, -121.76378772032348),26,3,1,yes,x,5,x,0.600871599977836,1,26,test2,3,0.6011175999883562,-42.0
10,lyy,f,23,r,2,(121.76378772032349, 121.76378772032349),22,25,4,no,m,6,m,1.125670799985528,1,27,test2,3,1.1259175000013784,-42.0
10,lyy,f,23,r,2,(-121.76378772032352, -121.76378772032348),26,7,3,yes,x,5,x,0.6911875999649055,1,28,test2,3,0.6913446999969892,-38.0
10,lyy,f,23,r,2,(121.76378772032346, -121.76378772032352),28,-25,14,yes,x,5,x,0.4429999999701977,1,29,test2,3,0.4432802000083029,-70.0
10,lyy,f,23,r,2,(121.76378772032346, -121.76378772032352),28,7,3,no,m,6,m,1.1229897000011988,1,30,test2,3,1.1231201000045985,-70.0
10,lyy,f,23,r,2,(-121.76378772032352, -121.76378772032348),26,-25,14,yes,x,5,x,0.4778002999955788,1,31,test2,3,0.47805669996887445,-70.0
10,lyy,f,23,r,2,(-121.76378772032352, -121.76378772032348),26,5,2,yes,x,5,x,0.567603399977088,1,32,test2,3,0.5682198000140488,-40.0
10,lyy,f,23,r,2,(-121.76378772032348, 121.76378772032349),24,3,1,yes,x,5,x,0.9665022999979556,1,33,test2,3,0.9666289999731816,-42.0
10,lyy,f,23,r,2,(121.76378772032346, -121.76378772032352),28,5,2,no,m,6,m,0.8967335000052117,1,34,test2,3,0.8968654000200331,-42.0
10,lyy,f,23,r,2,(1.0544208940658713e-14, 172.20000000000002),23,-25,14,no,m,6,m,1.2807045000372455,1,35,test2,3,1.280994400032796,-42.0
10,lyy,f,23,r,2,(-3.163262682197613e-14, -172.20000000000002),27,5,2,yes,x,5,x,0.8145785000524484,1,36,test2,3,0.8148097000084817,-40.0
10,lyy,f,23,r,2,(-121.76378772032352, -121.76378772032348),26,-5,12,no,m,6,m,0.6660156999714673,1,37,test2,3,0.666312100016512,-40.0
10,lyy,f,23,r,2,(172.20000000000002, 0.0),21,25,4,yes,x,5,x,0.4834139000158757,1,38,test2,3,0.4837147000362165,-20.0
10,lyy,f,23,r,2,(-121.76378772032352, -121.76378772032348),26,-25,14,no,m,6,m,1.1360164000070654,1,39,test2,3,1.1361373999970965,-20.0
10,lyy,f,23,r,2,(121.76378772032349, 121.76378772032349),22,-25,14,yes,x,5,x,0.6225282000377774,1,40,test2,3,0.622759899997618,-70.0
10,lyy,f,23,r,2,(121.76378772032349, 121.76378772032349),22,-25,14,no,m,6,m,0.8156660000095144,1,41,test2,3,0.815764200000558,-70.0
10,lyy,f,23,r,2,(121.76378772032346, -121.76378772032352),28,25,4,yes,x,5,x,0.6993213000241667,1,42,test2,3,0.6994229999836534,-20.0
10,lyy,f,23,r,2,(-121.76378772032348, 121.76378772032349),24,5,2,yes,x,5,x,0.5988341000047512,1,43,test2,3,0.5990043000201695,-40.0
10,lyy,f,23,r,2,(-172.20000000000002, 2.1088417881317425e-14),25,-5,12,yes,x,5,x,1.2488342000287957,1,44,test2,3,1.2489351000403985,-50.0
10,lyy,f,23,r,2,(-172.20000000000002, 2.1088417881317425e-14),25,-25,14,yes,x,5,x,0.36618760001147166,1,45,test2,3,0.36643140000524,-70.0
10,lyy,f,23,r,2,(-172.20000000000002, 2.1088417881317425e-14),25,7,3,yes,x,5,x,0.6774641000083648,1,46,test2,3,0.6777449999935925,-38.0
10,lyy,f,23,r,2,(-3.163262682197613e-14, -172.20000000000002),27,7,3,yes,x,5,x,0.4593297999817878,1,47,test2,3,0.4595555000123568,-38.0
10,lyy,f,23,r,2,(121.76378772032346, -121.76378772032352),28,-25,14,yes,x,5,x,0.549632299982477,1,48,test2,3,0.5497329999925569,-70.0
10,lyy,f,23,r,2,(-121.76378772032352, -121.76378772032348),26,-7,13,no,m,6,m,0.7738179999869317,1,49,test2,3,0.7741420000093058,-70.0
10,lyy,f,23,r,2,(-121.76378772032348, 121.76378772032349),24,7,3,yes,x,5,x,0.8087182000163011,1,50,test2,3,0.8088323000119999,-38.0
10,lyy,f,23,r,2,(121.76378772032349, 121.76378772032349),22,3,1,yes,x,5,x,0.6573481999803334,1,51,test2,3,0.6574749000137672,-42.0
10,lyy,f,23,r,2,(-121.76378772032348, 121.76378772032349),24,-5,12,no,m,6,m,1.01630820002174,1,52,test2,3,1.0164363000076264,-42.0
10,lyy,f,23,r,2,(121.76378772032346, -121.76378772032352),28,25,4,no,m,6,m,1.2369036999880336,1,53,test2,3,1.237006199953612,-42.0
10,lyy,f,23,r,2,(-121.76378772032348, 121.76378772032349),24,-3,11,yes,x,5,x,0.6030956000322476,1,54,test2,3,0.603326000040397,-48.0
10,lyy,f,23,r,2,(-172.20000000000002, 2.1088417881317425e-14),25,-3,11,yes,x,5,x,0.9925400000065565,1,55,test2,3,0.9926419000257738,-48.0
10,lyy,f,23,r,2,(121.76378772032349, 121.76378772032349),22,7,3,yes,x,5,x,0.5383102999767289,1,56,test2,3,0.5386476999847218,-38.0
10,lyy,f,23,r,2,(-3.163262682197613e-14, -172.20000000000002),27,7,3,yes,x,5,x,0.4676634999923408,1,57,test2,3,0.46780610003042966,-38.0
10,lyy,f,23,r,2,(-121.76378772032348, 121.76378772032349),24,7,3,no,m,6,m,1.4218163000186905,1,58,test2,3,1.421918000036385,-38.0
10,lyy,f,23,r,2,(121.76378772032349, 121.76378772032349),22,-7,13,yes,x,5,x,0.7985168999875896,1,59,test2,3,0.798734899959527,-52.0
10,lyy,f,23,r,2,(172.20000000000002, 0.0),21,-3,11,yes,x,5,x,1.070700400043279,1,60,test2,3,1.0707990000373684,-48.0
10,lyy,f,23,r,2,(172.20000000000002, 0.0),21,-7,13,yes,x,5,x,0.6410833999980241,1,61,test2,3,0.6413004000205547,-52.0
10,lyy,f,23,r,2,(1.0544208940658713e-14, 172.20000000000002),23,-3,11,no,m,6,m,0.7468064000131562,1,62,test2,3,0.7470372999669053,-52.0
10,lyy,f,23,r,2,(172.20000000000002, 0.0),21,3,1,yes,x,5,m,1.1868191999965347,0,63,test2,3,1.1871680000331253,-42.0
10,lyy,f,23,r,2,(121.76378772032349, 121.76378772032349),22,-5,12,yes,x,5,x,0.5388870000024326,1,64,test2,3,0.5391734999720939,-50.0
10,lyy,f,23,r,2,(121.76378772032349, 121.76378772032349),22,5,2,yes,x,5,x,0.6270070999744348,1,65,test2,3,0.6273116000229493,-40.0
10,lyy,f,23,r,2,(-121.76378772032348, 121.76378772032349),24,-7,13,no,m,6,m,0.9724402999854647,1,66,test2,3,0.9728123999666423,-40.0
10,lyy,f,23,r,2,(121.76378772032346, -121.76378772032352),28,3,1,yes,x,5,x,0.8455226999940351,1,67,test2,3,0.8457448999979533,-42.0
10,lyy,f,23,r,2,(-121.76378772032352, -121.76378772032348),26,25,4,no,m,6,m,1.1521001000073738,1,68,test2,3,1.152367000002414,-42.0
10,lyy,f,23,r,2,(172.20000000000002, 0.0),21,-7,13,no,m,6,m,0.8162502000341192,1,69,test2,3,0.8163977999938652,-42.0
10,lyy,f,23,r,2,(172.20000000000002, 0.0),21,-25,14,yes,x,5,x,0.5613356999820098,1,70,test2,3,0.5618416999932379,-70.0
10,lyy,f,23,r,2,(-121.76378772032348, 121.76378772032349),24,25,4,yes,x,5,x,0.5135699000093155,1,71,test2,3,0.513955700036604,-20.0
10,lyy,f,23,r,2,(-121.76378772032352, -121.76378772032348),26,-3,11,yes,x,5,x,1.6029218999901786,1,72,test2,3,1.6031577999820001,-48.0
10,lyy,f,23,r,2,(121.76378772032349, 121.76378772032349),22,-5,12,yes,x,5,x,1.00824090000242,1,73,test2,3,1.008533600019291,-50.0
10,lyy,f,23,r,2,(121.76378772032346, -121.76378772032352),28,-7,13,no,m,6,m,1.1000454999739304,1,74,test2,3,1.100181200017687,-50.0
10,lyy,f,23,r,2,(172.20000000000002, 0.0),21,-5,12,yes,x,5,x,0.5854000999825075,1,75,test2,3,0.5855992999859154,-50.0
10,lyy,f,23,r,2,(121.76378772032346, -121.76378772032352),28,5,2,yes,x,5,x,0.6713657999644056,1,76,test2,3,0.6714869000134058,-40.0
10,lyy,f,23,r,2,(121.76378772032349, 121.76378772032349),22,7,3,yes,x,5,x,0.5384978000074625,1,77,test2,3,0.5386500000022352,-38.0
10,lyy,f,23,r,2,(172.20000000000002, 0.0),21,25,4,no,m,6,m,1.6715372999897227,1,78,test2,3,1.6718603000044823,-38.0
10,lyy,f,23,r,2,(-3.163262682197613e-14, -172.20000000000002),27,3,1,no,m,6,m,0.7889203000231646,1,79,test2,3,0.7890337000135332,-38.0
10,lyy,f,23,r,2,(1.0544208940658713e-14, 172.20000000000002),23,-25,14,yes,x,5,x,0.4416069000144489,1,80,test2,3,0.4418100999901071,-70.0
10,lyy,f,23,r,2,(121.76378772032349, 121.76378772032349),22,5,2,yes,x,5,x,0.5234976999927312,1,81,test2,3,0.5235982000012882,-40.0
10,lyy,f,23,r,2,(121.76378772032349, 121.76378772032349),22,-25,14,yes,x,5,x,0.5761414999724366,1,82,test2,3,0.5765291000134312,-70.0
10,lyy,f,23,r,2,(-121.76378772032352, -121.76378772032348),26,-3,11,yes,x,5,x,1.1605739999795333,1,83,test2,3,1.160872799984645,-48.0
10,lyy,f,23,r,2,(-121.76378772032352, -121.76378772032348),26,7,3,no,m,6,m,1.2920290000038221,1,84,test2,3,1.2921893000020646,-48.0
10,lyy,f,23,r,2,(-172.20000000000002, 2.1088417881317425e-14),25,-7,13,yes,x,5,x,0.4992651999928057,1,85,test2,3,0.4993631999823265,-52.0
10,lyy,f,23,r,2,(1.0544208940658713e-14, 172.20000000000002),23,-3,11,yes,x,5,x,1.006136999989394,1,86,test2,3,1.006264999974519,-48.0
10,lyy,f,23,r,2,(-121.76378772032348, 121.76378772032349),24,5,2,no,m,6,m,1.4035624000243843,1,87,test2,3,1.403667200007476,-48.0
10,lyy,f,23,r,2,(1.0544208940658713e-14, 172.20000000000002),23,25,4,yes,x,5,x,1.0623712000087835,1,88,test2,3,1.062678300018888,-20.0
10,lyy,f,23,r,2,(-172.20000000000002, 2.1088417881317425e-14),25,-5,12,yes,x,5,x,0.581672600004822,1,89,test2,3,0.5818914000410587,-50.0
10,lyy,f,23,r,2,(-172.20000000000002, 2.1088417881317425e-14),25,5,2,yes,x,5,x,0.6313149000052363,1,90,test2,3,0.6316587000037543,-40.0
10,lyy,f,23,r,2,(1.0544208940658713e-14, 172.20000000000002),23,3,1,yes,x,5,None,None,0,91,test2,3,1.9800932999933138,-42.0
10,lyy,f,23,r,2,(-121.76378772032348, 121.76378772032349),24,-5,12,yes,x,5,x,0.6000544000416994,1,92,test2,3,0.6001880000112578,-50.0
10,lyy,f,23,r,2,(-172.20000000000002, 2.1088417881317425e-14),25,-7,13,no,m,6,m,1.1562382000265643,1,93,test2,3,1.156384599977173,-50.0
10,lyy,f,23,r,2,(-172.20000000000002, 2.1088417881317425e-14),25,5,2,no,m,6,m,0.9095515999943018,1,94,test2,3,0.9096704000257887,-50.0
10,lyy,f,23,r,2,(-3.163262682197613e-14, -172.20000000000002),27,-5,12,no,m,6,m,1.1505067000398412,1,95,test2,3,1.1507941000163555,-50.0
10,lyy,f,23,r,2,(-121.76378772032352, -121.76378772032348),26,-5,12,yes,x,5,x,0.7399916000431404,1,96,test2,3,0.7402202999801375,-50.0
10,lyy,f,23,r,2,(121.76378772032346, -121.76378772032352),28,-5,12,yes,x,5,x,0.6355862999917008,1,1,test1,4,0.6358421999611892,-50.0
10,lyy,f,23,r,2,(-172.20000000000002, 2.1088417881317425e-14),25,7,3,yes,x,5,x,0.5053897999459878,1,2,test1,4,0.5055833999649622,-38.0
10,lyy,f,23,r,2,(-3.163262682197613e-14, -172.20000000000002),27,3,1,yes,x,5,x,0.6932032000040635,1,3,test1,4,0.6933335999492556,-42.0
10,lyy,f,23,r,2,(-3.163262682197613e-14, -172.20000000000002),27,5,2,no,m,6,None,None,0,4,test1,4,1.9800893000210635,-42.0
10,lyy,f,23,r,2,(-172.20000000000002, 2.1088417881317425e-14),25,25,4,yes,x,5,x,0.44080749998101965,1,5,test1,4,0.4411030000192113,-20.0
10,lyy,f,23,r,2,(-172.20000000000002, 2.1088417881317425e-14),25,-5,12,no,m,6,m,0.7277018000022508,1,6,test1,4,0.7280096000176854,-20.0
10,lyy,f,23,r,2,(-3.163262682197613e-14, -172.20000000000002),27,25,4,yes,x,5,x,0.4354507000534795,1,7,test1,4,0.4356025000452064,-20.0
10,lyy,f,23,r,2,(-121.76378772032348, 121.76378772032349),24,-5,12,yes,x,5,x,0.728004900040105,1,8,test1,4,0.7281367999967188,-50.0
10,lyy,f,23,r,2,(121.76378772032346, -121.76378772032352),28,-7,13,yes,x,5,x,0.7364702000049874,1,9,test1,4,0.736670000012964,-52.0
10,lyy,f,23,r,2,(172.20000000000002, 0.0),21,5,2,yes,x,5,x,0.5591859999694861,1,10,test1,4,0.5594714999897406,-40.0
10,lyy,f,23,r,2,(121.76378772032349, 121.76378772032349),22,5,2,no,m,6,m,1.07982099999208,1,11,test1,4,1.0799810999887995,-40.0
10,lyy,f,23,r,2,(121.76378772032346, -121.76378772032352),28,-5,12,no,m,6,m,0.9789021000033244,1,12,test1,4,0.9791150000528432,-40.0
10,lyy,f,23,r,2,(121.76378772032349, 121.76378772032349),22,25,4,yes,x,5,x,0.4658591999905184,1,13,test1,4,0.46636610000859946,-20.0
10,lyy,f,23,r,2,(-121.76378772032352, -121.76378772032348),26,-7,13,yes,x,5,x,0.4562813999946229,1,14,test1,4,0.4564692999701947,-52.0
10,lyy,f,23,r,2,(-121.76378772032348, 121.76378772032349),24,-7,13,yes,x,5,x,0.634238800033927,1,15,test1,4,0.6345280000241473,-52.0
10,lyy,f,23,r,2,(172.20000000000002, 0.0),21,25,4,yes,x,5,x,0.4896160999778658,1,16,test1,4,0.48971930000698194,-20.0
10,lyy,f,23,r,2,(-121.76378772032352, -121.76378772032348),26,-7,13,yes,x,5,m,0.6215035999775864,0,17,test1,4,0.6216349999886006,-52.0
10,lyy,f,23,r,2,(-121.76378772032352, -121.76378772032348),26,5,2,yes,x,5,x,0.9619842999964021,1,18,test1,4,0.9621053999871947,-40.0
10,lyy,f,23,r,2,(172.20000000000002, 0.0),21,-5,12,no,m,6,m,1.1420799999614246,1,19,test1,4,1.1423113999771886,-40.0
10,lyy,f,23,r,2,(121.76378772032349, 121.76378772032349),22,25,4,yes,x,5,x,0.9238783000037074,1,20,test1,4,0.9241232000058517,-20.0
10,lyy,f,23,r,2,(1.0544208940658713e-14, 172.20000000000002),23,25,4,yes,x,5,x,0.3739452000008896,1,21,test1,4,0.3741511999978684,-20.0
10,lyy,f,23,r,2,(-172.20000000000002, 2.1088417881317425e-14),25,-25,14,yes,x,5,x,0.42000799998641014,1,22,test1,4,0.4206664999946952,-70.0
10,lyy,f,23,r,2,(1.0544208940658713e-14, 172.20000000000002),23,7,3,yes,x,5,x,0.4126162999891676,1,23,test1,4,0.41278050001710653,-38.0
10,lyy,f,23,r,2,(1.0544208940658713e-14, 172.20000000000002),23,5,2,no,m,6,m,0.7458556999918073,1,24,test1,4,0.7462946000159718,-38.0
10,lyy,f,23,r,2,(121.76378772032346, -121.76378772032352),28,25,4,yes,x,5,x,0.5103899999521673,1,25,test1,4,0.510832300002221,-20.0
10,lyy,f,23,r,2,(1.0544208940658713e-14, 172.20000000000002),23,-7,13,yes,x,5,x,0.6391669000149705,1,26,test1,4,0.639325900003314,-52.0
10,lyy,f,23,r,2,(1.0544208940658713e-14, 172.20000000000002),23,3,1,no,m,6,m,1.0950543999788351,1,27,test1,4,1.0951544000417925,-52.0
10,lyy,f,23,r,2,(1.0544208940658713e-14, 172.20000000000002),23,-25,14,yes,x,5,x,0.40779919998021796,1,28,test1,4,0.40801879996433854,-70.0
10,lyy,f,23,r,2,(-3.163262682197613e-14, -172.20000000000002),27,25,4,no,m,6,m,1.0348250000388362,1,29,test1,4,1.0351281000184827,-70.0
10,lyy,f,23,r,2,(-121.76378772032348, 121.76378772032349),24,7,3,yes,x,5,x,0.8862714999704622,1,30,test1,4,0.8866033999947831,-38.0
10,lyy,f,23,r,2,(1.0544208940658713e-14, 172.20000000000002),23,-3,11,yes,x,5,x,1.3718970000045374,1,31,test1,4,1.372474699979648,-48.0
10,lyy,f,23,r,2,(-172.20000000000002, 2.1088417881317425e-14),25,3,1,yes,x,5,m,1.7983058000099845,0,32,test1,4,1.7986277000163682,-42.0
10,lyy,f,23,r,2,(172.20000000000002, 0.0),21,5,2,no,m,6,m,1.5605676000122912,1,33,test1,4,1.5606818000087515,-42.0
10,lyy,f,23,r,2,(-3.163262682197613e-14, -172.20000000000002),27,-25,14,yes,x,5,x,0.41590700001688674,1,34,test1,4,0.4160560999880545,-70.0
10,lyy,f,23,r,2,(121.76378772032349, 121.76378772032349),22,-3,11,yes,x,5,x,0.8549401999916881,1,35,test1,4,0.8551739000249654,-48.0
10,lyy,f,23,r,2,(172.20000000000002, 0.0),21,-3,11,yes,x,5,x,0.9103807000210509,1,36,test1,4,0.9104798000189476,-48.0
10,lyy,f,23,r,2,(121.76378772032346, -121.76378772032352),28,3,1,yes,x,5,m,1.3821573999593966,0,37,test1,4,1.38244560000021,-42.0
10,lyy,f,23,r,2,(1.0544208940658713e-14, 172.20000000000002),23,-5,12,no,m,6,m,0.7519468999817036,1,38,test1,4,0.7520777999889106,-42.0
10,lyy,f,23,r,2,(-121.76378772032348, 121.76378772032349),24,25,4,no,m,6,m,1.2753439999651164,1,39,test1,4,1.2754810999613255,-42.0
10,lyy,f,23,r,2,(121.76378772032346, -121.76378772032352),28,-5,12,yes,x,5,x,0.9540036999969743,1,40,test1,4,0.9541296999668702,-50.0
10,lyy,f,23,r,2,(1.0544208940658713e-14, 172.20000000000002),23,5,2,yes,x,5,x,0.4439847000176087,1,41,test1,4,0.4442120000021532,-40.0
10,lyy,f,23,r,2,(-121.76378772032352, -121.76378772032348),26,25,4,yes,x,5,x,0.5721014000009745,1,42,test1,4,0.5722166000050493,-20.0
10,lyy,f,23,r,2,(121.76378772032349, 121.76378772032349),22,-5,12,no,m,6,m,1.3168863999890164,1,43,test1,4,1.316988600010518,-20.0
10,lyy,f,23,r,2,(1.0544208940658713e-14, 172.20000000000002),23,5,2,yes,x,5,x,0.5821710999589413,1,44,test1,4,0.5824095999705605,-40.0
10,lyy,f,23,r,2,(121.76378772032349, 121.76378772032349),22,3,1,no,m,6,m,0.8213735000463203,1,45,test1,4,0.8215974000049755,-40.0
10,lyy,f,23,r,2,(-3.163262682197613e-14, -172.20000000000002),27,-3,11,yes,x,5,x,1.1137364000314847,1,46,test1,4,1.114179999975022,-48.0
10,lyy,f,23,r,2,(1.0544208940658713e-14, 172.20000000000002),23,7,3,no,m,6,m,1.3185217999853194,1,47,test1,4,1.3186205999809317,-48.0
10,lyy,f,23,r,2,(121.76378772032349, 121.76378772032349),22,-3,11,yes,x,5,x,0.8327684999676421,1,48,test1,4,0.8329365000245161,-48.0
10,lyy,f,23,r,2,(-121.76378772032348, 121.76378772032349),24,-3,11,yes,x,5,x,1.7439666999853216,1,49,test1,4,1.744235300051514,-48.0
10,lyy,f,23,r,2,(-3.163262682197613e-14, -172.20000000000002),27,-3,11,no,m,6,m,1.8037820999743417,1,50,test1,4,1.8039906999911182,-48.0
10,lyy,f,23,r,2,(121.76378772032346, -121.76378772032352),28,-3,11,yes,x,5,x,0.9182828000048175,1,51,test1,4,0.9183800000464544,-48.0
10,lyy,f,23,r,2,(1.0544208940658713e-14, 172.20000000000002),23,-5,12,yes,x,5,x,0.5314825000241399,1,52,test1,4,0.5317738999729045,-50.0
10,lyy,f,23,r,2,(-121.76378772032348, 121.76378772032349),24,-7,13,yes,x,5,x,0.6971553000039421,1,53,test1,4,0.6972897999803536,-52.0
10,lyy,f,23,r,2,(-3.163262682197613e-14, -172.20000000000002),27,-7,13,yes,x,5,x,0.5668414999963716,1,54,test1,4,0.5673469000030309,-52.0
10,lyy,f,23,r,2,(1.0544208940658713e-14, 172.20000000000002),23,-5,12,yes,x,5,x,0.6397034000256099,1,55,test1,4,0.6399999000132084,-50.0
10,lyy,f,23,r,2,(-3.163262682197613e-14, -172.20000000000002),27,-25,14,no,m,6,m,0.7453574999817647,1,56,test1,4,0.7454593000002205,-50.0
10,lyy,f,23,r,2,(-121.76378772032348, 121.76378772032349),24,25,4,yes,x,5,x,0.5373164999764413,1,57,test1,4,0.5374817999545485,-20.0
10,lyy,f,23,r,2,(-121.76378772032348, 121.76378772032349),24,-25,14,no,m,6,m,0.6527830999693833,1,58,test1,4,0.6530555000063032,-20.0
10,lyy,f,23,r,2,(-3.163262682197613e-14, -172.20000000000002),27,-7,13,yes,x,5,x,0.5897154999547638,1,59,test1,4,0.5901030999957584,-52.0
10,lyy,f,23,r,2,(121.76378772032346, -121.76378772032352),28,-3,11,no,m,6,m,0.6420183000154793,1,60,test1,4,0.6422982000513002,-52.0
10,lyy,f,23,r,2,(-3.163262682197613e-14, -172.20000000000002),27,-3,11,yes,x,5,x,1.5355951000237837,1,61,test1,4,1.535891300009098,-48.0
10,lyy,f,23,r,2,(-3.163262682197613e-14, -172.20000000000002),27,5,2,yes,x,5,x,0.7864310999866575,1,62,test1,4,0.786534600018058,-40.0
10,lyy,f,23,r,2,(-172.20000000000002, 2.1088417881317425e-14),25,3,1,yes,x,5,x,0.6650474999914877,1,63,test1,4,0.6653143999865279,-42.0
10,lyy,f,23,r,2,(-172.20000000000002, 2.1088417881317425e-14),25,-7,13,yes,x,5,None,None,0,64,test1,4,1.9800889000180177,-52.0
10,lyy,f,23,r,2,(-3.163262682197613e-14, -172.20000000000002),27,25,4,yes,x,5,x,0.4191811999771744,1,65,test1,4,0.4192820999887772,-20.0
10,lyy,f,23,r,2,(121.76378772032349, 121.76378772032349),22,7,3,no,m,6,m,0.8157581999548711,1,66,test1,4,0.8158721000072546,-20.0
10,lyy,f,23,r,2,(1.0544208940658713e-14, 172.20000000000002),23,7,3,yes,x,5,x,0.45459999999729916,1,67,test1,4,0.4548629999626428,-38.0
10,lyy,f,23,r,2,(-172.20000000000002, 2.1088417881317425e-14),25,5,2,yes,x,5,x,0.5544713000417687,1,68,test1,4,0.5546425000065938,-40.0
10,lyy,f,23,r,2,(172.20000000000002, 0.0),21,-5,12,yes,x,5,x,0.6689632999477908,1,69,test1,4,0.6690842999960296,-50.0
10,lyy,f,23,r,2,(-3.163262682197613e-14, -172.20000000000002),27,-25,14,yes,x,5,x,0.42000779998488724,1,70,test1,4,0.4202445999835618,-70.0
10,lyy,f,23,r,2,(121.76378772032346, -121.76378772032352),28,7,3,yes,x,5,x,0.7247719000442885,1,71,test1,4,0.7250085999839939,-38.0
10,lyy,f,23,r,2,(121.76378772032349, 121.76378772032349),22,3,1,yes,x,5,x,1.1459213999914937,1,72,test1,4,1.1461386000155471,-42.0
10,lyy,f,23,r,2,(172.20000000000002, 0.0),21,-25,14,yes,x,5,x,0.4267470999620855,1,73,test1,4,0.42696120002074167,-70.0
10,lyy,f,23,r,2,(-121.76378772032352, -121.76378772032348),26,3,1,yes,x,5,None,None,0,74,test1,4,1.980089999968186,-42.0
10,lyy,f,23,r,2,(-172.20000000000002, 2.1088417881317425e-14),25,-25,14,no,m,6,m,1.7900746000232175,1,75,test1,4,1.7903444000403397,-42.0
10,lyy,f,23,r,2,(1.0544208940658713e-14, 172.20000000000002),23,3,1,yes,x,5,x,0.8607617000234313,1,76,test1,4,0.860923099971842,-42.0
10,lyy,f,23,r,2,(-121.76378772032348, 121.76378772032349),24,3,1,yes,x,5,m,1.062575599993579,0,77,test1,4,1.062831700022798,-42.0
10,lyy,f,23,r,2,(121.76378772032349, 121.76378772032349),22,-3,11,no,m,6,m,1.1102970000356436,1,78,test1,4,1.1106973999994807,-42.0
10,lyy,f,23,r,2,(121.76378772032346, -121.76378772032352),28,-3,11,yes,x,5,x,0.6469023000099696,1,79,test1,4,0.6471998000051826,-48.0
10,lyy,f,23,r,2,(-3.163262682197613e-14, -172.20000000000002),27,-5,12,yes,x,5,x,0.4475971999927424,1,80,test1,4,0.44823070004349574,-50.0
10,lyy,f,23,r,2,(-121.76378772032352, -121.76378772032348),26,-5,12,yes,x,5,x,0.6373539000051096,1,81,test1,4,0.6377602000138722,-50.0
10,lyy,f,23,r,2,(-172.20000000000002, 2.1088417881317425e-14),25,3,1,no,m,6,m,1.462873300013598,1,82,test1,4,1.4632730000303127,-50.0
10,lyy,f,23,r,2,(-121.76378772032352, -121.76378772032348),26,5,2,no,m,6,m,1.4502168000326492,1,83,test1,4,1.4503825000138022,-50.0
10,lyy,f,23,r,2,(-121.76378772032352, -121.76378772032348),26,-3,11,no,m,6,m,0.6130360999959521,1,84,test1,4,0.6134103999938816,-50.0
10,lyy,f,23,r,2,(121.76378772032346, -121.76378772032352),28,-7,13,yes,x,5,x,0.5382108999765478,1,85,test1,4,0.5383498999872245,-52.0
10,lyy,f,23,r,2,(1.0544208940658713e-14, 172.20000000000002),23,-7,13,no,m,6,m,1.039765699999407,1,86,test1,4,1.0399846999789588,-52.0
10,lyy,f,23,r,2,(-121.76378772032352, -121.76378772032348),26,7,3,yes,x,5,x,1.2242215999867767,1,87,test1,4,1.2247067000134848,-38.0
10,lyy,f,23,r,2,(121.76378772032349, 121.76378772032349),22,-7,13,no,m,6,m,1.4314672999898903,1,88,test1,4,1.431624999968335,-38.0
10,lyy,f,23,r,2,(-3.163262682197613e-14, -172.20000000000002),27,7,3,no,m,6,m,1.9698742000036873,1,89,test1,4,1.9700078000314534,-38.0
10,lyy,f,23,r,2,(-121.76378772032348, 121.76378772032349),24,5,2,yes,x,5,x,0.6250766000011936,1,90,test1,4,0.625180100032594,-40.0
10,lyy,f,23,r,2,(1.0544208940658713e-14, 172.20000000000002),23,25,4,no,m,6,m,0.5643701000371948,1,91,test1,4,0.564650799962692,-40.0
10,lyy,f,23,r,2,(-121.76378772032348, 121.76378772032349),24,-3,11,no,m,6,m,0.6792564999777824,1,92,test1,4,0.6795448999619111,-40.0
10,lyy,f,23,r,2,(121.76378772032346, -121.76378772032352),28,7,3,yes,x,5,x,1.132581999991089,1,93,test1,4,1.132918499992229,-38.0
10,lyy,f,23,r,2,(172.20000000000002, 0.0),21,-7,13,yes,x,5,x,0.44070300000021234,1,94,test1,4,0.44086169998627156,-52.0
10,lyy,f,23,r,2,(-121.76378772032352, -121.76378772032348),26,25,4,yes,x,5,x,0.5101350000477396,1,95,test1,4,0.5102493999875151,-20.0
10,lyy,f,23,r,2,(-121.76378772032348, 121.76378772032349),24,-25,14,yes,x,5,x,0.698745500005316,1,96,test1,4,0.6989826000062749,-70.0
10,lyy,f,23,r,2,(172.20000000000002, 0.0),21,7,3,yes,x,5,x,0.5981645000283606,1,1,test2,4,0.5984370000078343,-38.0
10,lyy,f,23,r,2,(172.20000000000002, 0.0),21,3,1,yes,x,5,x,0.41791739995824173,1,2,test2,4,0.41802839998854324,-42.0
10,lyy,f,23,r,2,(172.20000000000002, 0.0),21,7,3,yes,x,5,x,0.5773448999971151,1,3,test2,4,0.5779642999987118,-38.0
10,lyy,f,23,r,2,(-121.76378772032348, 121.76378772032349),24,3,1,no,m,6,m,1.0899457999621518,1,4,test2,4,1.0902774999849498,-38.0
10,lyy,f,23,r,2,(-172.20000000000002, 2.1088417881317425e-14),25,7,3,no,m,6,m,0.7795773000107147,1,5,test2,4,0.7799182000453584,-38.0
10,lyy,f,23,r,2,(-121.76378772032352, -121.76378772032348),26,-25,14,yes,x,5,x,0.3788872000295669,1,6,test2,4,0.3791079999646172,-70.0
10,lyy,f,23,r,2,(172.20000000000002, 0.0),21,-25,14,no,m,6,m,1.7116170999943279,1,7,test2,4,1.7117150000412948,-70.0
10,lyy,f,23,r,2,(-3.163262682197613e-14, -172.20000000000002),27,-7,13,no,m,6,m,0.7376096999505535,1,8,test2,4,0.7381304999580607,-70.0
10,lyy,f,23,r,2,(121.76378772032346, -121.76378772032352),28,3,1,no,m,6,m,0.6911242000060156,1,9,test2,4,0.6912298999959603,-70.0
10,lyy,f,23,r,2,(121.76378772032346, -121.76378772032352),28,5,2,yes,x,5,x,0.5711022000177763,1,10,test2,4,0.5712601999985054,-40.0
10,lyy,f,23,r,2,(-3.163262682197613e-14, -172.20000000000002),27,-5,12,yes,x,5,m,0.7642266000038944,0,11,test2,4,0.7647293999907561,-50.0
10,lyy,f,23,r,2,(-121.76378772032352, -121.76378772032348),26,3,1,no,m,6,m,1.0006837000255473,1,12,test2,4,1.0009825000306591,-50.0
10,lyy,f,23,r,2,(172.20000000000002, 0.0),21,-3,11,no,m,6,m,0.7999610000406392,1,13,test2,4,0.8002081000013277,-50.0
10,lyy,f,23,r,2,(-172.20000000000002, 2.1088417881317425e-14),25,-3,11,no,m,6,m,0.6828678000019863,1,14,test2,4,0.6829717000364326,-50.0
10,lyy,f,23,r,2,(-172.20000000000002, 2.1088417881317425e-14),25,25,4,no,m,6,m,0.7309726000530645,1,15,test2,4,0.7311949000577442,-50.0
10,lyy,f,23,r,2,(1.0544208940658713e-14, 172.20000000000002),23,-7,13,yes,x,5,x,0.5847876000334509,1,16,test2,4,0.5849793000379577,-52.0
10,lyy,f,23,r,2,(-172.20000000000002, 2.1088417881317425e-14),25,25,4,yes,x,5,x,0.3629914000048302,1,17,test2,4,0.36364550003781915,-20.0
10,lyy,f,23,r,2,(-121.76378772032348, 121.76378772032349),24,-25,14,yes,x,5,x,0.5743323999922723,1,18,test2,4,0.574593500001356,-70.0
10,lyy,f,23,r,2,(121.76378772032346, -121.76378772032352),28,-25,14,no,m,6,m,0.8529839999973774,1,19,test2,4,0.8536658999510109,-70.0
10,lyy,f,23,r,2,(172.20000000000002, 0.0),21,3,1,no,m,6,m,0.7341576999751851,1,20,test2,4,0.7342766000074334,-70.0
10,lyy,f,23,r,2,(172.20000000000002, 0.0),21,7,3,no,m,6,m,1.060597500007134,1,21,test2,4,1.061102999956347,-70.0
10,lyy,f,23,r,2,(-172.20000000000002, 2.1088417881317425e-14),25,-3,11,yes,x,5,x,0.7767421999596991,1,22,test2,4,0.7769670000416227,-48.0
10,lyy,f,23,r,2,(172.20000000000002, 0.0),21,5,2,yes,x,5,x,0.4441219000145793,1,23,test2,4,0.4444981999695301,-40.0
10,lyy,f,23,r,2,(121.76378772032349, 121.76378772032349),22,-7,13,yes,x,5,x,0.4956051999470219,1,24,test2,4,0.4961881999624893,-52.0
10,lyy,f,23,r,2,(-3.163262682197613e-14, -172.20000000000002),27,3,1,yes,x,5,m,0.8152398999664001,0,25,test2,4,0.815652199962642,-42.0
10,lyy,f,23,r,2,(-121.76378772032352, -121.76378772032348),26,3,1,yes,x,5,m,1.6819213000126183,0,26,test2,4,1.682429900043644,-42.0
10,lyy,f,23,r,2,(121.76378772032349, 121.76378772032349),22,25,4,no,m,6,m,1.6339519000030123,1,27,test2,4,1.6340667000040412,-42.0
10,lyy,f,23,r,2,(-121.76378772032352, -121.76378772032348),26,7,3,yes,x,5,x,0.39084820001153275,1,28,test2,4,0.3909679999924265,-38.0
10,lyy,f,23,r,2,(121.76378772032346, -121.76378772032352),28,-25,14,yes,x,5,x,0.4319893000065349,1,29,test2,4,0.43222250003600493,-70.0
10,lyy,f,23,r,2,(121.76378772032346, -121.76378772032352),28,7,3,no,m,6,m,1.615653500019107,1,30,test2,4,1.6160529000335373,-70.0
10,lyy,f,23,r,2,(-121.76378772032352, -121.76378772032348),26,-25,14,yes,x,5,x,0.5684075999888591,1,31,test2,4,0.5685355000314303,-70.0
10,lyy,f,23,r,2,(-121.76378772032352, -121.76378772032348),26,5,2,yes,x,5,x,0.8180538000306115,1,32,test2,4,0.818500800000038,-40.0
10,lyy,f,23,r,2,(-121.76378772032348, 121.76378772032349),24,3,1,yes,x,5,x,0.9866661999840289,1,33,test2,4,0.9867682000040077,-42.0
10,lyy,f,23,r,2,(121.76378772032346, -121.76378772032352),28,5,2,no,m,6,m,0.9942705000285059,1,34,test2,4,0.9946418000035919,-42.0
10,lyy,f,23,r,2,(1.0544208940658713e-14, 172.20000000000002),23,-25,14,no,m,6,m,1.5222601999994367,1,35,test2,4,1.522496499994304,-42.0
10,lyy,f,23,r,2,(-3.163262682197613e-14, -172.20000000000002),27,5,2,yes,x,5,x,0.6149429000215605,1,36,test2,4,0.61504150001565,-40.0
10,lyy,f,23,r,2,(-121.76378772032352, -121.76378772032348),26,-5,12,no,m,6,m,0.9501527000102215,1,37,test2,4,0.9503417999949306,-40.0
10,lyy,f,23,r,2,(172.20000000000002, 0.0),21,25,4,yes,x,5,x,0.7043859999976121,1,38,test2,4,0.7046953999670222,-20.0
10,lyy,f,23,r,2,(-121.76378772032352, -121.76378772032348),26,-25,14,no,m,6,m,0.8612146999803372,1,39,test2,4,0.8614531999919564,-20.0
10,lyy,f,23,r,2,(121.76378772032349, 121.76378772032349),22,-25,14,yes,x,5,x,0.39075590000720695,1,40,test2,4,0.3908565000165254,-70.0
10,lyy,f,23,r,2,(121.76378772032349, 121.76378772032349),22,-25,14,no,m,6,m,0.5704925999743864,1,41,test2,4,0.5705916000297293,-70.0
10,lyy,f,23,r,2,(121.76378772032346, -121.76378772032352),28,25,4,yes,x,5,x,0.7757707000127994,1,42,test2,4,0.7762540000258014,-20.0
10,lyy,f,23,r,2,(-121.76378772032348, 121.76378772032349),24,5,2,yes,x,5,x,0.5573906999779865,1,43,test2,4,0.5577646999736317,-40.0
10,lyy,f,23,r,2,(-172.20000000000002, 2.1088417881317425e-14),25,-5,12,yes,x,5,x,0.5051258000312373,1,44,test2,4,0.5052540000178851,-50.0
10,lyy,f,23,r,2,(-172.20000000000002, 2.1088417881317425e-14),25,-25,14,yes,x,5,x,0.48509809997631237,1,45,test2,4,0.4854941999656148,-70.0
10,lyy,f,23,r,2,(-172.20000000000002, 2.1088417881317425e-14),25,7,3,yes,x,5,x,0.369765900017228,1,46,test2,4,0.37044539995258674,-38.0
10,lyy,f,23,r,2,(-3.163262682197613e-14, -172.20000000000002),27,7,3,yes,x,5,x,0.4330981000093743,1,47,test2,4,0.4333617999800481,-38.0
10,lyy,f,23,r,2,(121.76378772032346, -121.76378772032352),28,-25,14,yes,x,5,x,0.4241170000168495,1,48,test2,4,0.4244111000443809,-70.0
10,lyy,f,23,r,2,(-121.76378772032352, -121.76378772032348),26,-7,13,no,m,6,m,1.0240175999933854,1,49,test2,4,1.0241323999944143,-70.0
10,lyy,f,23,r,2,(-121.76378772032348, 121.76378772032349),24,7,3,yes,x,5,None,None,0,50,test2,4,1.9800932999933138,-38.0
10,lyy,f,23,r,2,(121.76378772032349, 121.76378772032349),22,3,1,yes,x,5,x,1.439240499981679,1,51,test2,4,1.4393424000008963,-42.0
10,lyy,f,23,r,2,(-121.76378772032348, 121.76378772032349),24,-5,12,no,m,6,m,0.7701542000286281,1,52,test2,4,0.7704645000048913,-42.0
10,lyy,f,23,r,2,(121.76378772032346, -121.76378772032352),28,25,4,no,m,6,m,0.7276458999840543,1,53,test2,4,0.7278993999934755,-42.0
10,lyy,f,23,r,2,(-121.76378772032348, 121.76378772032349),24,-3,11,yes,x,5,x,0.5240251999930479,1,54,test2,4,0.5243202000274323,-48.0
10,lyy,f,23,r,2,(-172.20000000000002, 2.1088417881317425e-14),25,-3,11,yes,x,5,x,0.4464592000003904,1,55,test2,4,0.4469336000038311,-48.0
10,lyy,f,23,r,2,(121.76378772032349, 121.76378772032349),22,7,3,yes,x,5,x,0.5834032000275329,1,56,test2,4,0.583551499992609,-38.0
10,lyy,f,23,r,2,(-3.163262682197613e-14, -172.20000000000002),27,7,3,yes,x,5,x,0.5024211999843828,1,57,test2,4,0.5025207999860868,-38.0
10,lyy,f,23,r,2,(-121.76378772032348, 121.76378772032349),24,7,3,no,m,6,m,1.5527408000198193,1,58,test2,4,1.5529782999656163,-38.0
10,lyy,f,23,r,2,(121.76378772032349, 121.76378772032349),22,-7,13,yes,x,5,x,0.5225342000485398,1,59,test2,4,0.5226343999966048,-52.0
10,lyy,f,23,r,2,(172.20000000000002, 0.0),21,-3,11,yes,x,5,x,1.2233152000117116,1,60,test2,4,1.223850499955006,-48.0
10,lyy,f,23,r,2,(172.20000000000002, 0.0),21,-7,13,yes,x,5,x,0.372805499995593,1,61,test2,4,0.3734072000370361,-52.0
10,lyy,f,23,r,2,(1.0544208940658713e-14, 172.20000000000002),23,-3,11,no,m,6,m,1.1114748999825679,1,62,test2,4,1.1118208999978378,-52.0
10,lyy,f,23,r,2,(172.20000000000002, 0.0),21,3,1,yes,x,5,x,0.45860010001342744,1,63,test2,4,0.45902539999224246,-42.0
10,lyy,f,23,r,2,(121.76378772032349, 121.76378772032349),22,-5,12,yes,x,5,x,0.46795570000540465,1,64,test2,4,0.46817529998952523,-50.0
10,lyy,f,23,r,2,(121.76378772032349, 121.76378772032349),22,5,2,yes,x,5,x,0.8191836000187322,1,65,test2,4,0.8194223000318743,-40.0
10,lyy,f,23,r,2,(-121.76378772032348, 121.76378772032349),24,-7,13,no,m,6,m,0.9269407999818213,1,66,test2,4,0.9273465999867767,-40.0
10,lyy,f,23,r,2,(121.76378772032346, -121.76378772032352),28,3,1,yes,x,5,x,1.6539158999803476,1,67,test2,4,1.6540397999924608,-42.0
10,lyy,f,23,r,2,(-121.76378772032352, -121.76378772032348),26,25,4,no,m,6,m,0.83141040004557,1,68,test2,4,0.8315102000487968,-42.0
10,lyy,f,23,r,2,(172.20000000000002, 0.0),21,-7,13,no,m,6,m,1.6303213000064716,1,69,test2,4,1.6304344999953173,-42.0
10,lyy,f,23,r,2,(172.20000000000002, 0.0),21,-25,14,yes,x,5,x,0.598485000024084,1,70,test2,4,0.5988909999723546,-70.0
10,lyy,f,23,r,2,(-121.76378772032348, 121.76378772032349),24,25,4,yes,x,5,x,0.3634547999827191,1,71,test2,4,0.3635537999798544,-20.0
10,lyy,f,23,r,2,(-121.76378772032352, -121.76378772032348),26,-3,11,yes,x,5,x,0.5976995999808423,1,72,test2,4,0.5978321000002325,-48.0
10,lyy,f,23,r,2,(121.76378772032349, 121.76378772032349),22,-5,12,yes,x,5,x,0.5965986999799497,1,73,test2,4,0.5967110999627039,-50.0
10,lyy,f,23,r,2,(121.76378772032346, -121.76378772032352),28,-7,13,no,m,6,m,1.0007713000522926,1,74,test2,4,1.0010181999532506,-50.0
10,lyy,f,23,r,2,(172.20000000000002, 0.0),21,-5,12,yes,x,5,x,1.1493259000126272,1,75,test2,4,1.1494430999737233,-50.0
10,lyy,f,23,r,2,(121.76378772032346, -121.76378772032352),28,5,2,yes,x,5,m,0.7785089000244625,0,76,test2,4,0.7787669999524951,-40.0
10,lyy,f,23,r,2,(121.76378772032349, 121.76378772032349),22,7,3,yes,x,5,x,0.5002910000039265,1,77,test2,4,0.5008216999704018,-38.0
10,lyy,f,23,r,2,(172.20000000000002, 0.0),21,25,4,no,m,6,m,0.8802348999888636,1,78,test2,4,0.8805205000098795,-38.0
10,lyy,f,23,r,2,(-3.163262682197613e-14, -172.20000000000002),27,3,1,no,m,6,m,0.869770499994047,1,79,test2,4,0.8700021000113338,-38.0
