subj_id,subj_name,subj_gender ,subj_age,subj_handedness,subj_runNum,tar_l_x,tar_l_y,loc_code,tar_ori,tar_code,tar_pre ,cor_response,pre_code,subj_response,RT,correct,trial_num,type,bloc_num,dur, real_tar
11,lsm,f,19,r,2,(-121.76378772032352, -121.76378772032348),26,-25,14,no,m,6,m,0.6648583000060171,1,1,test1,1,0.6650625999900512,0.0
11,lsm,f,19,r,2,(-121.76378772032352, -121.76378772032348),26,7,3,yes,x,5,x,0.6821394999860786,1,2,test1,1,0.6823729999596253,-38.0
11,lsm,f,19,r,2,(-172.20000000000002, 2.1088417881317425e-14),25,-25,14,yes,x,5,x,0.5315243999939412,1,3,test1,1,0.5321015000226907,-70.0
11,lsm,f,19,r,2,(-3.163262682197613e-14, -172.20000000000002),27,-5,12,no,m,6,m,0.5968309000018053,1,4,test1,1,0.5971079999580979,-70.0
11,lsm,f,19,r,2,(-172.20000000000002, 2.1088417881317425e-14),25,-25,14,yes,x,5,x,0.35821239999495447,1,5,test1,1,0.35848819999955595,-70.0
11,lsm,f,19,r,2,(-121.76378772032348, 121.76378772032349),24,-5,12,no,m,6,m,0.5022044000215828,1,6,test1,1,0.5023326000082307,-70.0
11,lsm,f,19,r,2,(121.76378772032346, -121.76378772032352),28,-25,14,no,m,6,m,0.5334677000064403,1,7,test1,1,0.5335969000007026,-70.0
11,lsm,f,19,r,2,(1.0544208940658713e-14, 172.20000000000002),23,3,1,yes,x,5,x,0.6470482999575324,1,8,test1,1,0.6472705999622121,-42.0
11,lsm,f,19,r,2,(-121.76378772032352, -121.76378772032348),26,-7,13,no,m,6,m,0.697304199973587,1,9,test1,1,0.6976801999844611,-42.0
11,lsm,f,19,r,2,(121.76378772032346, -121.76378772032352),28,25,4,no,m,6,m,0.550465400039684,1,10,test1,1,0.5506240000249818,-42.0
11,lsm,f,19,r,2,(-121.76378772032348, 121.76378772032349),24,5,2,yes,x,5,x,0.5208069999935105,1,11,test1,1,0.5209201999823563,-40.0
11,lsm,f,19,r,2,(-121.76378772032352, -121.76378772032348),26,5,2,yes,x,5,x,0.6870347000076436,1,12,test1,1,0.6873836999875493,-40.0
11,lsm,f,19,r,2,(121.76378772032349, 121.76378772032349),22,-25,14,yes,x,5,x,0.47030679997988045,1,13,test1,1,0.4706575999734923,-70.0
11,lsm,f,19,r,2,(172.20000000000002, 0.0),21,-7,13,yes,x,5,x,0.95800500002224,1,14,test1,1,0.9582384999957867,-52.0
11,lsm,f,19,r,2,(172.20000000000002, 0.0),21,-3,11,yes,x,5,m,0.9903892999864183,0,15,test1,1,0.9906206000014208,-48.0
11,lsm,f,19,r,2,(-3.163262682197613e-14, -172.20000000000002),27,7,3,no,m,6,m,0.7963754000375047,1,16,test1,1,0.7970090999733657,-48.0
11,lsm,f,19,r,2,(-121.76378772032348, 121.76378772032349),24,3,1,yes,x,5,x,0.6822036000085063,1,17,test1,1,0.6823695999919437,-42.0
11,lsm,f,19,r,2,(-3.163262682197613e-14, -172.20000000000002),27,-7,13,no,m,6,m,1.2974904999719001,1,18,test1,1,1.2976145999855362,-42.0
11,lsm,f,19,r,2,(-121.76378772032348, 121.76378772032349),24,-5,12,yes,x,5,x,0.5704238999751396,1,19,test1,1,0.5711007000063546,-50.0
11,lsm,f,19,r,2,(-121.76378772032348, 121.76378772032349),24,5,2,no,m,6,m,0.8467435999773443,1,20,test1,1,0.847424499981571,-50.0
11,lsm,f,19,r,2,(1.0544208940658713e-14, 172.20000000000002),23,7,3,no,m,6,m,1.0008876000065356,1,21,test1,1,1.0009902999736369,-50.0
11,lsm,f,19,r,2,(-121.76378772032348, 121.76378772032349),24,-3,11,yes,x,5,x,0.6076503000222147,1,22,test1,1,0.6079080000054091,-48.0
11,lsm,f,19,r,2,(-121.76378772032352, -121.76378772032348),26,5,2,no,m,6,m,0.7830121999722905,1,23,test1,1,0.7831193000311032,-48.0
11,lsm,f,19,r,2,(121.76378772032346, -121.76378772032352),28,7,3,yes,x,5,x,0.6307303000357933,1,24,test1,1,0.6308307999861427,-38.0
11,lsm,f,19,r,2,(121.76378772032346, -121.76378772032352),28,5,2,no,m,6,m,0.8953878000029363,1,25,test1,1,0.8956797000137158,-38.0
11,lsm,f,19,r,2,(121.76378772032349, 121.76378772032349),22,-3,11,yes,x,5,x,0.5686990000540391,1,26,test1,1,0.5688591000507586,-48.0
11,lsm,f,19,r,2,(-3.163262682197613e-14, -172.20000000000002),27,-5,12,yes,x,5,x,0.8044641999877058,1,27,test1,1,0.8046067000250332,-50.0
11,lsm,f,19,r,2,(172.20000000000002, 0.0),21,-5,12,yes,x,5,x,0.6205803000484593,1,28,test1,1,0.6208952000015415,-50.0
11,lsm,f,19,r,2,(1.0544208940658713e-14, 172.20000000000002),23,-5,12,yes,x,5,x,0.6086009000428021,1,29,test1,1,0.6088809000211768,-50.0
11,lsm,f,19,r,2,(-121.76378772032348, 121.76378772032349),24,25,4,no,m,6,m,0.9615309999790043,1,30,test1,1,0.9617608999833465,-50.0
11,lsm,f,19,r,2,(-121.76378772032352, -121.76378772032348),26,-7,13,yes,x,5,x,0.5354646000196226,1,31,test1,1,0.5358571999822743,-52.0
11,lsm,f,19,r,2,(-3.163262682197613e-14, -172.20000000000002),27,5,2,yes,x,5,x,0.5163875000434928,1,32,test1,1,0.5165635000448674,-40.0
11,lsm,f,19,r,2,(-172.20000000000002, 2.1088417881317425e-14),25,5,2,no,m,6,m,0.8213617000146769,1,33,test1,1,0.8215752000105567,-40.0
11,lsm,f,19,r,2,(121.76378772032346, -121.76378772032352),28,-3,11,no,m,6,m,0.7597762999939732,1,34,test1,1,0.7600352999870665,-40.0
11,lsm,f,19,r,2,(121.76378772032349, 121.76378772032349),22,-7,13,yes,x,5,x,0.48125239997170866,1,35,test1,1,0.4816073999973014,-52.0
11,lsm,f,19,r,2,(-172.20000000000002, 2.1088417881317425e-14),25,-3,11,yes,x,5,m,0.7825426000053994,0,36,test1,1,0.7826568000018597,-48.0
11,lsm,f,19,r,2,(172.20000000000002, 0.0),21,-5,12,yes,x,5,m,0.936090899980627,0,37,test1,1,0.9362216000445187,-50.0
11,lsm,f,19,r,2,(-3.163262682197613e-14, -172.20000000000002),27,25,4,yes,x,5,x,0.46843249996891245,1,38,test1,1,0.4685649999883026,-20.0
11,lsm,f,19,r,2,(172.20000000000002, 0.0),21,-7,13,yes,x,5,x,0.5122598999878392,1,39,test1,1,0.5124405000242405,-52.0
11,lsm,f,19,r,2,(-121.76378772032348, 121.76378772032349),24,7,3,no,m,6,m,0.8917132999631576,1,40,test1,1,0.8918131999671459,-52.0
11,lsm,f,19,r,2,(-3.163262682197613e-14, -172.20000000000002),27,5,2,no,m,6,x,0.7836845000274479,0,41,test1,1,0.783784800034482,-52.0
11,lsm,f,19,r,2,(121.76378772032349, 121.76378772032349),22,3,1,yes,x,5,m,1.4055941000115126,0,42,test1,1,1.4062224000226706,-42.0
11,lsm,f,19,r,2,(172.20000000000002, 0.0),21,3,1,no,m,6,m,0.6278773999656551,1,43,test1,1,0.6281144000240602,-42.0
11,lsm,f,19,r,2,(-121.76378772032348, 121.76378772032349),24,-25,14,no,m,6,m,1.676483300048858,1,44,test1,1,1.6768711999757215,-42.0
11,lsm,f,19,r,2,(-172.20000000000002, 2.1088417881317425e-14),25,-5,12,no,m,6,m,1.5562284999759868,1,45,test1,1,1.5567164000240155,-42.0
11,lsm,f,19,r,2,(121.76378772032349, 121.76378772032349),22,-7,13,no,m,6,m,1.6841950000380166,1,46,test1,1,1.6848503000219353,-42.0
11,lsm,f,19,r,2,(121.76378772032349, 121.76378772032349),22,5,2,yes,x,5,x,0.6686199000105262,1,47,test1,1,0.6691266999696381,-40.0
11,lsm,f,19,r,2,(-3.163262682197613e-14, -172.20000000000002),27,-3,11,no,m,6,m,1.043143599992618,1,48,test1,1,1.0433578999945894,-40.0
11,lsm,f,19,r,2,(121.76378772032346, -121.76378772032352),28,3,1,yes,x,5,m,1.2128786999965087,0,49,test1,1,1.2130860000033863,-42.0
11,lsm,f,19,r,2,(-3.163262682197613e-14, -172.20000000000002),27,25,4,no,m,6,m,1.1979852999793366,1,50,test1,1,1.1986422999761999,-42.0
11,lsm,f,19,r,2,(121.76378772032346, -121.76378772032352),28,3,1,yes,x,5,x,1.2847397000296041,1,51,test1,1,1.2850800000014715,-42.0
11,lsm,f,19,r,2,(-121.76378772032352, -121.76378772032348),26,25,4,yes,x,5,x,0.45118930004537106,1,52,test1,1,0.4513170000282116,-20.0
11,lsm,f,19,r,2,(-121.76378772032352, -121.76378772032348),26,-5,12,yes,x,5,x,0.5008576000109315,1,53,test1,1,0.5010875000152737,-50.0
11,lsm,f,19,r,2,(-172.20000000000002, 2.1088417881317425e-14),25,7,3,no,m,6,m,0.7745424999739043,1,54,test1,1,0.7748248999705538,-50.0
11,lsm,f,19,r,2,(-121.76378772032348, 121.76378772032349),24,7,3,yes,x,5,x,0.36595950002083555,1,55,test1,1,0.3661849000491202,-38.0
11,lsm,f,19,r,2,(-121.76378772032352, -121.76378772032348),26,3,1,yes,x,5,x,1.161465999961365,1,56,test1,1,1.1616267000208609,-42.0
11,lsm,f,19,r,2,(1.0544208940658713e-14, 172.20000000000002),23,-3,11,yes,x,5,x,0.5773897999897599,1,57,test1,1,0.577605800004676,-48.0
11,lsm,f,19,r,2,(-172.20000000000002, 2.1088417881317425e-14),25,7,3,yes,x,5,x,0.44948030001251027,1,58,test1,1,0.4495837999857031,-38.0
11,lsm,f,19,r,2,(121.76378772032346, -121.76378772032352),28,-5,12,yes,x,5,m,1.347713199967984,0,59,test1,1,1.3479377999901772,-50.0
11,lsm,f,19,r,2,(172.20000000000002, 0.0),21,-5,12,no,m,6,m,1.1895768999820575,1,60,test1,1,1.1901861000224017,-50.0
11,lsm,f,19,r,2,(-3.163262682197613e-14, -172.20000000000002),27,5,2,yes,x,5,x,0.6677207000320777,1,61,test1,1,0.6678493000217713,-40.0
11,lsm,f,19,r,2,(172.20000000000002, 0.0),21,25,4,yes,x,5,x,0.4616114000091329,1,62,test1,1,0.4618981000385247,-20.0
11,lsm,f,19,r,2,(-121.76378772032352, -121.76378772032348),26,3,1,no,m,6,m,0.7577098000328988,1,63,test1,1,0.7586758999968879,-20.0
11,lsm,f,19,r,2,(121.76378772032349, 121.76378772032349),22,-25,14,no,m,6,m,0.8825481000239961,1,64,test1,1,0.8829076000256464,-20.0
11,lsm,f,19,r,2,(-172.20000000000002, 2.1088417881317425e-14),25,7,3,yes,x,5,x,0.40457439998863265,1,65,test1,1,0.4048215999500826,-38.0
11,lsm,f,19,r,2,(121.76378772032349, 121.76378772032349),22,3,1,yes,x,5,x,0.887150099966675,1,66,test1,1,0.8875630999682471,-42.0
11,lsm,f,19,r,2,(121.76378772032349, 121.76378772032349),22,7,3,no,m,6,m,0.6944793000002392,1,67,test1,1,0.6948223999934271,-42.0
11,lsm,f,19,r,2,(1.0544208940658713e-14, 172.20000000000002),23,5,2,no,m,6,m,0.9007500999723561,1,68,test1,1,0.900899300002493,-42.0
11,lsm,f,19,r,2,(121.76378772032346, -121.76378772032352),28,-3,11,yes,x,5,m,1.0242476000566967,0,69,test1,1,1.024349000013899,-48.0
11,lsm,f,19,r,2,(-121.76378772032352, -121.76378772032348),26,-3,11,yes,x,5,x,0.7498226999887265,1,70,test1,1,0.7504009999684058,-48.0
11,lsm,f,19,r,2,(172.20000000000002, 0.0),21,-25,14,no,m,6,m,0.798484000028111,1,71,test1,1,0.7986158999847248,-48.0
11,lsm,f,19,r,2,(-172.20000000000002, 2.1088417881317425e-14),25,-5,12,yes,x,5,x,0.5197865000227466,1,72,test1,1,0.5200169000308961,-50.0
11,lsm,f,19,r,2,(-172.20000000000002, 2.1088417881317425e-14),25,-7,13,yes,x,5,x,0.4948148999828845,1,73,test1,1,0.4950529000489041,-52.0
11,lsm,f,19,r,2,(-172.20000000000002, 2.1088417881317425e-14),25,-3,11,no,m,6,m,1.024032299988903,1,74,test1,1,1.025054799974896,-52.0
11,lsm,f,19,r,2,(-121.76378772032348, 121.76378772032349),24,-25,14,yes,x,5,x,0.48273190000327304,1,75,test1,1,0.48302260000491515,-70.0
11,lsm,f,19,r,2,(-121.76378772032352, -121.76378772032348),26,-25,14,yes,x,5,x,0.48438189999433234,1,76,test1,1,0.48448260000441223,-70.0
11,lsm,f,19,r,2,(-121.76378772032352, -121.76378772032348),26,-5,12,yes,x,5,x,0.6750956999603659,1,77,test1,1,0.6751958000240847,-50.0
11,lsm,f,19,r,2,(121.76378772032349, 121.76378772032349),22,-5,12,no,m,6,m,1.5042400999809615,1,78,test1,1,1.5044651000062004,-50.0
11,lsm,f,19,r,2,(172.20000000000002, 0.0),21,7,3,yes,x,5,x,0.6192004000185989,1,79,test1,1,0.6196004000375979,-38.0
11,lsm,f,19,r,2,(1.0544208940658713e-14, 172.20000000000002),23,3,1,yes,x,5,x,0.9232839000178501,1,80,test1,1,0.923383700021077,-42.0
11,lsm,f,19,r,2,(-172.20000000000002, 2.1088417881317425e-14),25,25,4,yes,x,5,x,0.4177367999800481,1,81,test1,1,0.4179456999991089,-20.0
11,lsm,f,19,r,2,(121.76378772032346, -121.76378772032352),28,7,3,yes,x,5,x,0.5478556000161916,1,82,test1,1,0.5481378000113182,-38.0
11,lsm,f,19,r,2,(-3.163262682197613e-14, -172.20000000000002),27,-5,12,yes,x,5,x,0.5944970999844372,1,83,test1,1,0.594631899963133,-50.0
11,lsm,f,19,r,2,(-3.163262682197613e-14, -172.20000000000002),27,25,4,yes,x,5,x,0.3920081999967806,1,84,test1,1,0.3924976999987848,-20.0
11,lsm,f,19,r,2,(172.20000000000002, 0.0),21,7,3,yes,x,5,x,0.48242809996008873,1,85,test1,1,0.4828095000120811,-38.0
11,lsm,f,19,r,2,(1.0544208940658713e-14, 172.20000000000002),23,7,3,yes,x,5,x,0.43626129999756813,1,86,test1,1,0.43635859998175874,-38.0
11,lsm,f,19,r,2,(1.0544208940658713e-14, 172.20000000000002),23,-3,11,yes,x,5,x,0.6176554000121541,1,87,test1,1,0.6178824999951757,-48.0
11,lsm,f,19,r,2,(-172.20000000000002, 2.1088417881317425e-14),25,-5,12,yes,x,5,x,0.8156367999617942,1,88,test1,1,0.8157965000136755,-50.0
11,lsm,f,19,r,2,(172.20000000000002, 0.0),21,7,3,no,m,6,m,1.1229595000040717,1,89,test1,1,1.1235125999664888,-50.0
11,lsm,f,19,r,2,(121.76378772032346, -121.76378772032352),28,-7,13,no,m,6,x,1.4980924000265077,0,90,test1,1,1.4985536000458524,-50.0
11,lsm,f,19,r,2,(-121.76378772032348, 121.76378772032349),24,-3,11,no,m,6,m,1.173908600001596,1,91,test1,1,1.174159599991981,-50.0
11,lsm,f,19,r,2,(-121.76378772032348, 121.76378772032349),24,-25,14,yes,x,5,x,0.4178745000390336,1,92,test1,1,0.4180159999523312,-70.0
11,lsm,f,19,r,2,(172.20000000000002, 0.0),21,-25,14,yes,x,5,x,0.430698600015603,1,93,test1,1,0.4308270000037737,-70.0
11,lsm,f,19,r,2,(-3.163262682197613e-14, -172.20000000000002),27,-25,14,yes,x,5,x,0.4450859999633394,1,94,test1,1,0.44522769999457523,-70.0
11,lsm,f,19,r,2,(121.76378772032349, 121.76378772032349),22,25,4,yes,x,5,x,0.4329202999942936,1,95,test1,1,0.433543799968902,-20.0
11,lsm,f,19,r,2,(121.76378772032349, 121.76378772032349),22,-3,11,yes,x,5,x,0.7767889999668114,1,96,test1,1,0.776905499980785,-48.0
11,lsm,f,19,r,2,(121.76378772032349, 121.76378772032349),22,7,3,yes,x,5,x,0.49138129997299984,1,1,test2,1,0.491983900021296,-38.0
11,lsm,f,19,r,2,(1.0544208940658713e-14, 172.20000000000002),23,-7,13,yes,x,5,x,0.4611202999949455,1,2,test2,1,0.46133600000757724,-52.0
11,lsm,f,19,r,2,(1.0544208940658713e-14, 172.20000000000002),23,5,2,yes,x,5,x,0.5624142999877222,1,3,test2,1,0.5626564999693073,-40.0
11,lsm,f,19,r,2,(172.20000000000002, 0.0),21,-3,11,yes,x,5,x,1.2431268999935128,1,4,test2,1,1.2437931000022218,-48.0
11,lsm,f,19,r,2,(121.76378772032346, -121.76378772032352),28,5,2,yes,x,5,x,1.667813699983526,1,5,test2,1,1.6681257000309415,-40.0
11,lsm,f,19,r,2,(121.76378772032349, 121.76378772032349),22,-3,11,no,m,6,m,1.5195058999815956,1,6,test2,1,1.5196313999476843,-40.0
11,lsm,f,19,r,2,(121.76378772032346, -121.76378772032352),28,-25,14,yes,x,5,x,0.4594027000130154,1,7,test2,1,0.4595573000260629,-70.0
11,lsm,f,19,r,2,(121.76378772032346, -121.76378772032352),28,7,3,no,m,6,m,1.0978352000238374,1,8,test2,1,1.098601600038819,-70.0
11,lsm,f,19,r,2,(172.20000000000002, 0.0),21,3,1,yes,x,5,m,1.3092686999589205,0,9,test2,1,1.309371099981945,-42.0
11,lsm,f,19,r,2,(-121.76378772032348, 121.76378772032349),24,25,4,yes,x,5,x,0.4520211000344716,1,10,test2,1,0.45220549998339266,-20.0
11,lsm,f,19,r,2,(121.76378772032349, 121.76378772032349),22,-7,13,yes,x,5,x,0.5416745000402443,1,11,test2,1,0.5417820999864489,-52.0
11,lsm,f,19,r,2,(-172.20000000000002, 2.1088417881317425e-14),25,25,4,no,m,6,x,1.3236841000034474,0,12,test2,1,1.323930999962613,-52.0
11,lsm,f,19,r,2,(-172.20000000000002, 2.1088417881317425e-14),25,25,4,yes,x,5,x,0.43923829996492714,1,13,test2,1,0.43954219995066524,-20.0
11,lsm,f,19,r,2,(-172.20000000000002, 2.1088417881317425e-14),25,-7,13,yes,x,5,x,0.5238733000005595,1,14,test2,1,0.524004899954889,-52.0
11,lsm,f,19,r,2,(-121.76378772032352, -121.76378772032348),26,-7,13,yes,x,5,x,0.797194600047078,1,15,test2,1,0.7973848000401631,-52.0
11,lsm,f,19,r,2,(172.20000000000002, 0.0),21,25,4,no,m,6,m,1.5048622000031173,1,16,test2,1,1.5050853999564424,-52.0
11,lsm,f,19,r,2,(-172.20000000000002, 2.1088417881317425e-14),25,3,1,yes,x,5,x,0.4825776999932714,1,17,test2,1,0.4827394000021741,-42.0
11,lsm,f,19,r,2,(121.76378772032346, -121.76378772032352),28,3,1,no,m,6,m,0.895826899970416,1,18,test2,1,0.8960283999913372,-42.0
11,lsm,f,19,r,2,(-121.76378772032348, 121.76378772032349),24,7,3,yes,x,5,x,0.46198459999868646,1,19,test2,1,0.4620903999893926,-38.0
11,lsm,f,19,r,2,(-121.76378772032348, 121.76378772032349),24,3,1,yes,x,5,x,0.7511537999962457,1,20,test2,1,0.7512681999942288,-42.0
11,lsm,f,19,r,2,(-121.76378772032352, -121.76378772032348),26,25,4,no,m,6,m,0.9918545999680646,1,21,test2,1,0.9920838000252843,-42.0
11,lsm,f,19,r,2,(172.20000000000002, 0.0),21,-3,11,no,m,6,m,0.9867261000326835,1,22,test2,1,0.9869563999818638,-42.0
11,lsm,f,19,r,2,(1.0544208940658713e-14, 172.20000000000002),23,3,1,no,m,6,m,1.0152266999939457,1,23,test2,1,1.015320900012739,-42.0
11,lsm,f,19,r,2,(121.76378772032346, -121.76378772032352),28,25,4,yes,x,5,x,0.3681959999958053,1,24,test2,1,0.36858170002233237,-20.0
11,lsm,f,19,r,2,(121.76378772032346, -121.76378772032352),28,-25,14,yes,x,5,x,0.458054999995511,1,25,test2,1,0.45816680003190413,-70.0
11,lsm,f,19,r,2,(172.20000000000002, 0.0),21,5,2,no,m,6,m,0.8790804999880493,1,26,test2,1,0.8794425000087358,-70.0
11,lsm,f,19,r,2,(121.76378772032349, 121.76378772032349),22,-5,12,yes,x,5,x,0.5667726999963634,1,27,test2,1,0.5669115000055172,-50.0
11,lsm,f,19,r,2,(-172.20000000000002, 2.1088417881317425e-14),25,-7,13,no,m,6,m,1.2205559000140056,1,28,test2,1,1.2211078999680467,-50.0
11,lsm,f,19,r,2,(-172.20000000000002, 2.1088417881317425e-14),25,3,1,no,m,6,m,0.8201778000220656,1,29,test2,1,0.8204263999941759,-50.0
11,lsm,f,19,r,2,(121.76378772032346, -121.76378772032352),28,25,4,yes,x,5,x,0.4128661000286229,1,30,test2,1,0.4132882000412792,-20.0
11,lsm,f,19,r,2,(-121.76378772032348, 121.76378772032349),24,-5,12,yes,x,5,x,0.7159258999745362,1,31,test2,1,0.7165048000169918,-50.0
11,lsm,f,19,r,2,(1.0544208940658713e-14, 172.20000000000002),23,25,4,yes,x,5,x,0.38629960000980645,1,32,test2,1,0.3865862000384368,-20.0
11,lsm,f,19,r,2,(1.0544208940658713e-14, 172.20000000000002),23,-7,13,yes,x,5,x,0.45981540001230314,1,33,test2,1,0.45991610002238303,-52.0
11,lsm,f,19,r,2,(121.76378772032346, -121.76378772032352),28,-5,12,no,m,6,m,1.2592246999847703,1,34,test2,1,1.2593290999648161,-52.0
11,lsm,f,19,r,2,(1.0544208940658713e-14, 172.20000000000002),23,7,3,yes,x,5,x,0.4499149000039324,1,35,test2,1,0.4500234000151977,-38.0
11,lsm,f,19,r,2,(-172.20000000000002, 2.1088417881317425e-14),25,-3,11,yes,x,5,m,0.8279866000520997,0,36,test2,1,0.8282640999532305,-48.0
11,lsm,f,19,r,2,(-3.163262682197613e-14, -172.20000000000002),27,3,1,yes,x,5,x,1.0423889000085182,1,37,test2,1,1.0425079999840818,-42.0
11,lsm,f,19,r,2,(-3.163262682197613e-14, -172.20000000000002),27,3,1,no,m,6,m,1.0210149000049569,1,38,test2,1,1.021210000035353,-42.0
11,lsm,f,19,r,2,(172.20000000000002, 0.0),21,-7,13,no,m,6,m,0.7382298000156879,1,39,test2,1,0.7385010999860242,-42.0
11,lsm,f,19,r,2,(-172.20000000000002, 2.1088417881317425e-14),25,5,2,yes,x,5,x,0.5250773999723606,1,40,test2,1,0.5253096999949776,-40.0
11,lsm,f,19,r,2,(-3.163262682197613e-14, -172.20000000000002),27,-3,11,yes,x,5,m,0.8456031000241637,0,41,test2,1,0.8459864999749698,-48.0
11,lsm,f,19,r,2,(-121.76378772032348, 121.76378772032349),24,-3,11,yes,x,5,x,1.005943699972704,1,42,test2,1,1.0063895999919623,-48.0
11,lsm,f,19,r,2,(121.76378772032349, 121.76378772032349),22,25,4,yes,x,5,x,0.38964429998304695,1,43,test2,1,0.3901177999796346,-20.0
11,lsm,f,19,r,2,(-121.76378772032352, -121.76378772032348),26,7,3,yes,x,5,x,0.46981700003379956,1,44,test2,1,0.47004159999778494,-38.0
11,lsm,f,19,r,2,(1.0544208940658713e-14, 172.20000000000002),23,-7,13,no,m,6,m,0.9740090999985114,1,45,test2,1,0.974173599970527,-38.0
11,lsm,f,19,r,2,(-3.163262682197613e-14, -172.20000000000002),27,7,3,yes,x,5,x,0.4915356999845244,1,46,test2,1,0.49201149999862537,-38.0
11,lsm,f,19,r,2,(-121.76378772032352, -121.76378772032348),26,-3,11,no,m,6,m,1.3272175999591127,1,47,test2,1,1.3275878999847919,-38.0
11,lsm,f,19,r,2,(-3.163262682197613e-14, -172.20000000000002),27,7,3,yes,x,5,x,0.42074989998945966,1,48,test2,1,0.42102409998187795,-38.0
11,lsm,f,19,r,2,(121.76378772032349, 121.76378772032349),22,7,3,yes,x,5,x,0.41631000000052154,1,49,test2,1,0.41642900003353134,-38.0
11,lsm,f,19,r,2,(121.76378772032349, 121.76378772032349),22,-25,14,yes,x,5,x,0.3874698000145145,1,50,test2,1,0.3877210000064224,-70.0
11,lsm,f,19,r,2,(-121.76378772032352, -121.76378772032348),26,-5,12,no,m,6,x,1.0956798000261188,0,51,test2,1,1.0959984000073746,-70.0
11,lsm,f,19,r,2,(121.76378772032349, 121.76378772032349),22,5,2,no,m,6,m,0.9616800000076182,1,52,test2,1,0.9618090000003576,-70.0
11,lsm,f,19,r,2,(-121.76378772032352, -121.76378772032348),26,-25,14,yes,x,5,x,0.6439981000148691,1,53,test2,1,0.6441607999731787,-70.0
11,lsm,f,19,r,2,(1.0544208940658713e-14, 172.20000000000002),23,5,2,yes,x,5,x,0.5231589999748394,1,54,test2,1,0.5232608999940567,-40.0
11,lsm,f,19,r,2,(-3.163262682197613e-14, -172.20000000000002),27,3,1,yes,x,5,m,0.8999820000026375,0,55,test2,1,0.9003711999976076,-42.0
11,lsm,f,19,r,2,(-121.76378772032352, -121.76378772032348),26,7,3,no,m,6,m,1.5399884000071324,1,56,test2,1,1.540268799988553,-42.0
11,lsm,f,19,r,2,(1.0544208940658713e-14, 172.20000000000002),23,-25,14,yes,x,5,x,0.3716005000169389,1,57,test2,1,0.37234910001279786,-70.0
11,lsm,f,19,r,2,(-172.20000000000002, 2.1088417881317425e-14),25,3,1,yes,x,5,m,0.8683014999842271,0,58,test2,1,0.8684014999889769,-42.0
11,lsm,f,19,r,2,(121.76378772032349, 121.76378772032349),22,-5,12,yes,x,5,x,0.5735475000110455,1,59,test2,1,0.5738699999637902,-50.0
11,lsm,f,19,r,2,(1.0544208940658713e-14, 172.20000000000002),23,-25,14,no,m,6,m,1.7141587000223808,1,60,test2,1,1.7145689000026323,-50.0
11,lsm,f,19,r,2,(-3.163262682197613e-14, -172.20000000000002),27,-7,13,yes,x,5,x,0.5810369999962859,1,61,test2,1,0.5811808999860659,-52.0
11,lsm,f,19,r,2,(-121.76378772032348, 121.76378772032349),24,-7,13,yes,x,5,x,0.42772530001820996,1,62,test2,1,0.42814249999355525,-52.0
11,lsm,f,19,r,2,(121.76378772032346, -121.76378772032352),28,-5,12,yes,x,5,x,1.1185924999881536,1,63,test2,1,1.1186897000297904,-50.0
11,lsm,f,19,r,2,(172.20000000000002, 0.0),21,25,4,yes,x,5,x,0.4224736000178382,1,64,test2,1,0.42273869999917224,-20.0
11,lsm,f,19,r,2,(-3.163262682197613e-14, -172.20000000000002),27,-25,14,yes,x,5,x,0.35893660003785044,1,65,test2,1,0.3594920999603346,-70.0
11,lsm,f,19,r,2,(121.76378772032346, -121.76378772032352),28,-7,13,yes,x,5,x,0.5659538999898359,1,66,test2,1,0.566166200034786,-52.0
11,lsm,f,19,r,2,(121.76378772032349, 121.76378772032349),22,3,1,no,m,6,x,0.8768604000215419,0,67,test2,1,0.8772722999565303,-52.0
11,lsm,f,19,r,2,(121.76378772032346, -121.76378772032352),28,5,2,yes,x,5,x,0.521346400026232,1,68,test2,1,0.5216326999943703,-40.0
11,lsm,f,19,r,2,(121.76378772032349, 121.76378772032349),22,5,2,yes,x,5,x,1.114965399960056,1,69,test2,1,1.1150758999865502,-40.0
11,lsm,f,19,r,2,(-172.20000000000002, 2.1088417881317425e-14),25,-25,14,no,m,6,None,None,0,70,test2,1,1.9800801000092179,-40.0
11,lsm,f,19,r,2,(-3.163262682197613e-14, -172.20000000000002),27,-3,11,yes,x,5,x,0.8868150999769568,1,71,test2,1,0.8869166999938898,-48.0
11,lsm,f,19,r,2,(-121.76378772032348, 121.76378772032349),24,3,1,no,m,6,m,0.9690682999789715,1,72,test2,1,0.9691680999821983,-48.0
11,lsm,f,19,r,2,(1.0544208940658713e-14, 172.20000000000002),23,25,4,no,m,6,x,0.7955608000047505,0,73,test2,1,0.7958407000405714,-48.0
11,lsm,f,19,r,2,(1.0544208940658713e-14, 172.20000000000002),23,25,4,yes,x,5,x,0.4577690999722108,1,74,test2,1,0.4582279999740422,-20.0
11,lsm,f,19,r,2,(1.0544208940658713e-14, 172.20000000000002),23,-3,11,no,m,6,m,1.5501151999924332,1,75,test2,1,1.5503497999743558,-20.0
11,lsm,f,19,r,2,(-3.163262682197613e-14, -172.20000000000002),27,-7,13,yes,x,5,x,0.8889653000514954,1,76,test2,1,0.8892499000066891,-52.0
11,lsm,f,19,r,2,(-121.76378772032348, 121.76378772032349),24,5,2,yes,x,5,x,1.2203280999674462,1,77,test2,1,1.2205339999636635,-40.0
11,lsm,f,19,r,2,(-121.76378772032352, -121.76378772032348),26,-3,11,yes,x,5,x,0.9422502999659628,1,78,test2,1,0.9424612000002526,-48.0
11,lsm,f,19,r,2,(-121.76378772032352, -121.76378772032348),26,5,2,yes,x,5,x,0.577697700005956,1,79,test2,1,0.5780747999669984,-40.0
11,lsm,f,19,r,2,(-121.76378772032352, -121.76378772032348),26,3,1,yes,x,5,x,0.6203859999659471,1,80,test2,1,0.6205135000054725,-42.0
11,lsm,f,19,r,2,(172.20000000000002, 0.0),21,3,1,yes,x,5,m,1.4033373999991454,0,81,test2,1,1.403496500046458,-42.0
11,lsm,f,19,r,2,(172.20000000000002, 0.0),21,-25,14,yes,x,5,x,0.42295779997948557,1,82,test2,1,0.423350999946706,-70.0
11,lsm,f,19,r,2,(1.0544208940658713e-14, 172.20000000000002),23,-5,12,no,m,6,m,0.8194178999983706,1,83,test2,1,0.8195166999939829,-70.0
11,lsm,f,19,r,2,(-121.76378772032348, 121.76378772032349),24,-7,13,yes,x,5,x,0.3557440000004135,1,84,test2,1,0.3558598999516107,-52.0
11,lsm,f,19,r,2,(121.76378772032346, -121.76378772032352),28,-3,11,yes,x,5,m,0.7478561000316404,0,85,test2,1,0.7479939999757335,-48.0
11,lsm,f,19,r,2,(172.20000000000002, 0.0),21,5,2,yes,x,5,x,1.0180449999752454,1,86,test2,1,1.018481699982658,-40.0
11,lsm,f,19,r,2,(1.0544208940658713e-14, 172.20000000000002),23,-5,12,yes,x,5,x,0.6647792999865487,1,87,test2,1,0.6648881000000983,-50.0
11,lsm,f,19,r,2,(172.20000000000002, 0.0),21,5,2,yes,x,5,x,0.9021659000427462,1,88,test2,1,0.9023930999683216,-40.0
11,lsm,f,19,r,2,(-121.76378772032348, 121.76378772032349),24,-7,13,no,m,6,m,1.2204343000194058,1,89,test2,1,1.220652699994389,-40.0
11,lsm,f,19,r,2,(1.0544208940658713e-14, 172.20000000000002),23,-25,14,yes,x,5,x,0.5146004999987781,1,90,test2,1,0.5149595000548288,-70.0
11,lsm,f,19,r,2,(121.76378772032349, 121.76378772032349),22,25,4,no,m,6,m,0.805612399999518,1,91,test2,1,0.8058076999732293,-70.0
11,lsm,f,19,r,2,(-121.76378772032352, -121.76378772032348),26,25,4,yes,x,5,x,0.3719372999621555,1,92,test2,1,0.372038799978327,-20.0
11,lsm,f,19,r,2,(-3.163262682197613e-14, -172.20000000000002),27,-25,14,no,m,6,m,0.8049101000069641,1,93,test2,1,0.8052477000164799,-20.0
11,lsm,f,19,r,2,(-121.76378772032348, 121.76378772032349),24,25,4,yes,x,5,x,0.4119813999859616,1,94,test2,1,0.4126125000184402,-20.0
11,lsm,f,19,r,2,(121.76378772032346, -121.76378772032352),28,-7,13,yes,x,5,x,0.7513029000256211,1,95,test2,1,0.7514382000081241,-52.0
11,lsm,f,19,r,2,(-172.20000000000002, 2.1088417881317425e-14),25,5,2,yes,x,5,x,0.4163240999914706,1,96,test2,1,0.4166366000426933,-40.0
11,lsm,f,19,r,2,(-121.76378772032352, -121.76378772032348),26,-25,14,no,m,6,m,1.2826716999989003,1,1,test1,2,1.2829574000206776,-40.0
11,lsm,f,19,r,2,(-121.76378772032352, -121.76378772032348),26,7,3,yes,x,5,x,0.3905835999757983,1,2,test1,2,0.39071639999747276,-38.0
11,lsm,f,19,r,2,(-172.20000000000002, 2.1088417881317425e-14),25,-25,14,yes,x,5,x,0.366276899992954,1,3,test1,2,0.36640419997274876,-70.0
11,lsm,f,19,r,2,(-3.163262682197613e-14, -172.20000000000002),27,-5,12,no,m,6,m,0.8465741999680176,1,4,test1,2,0.8467963999719359,-70.0
11,lsm,f,19,r,2,(-172.20000000000002, 2.1088417881317425e-14),25,-25,14,yes,x,5,x,0.3686751999775879,1,5,test1,2,0.3689216999919154,-70.0
11,lsm,f,19,r,2,(-121.76378772032348, 121.76378772032349),24,-5,12,no,m,6,m,0.7669097000034526,1,6,test1,2,0.7670095999492332,-70.0
11,lsm,f,19,r,2,(121.76378772032346, -121.76378772032352),28,-25,14,no,m,6,m,1.4601206999504939,1,7,test1,2,1.460224999987986,-70.0
11,lsm,f,19,r,2,(1.0544208940658713e-14, 172.20000000000002),23,3,1,yes,x,5,x,0.7944319999660365,1,8,test1,2,0.7948060999624431,-42.0
11,lsm,f,19,r,2,(-121.76378772032352, -121.76378772032348),26,-7,13,no,m,6,m,0.8902872999897227,1,9,test1,2,0.8903898000135086,-42.0
11,lsm,f,19,r,2,(121.76378772032346, -121.76378772032352),28,25,4,no,m,6,x,1.1554512999719009,0,10,test1,2,1.1555511999758892,-42.0
11,lsm,f,19,r,2,(-121.76378772032348, 121.76378772032349),24,5,2,yes,x,5,x,0.49802009999984875,1,11,test1,2,0.4982598000206053,-40.0
11,lsm,f,19,r,2,(-121.76378772032352, -121.76378772032348),26,5,2,yes,x,5,x,0.5508343999972567,1,12,test1,2,0.5511148000368848,-40.0
11,lsm,f,19,r,2,(121.76378772032349, 121.76378772032349),22,-25,14,yes,x,5,x,0.546067800023593,1,13,test1,2,0.546167400025297,-70.0
11,lsm,f,19,r,2,(172.20000000000002, 0.0),21,-7,13,yes,x,5,x,0.4454530000220984,1,14,test1,2,0.44577050005318597,-52.0
11,lsm,f,19,r,2,(172.20000000000002, 0.0),21,-3,11,yes,x,5,x,0.8584456000244245,1,15,test1,2,0.8587009999901056,-48.0
11,lsm,f,19,r,2,(-3.163262682197613e-14, -172.20000000000002),27,7,3,no,m,6,m,1.26781970000593,1,16,test1,2,1.2679257999989204,-48.0
11,lsm,f,19,r,2,(-121.76378772032348, 121.76378772032349),24,3,1,yes,x,5,x,0.6706638999748975,1,17,test1,2,0.6707903000060469,-42.0
11,lsm,f,19,r,2,(-3.163262682197613e-14, -172.20000000000002),27,-7,13,no,m,6,x,0.8976536999689415,0,18,test1,2,0.8977638999931514,-42.0
11,lsm,f,19,r,2,(-121.76378772032348, 121.76378772032349),24,-5,12,yes,x,5,x,0.46883269998943433,1,19,test1,2,0.46911399997770786,-50.0
11,lsm,f,19,r,2,(-121.76378772032348, 121.76378772032349),24,5,2,no,m,6,m,0.8262620999594219,1,20,test1,2,0.8264114999910817,-50.0
11,lsm,f,19,r,2,(1.0544208940658713e-14, 172.20000000000002),23,7,3,no,m,6,m,1.2944388999603689,1,21,test1,2,1.294554399966728,-50.0
11,lsm,f,19,r,2,(-121.76378772032348, 121.76378772032349),24,-3,11,yes,x,5,m,0.6460347999818623,0,22,test1,2,0.6463441000087187,-48.0
11,lsm,f,19,r,2,(-121.76378772032352, -121.76378772032348),26,5,2,no,m,6,m,0.6510781000251882,1,23,test1,2,0.6511973000015132,-48.0
11,lsm,f,19,r,2,(121.76378772032346, -121.76378772032352),28,7,3,yes,x,5,x,0.4896599000203423,1,24,test1,2,0.48975470004370436,-38.0
11,lsm,f,19,r,2,(121.76378772032346, -121.76378772032352),28,5,2,no,m,6,m,0.6821797000011429,1,25,test1,2,0.6827756999991834,-38.0
11,lsm,f,19,r,2,(121.76378772032349, 121.76378772032349),22,-3,11,yes,x,5,None,None,0,26,test1,2,1.9800969999632798,-48.0
11,lsm,f,19,r,2,(-3.163262682197613e-14, -172.20000000000002),27,-5,12,yes,x,5,x,0.4083657000446692,1,27,test1,2,0.40846579999197274,-50.0
11,lsm,f,19,r,2,(172.20000000000002, 0.0),21,-5,12,yes,x,5,x,0.5113381000119261,1,28,test1,2,0.5115705000353046,-50.0
11,lsm,f,19,r,2,(1.0544208940658713e-14, 172.20000000000002),23,-5,12,yes,x,5,x,0.5043832999654114,1,29,test1,2,0.5044791999971494,-50.0
11,lsm,f,19,r,2,(-121.76378772032348, 121.76378772032349),24,25,4,no,m,6,m,1.0688086000154726,1,30,test1,2,1.069104199996218,-50.0
11,lsm,f,19,r,2,(-121.76378772032352, -121.76378772032348),26,-7,13,yes,x,5,x,0.5334612000151537,1,31,test1,2,0.534016799996607,-52.0
11,lsm,f,19,r,2,(-3.163262682197613e-14, -172.20000000000002),27,5,2,yes,x,5,x,0.4540036999969743,1,32,test1,2,0.4542815000168048,-40.0
11,lsm,f,19,r,2,(-172.20000000000002, 2.1088417881317425e-14),25,5,2,no,m,6,m,0.7542314999736845,1,33,test1,2,0.7544560999958776,-40.0
11,lsm,f,19,r,2,(121.76378772032346, -121.76378772032352),28,-3,11,no,m,6,m,0.6278415999840945,1,34,test1,2,0.6282397999893874,-40.0
11,lsm,f,19,r,2,(121.76378772032349, 121.76378772032349),22,-7,13,yes,x,5,x,0.45833749999292195,1,35,test1,2,0.45846769999479875,-52.0
11,lsm,f,19,r,2,(-172.20000000000002, 2.1088417881317425e-14),25,-3,11,yes,x,5,m,0.8505342999706045,0,36,test1,2,0.8508572999853641,-48.0
11,lsm,f,19,r,2,(172.20000000000002, 0.0),21,-5,12,yes,x,5,x,0.5359550000284798,1,37,test1,2,0.5361094000400044,-50.0
11,lsm,f,19,r,2,(-3.163262682197613e-14, -172.20000000000002),27,25,4,yes,x,5,x,0.4100336999981664,1,38,test1,2,0.4101639000000432,-20.0
11,lsm,f,19,r,2,(172.20000000000002, 0.0),21,-7,13,yes,x,5,x,0.48546380002517253,1,39,test1,2,0.48562490002950653,-52.0
11,lsm,f,19,r,2,(-121.76378772032348, 121.76378772032349),24,7,3,no,m,6,m,1.0800011999672279,1,40,test1,2,1.0801010999712162,-52.0
11,lsm,f,19,r,2,(-3.163262682197613e-14, -172.20000000000002),27,5,2,no,m,6,m,0.6566210000310093,1,41,test1,2,0.6567492000176571,-52.0
11,lsm,f,19,r,2,(121.76378772032349, 121.76378772032349),22,3,1,yes,x,5,x,0.7396456000278704,1,42,test1,2,0.7397698999848217,-42.0
11,lsm,f,19,r,2,(172.20000000000002, 0.0),21,3,1,no,m,6,m,0.6920371999731287,1,43,test1,2,0.6926657000440173,-42.0
11,lsm,f,19,r,2,(-121.76378772032348, 121.76378772032349),24,-25,14,no,m,6,m,0.847940000006929,1,44,test1,2,0.8481679999968037,-42.0
11,lsm,f,19,r,2,(-172.20000000000002, 2.1088417881317425e-14),25,-5,12,no,m,6,m,0.6018705000169575,1,45,test1,2,0.602004999993369,-42.0
11,lsm,f,19,r,2,(121.76378772032349, 121.76378772032349),22,-7,13,no,m,6,m,0.9363846000051126,1,46,test1,2,0.9369088999810629,-42.0
11,lsm,f,19,r,2,(121.76378772032349, 121.76378772032349),22,5,2,yes,x,5,x,0.5270228000008501,1,47,test1,2,0.5271206999896094,-40.0
11,lsm,f,19,r,2,(-3.163262682197613e-14, -172.20000000000002),27,-3,11,no,m,6,m,0.7389050000347197,1,48,test1,2,0.7392136999987997,-40.0
11,lsm,f,19,r,2,(121.76378772032346, -121.76378772032352),28,3,1,yes,x,5,m,0.6283649000106379,0,49,test1,2,0.6287875000271015,-42.0
11,lsm,f,19,r,2,(-3.163262682197613e-14, -172.20000000000002),27,25,4,no,m,6,m,0.6176262000226416,1,50,test1,2,0.618229000014253,-42.0
11,lsm,f,19,r,2,(121.76378772032346, -121.76378772032352),28,3,1,yes,x,5,m,0.8356147999875247,0,51,test1,2,0.8358700000098906,-42.0
11,lsm,f,19,r,2,(-121.76378772032352, -121.76378772032348),26,25,4,yes,x,5,x,0.4125324999913573,1,52,test1,2,0.4126641000038944,-20.0
11,lsm,f,19,r,2,(-121.76378772032352, -121.76378772032348),26,-5,12,yes,x,5,x,0.5437053000205196,1,53,test1,2,0.543809599999804,-50.0
11,lsm,f,19,r,2,(-172.20000000000002, 2.1088417881317425e-14),25,7,3,no,m,6,m,0.5723200000356883,1,54,test1,2,0.5727802999899723,-50.0
11,lsm,f,19,r,2,(-121.76378772032348, 121.76378772032349),24,7,3,yes,x,5,x,0.4220305999624543,1,55,test1,2,0.4223327999934554,-38.0
11,lsm,f,19,r,2,(-121.76378772032352, -121.76378772032348),26,3,1,yes,x,5,x,0.6692614000057802,1,56,test1,2,0.6695649999892339,-42.0
11,lsm,f,19,r,2,(1.0544208940658713e-14, 172.20000000000002),23,-3,11,yes,x,5,m,0.6705294999992475,0,57,test1,2,0.6707596000051126,-48.0
11,lsm,f,19,r,2,(-172.20000000000002, 2.1088417881317425e-14),25,7,3,yes,x,5,x,0.38931489997776225,1,58,test1,2,0.3894288000301458,-38.0
11,lsm,f,19,r,2,(121.76378772032346, -121.76378772032352),28,-5,12,yes,x,5,m,0.8246616999967955,0,59,test1,2,0.8249014000175521,-50.0
11,lsm,f,19,r,2,(172.20000000000002, 0.0),21,-5,12,no,m,6,m,0.8479541999986395,1,60,test1,2,0.8480741999810562,-50.0
11,lsm,f,19,r,2,(-3.163262682197613e-14, -172.20000000000002),27,5,2,yes,x,5,x,0.5689448000048287,1,61,test1,2,0.5690650999895297,-40.0
11,lsm,f,19,r,2,(172.20000000000002, 0.0),21,25,4,yes,x,5,x,0.459934999991674,1,62,test1,2,0.4601923999725841,-20.0
11,lsm,f,19,r,2,(-121.76378772032352, -121.76378772032348),26,3,1,no,m,6,m,0.809156899980735,1,63,test1,2,0.8092582999961451,-20.0
11,lsm,f,19,r,2,(121.76378772032349, 121.76378772032349),22,-25,14,no,m,6,m,0.6542903999798,1,64,test1,2,0.6547385000158101,-20.0
11,lsm,f,19,r,2,(-172.20000000000002, 2.1088417881317425e-14),25,7,3,yes,x,5,x,0.38121329998830333,1,65,test1,2,0.3813718000310473,-38.0
11,lsm,f,19,r,2,(121.76378772032349, 121.76378772032349),22,3,1,yes,x,5,x,0.8090662999893539,1,66,test1,2,0.8093773999717087,-42.0
11,lsm,f,19,r,2,(121.76378772032349, 121.76378772032349),22,7,3,no,m,6,m,0.6763364000362344,1,67,test1,2,0.6769530000165105,-42.0
11,lsm,f,19,r,2,(1.0544208940658713e-14, 172.20000000000002),23,5,2,no,m,6,m,0.5941271000192501,1,68,test1,2,0.5942300999886356,-42.0
11,lsm,f,19,r,2,(121.76378772032346, -121.76378772032352),28,-3,11,yes,x,5,x,0.4215620000031777,1,69,test1,2,0.42165939998812973,-48.0
11,lsm,f,19,r,2,(-121.76378772032352, -121.76378772032348),26,-3,11,yes,x,5,m,0.7298486999934539,0,70,test1,2,0.7299516000202857,-48.0
11,lsm,f,19,r,2,(172.20000000000002, 0.0),21,-25,14,no,m,6,m,0.7576584999915212,1,71,test1,2,0.7580458999727853,-48.0
11,lsm,f,19,r,2,(-172.20000000000002, 2.1088417881317425e-14),25,-5,12,yes,x,5,x,0.44406199996592477,1,72,test1,2,0.44418819999555126,-50.0
11,lsm,f,19,r,2,(-172.20000000000002, 2.1088417881317425e-14),25,-7,13,yes,x,5,x,0.43421330000273883,1,73,test1,2,0.4346549999900162,-52.0
11,lsm,f,19,r,2,(-172.20000000000002, 2.1088417881317425e-14),25,-3,11,no,m,6,x,0.7417818999965675,0,74,test1,2,0.7419024999835528,-52.0
11,lsm,f,19,r,2,(-121.76378772032348, 121.76378772032349),24,-25,14,yes,x,5,x,0.43164450000040233,1,75,test1,2,0.43181039998307824,-70.0
11,lsm,f,19,r,2,(-121.76378772032352, -121.76378772032348),26,-25,14,yes,x,5,x,0.44457240001065657,1,76,test1,2,0.44469789997674525,-70.0
11,lsm,f,19,r,2,(-121.76378772032352, -121.76378772032348),26,-5,12,yes,x,5,x,0.4054953000159003,1,77,test1,2,0.4056137999868952,-50.0
11,lsm,f,19,r,2,(121.76378772032349, 121.76378772032349),22,-5,12,no,m,6,m,0.6720484999823384,1,78,test1,2,0.6721624999772757,-50.0
11,lsm,f,19,r,2,(172.20000000000002, 0.0),21,7,3,yes,x,5,x,0.46906759997364134,1,79,test1,2,0.4691781000001356,-38.0
11,lsm,f,19,r,2,(1.0544208940658713e-14, 172.20000000000002),23,3,1,yes,x,5,x,0.5882794000208378,1,80,test1,2,0.5883807999780402,-42.0
11,lsm,f,19,r,2,(-172.20000000000002, 2.1088417881317425e-14),25,25,4,yes,x,5,x,0.361471000011079,1,81,test1,2,0.3615688999998383,-20.0
11,lsm,f,19,r,2,(121.76378772032346, -121.76378772032352),28,7,3,yes,x,5,x,0.6299515999853611,1,82,test1,2,0.6303889999981038,-38.0
11,lsm,f,19,r,2,(-3.163262682197613e-14, -172.20000000000002),27,-5,12,yes,x,5,x,0.3669422999955714,1,83,test1,2,0.36703889997443184,-50.0
11,lsm,f,19,r,2,(-3.163262682197613e-14, -172.20000000000002),27,25,4,yes,x,5,x,0.3947012999560684,1,84,test1,2,0.39482659997884184,-20.0
11,lsm,f,19,r,2,(172.20000000000002, 0.0),21,7,3,yes,x,5,x,0.42387120000785217,1,85,test1,2,0.4246387999737635,-38.0
11,lsm,f,19,r,2,(1.0544208940658713e-14, 172.20000000000002),23,7,3,yes,x,5,x,0.37877100001787767,1,86,test1,2,0.3790327999740839,-38.0
11,lsm,f,19,r,2,(1.0544208940658713e-14, 172.20000000000002),23,-3,11,yes,x,5,x,0.5518475999706425,1,87,test1,2,0.5519458999624476,-48.0
11,lsm,f,19,r,2,(-172.20000000000002, 2.1088417881317425e-14),25,-5,12,yes,x,5,x,0.48261920001823455,1,88,test1,2,0.48288440000033006,-50.0
11,lsm,f,19,r,2,(172.20000000000002, 0.0),21,7,3,no,m,6,x,0.8843827999662608,0,89,test1,2,0.8845239000511356,-50.0
11,lsm,f,19,r,2,(121.76378772032346, -121.76378772032352),28,-7,13,no,m,6,x,0.3810101000126451,0,90,test1,2,0.38137350004399195,-50.0
11,lsm,f,19,r,2,(-121.76378772032348, 121.76378772032349),24,-3,11,no,m,6,m,0.7604205000097863,1,91,test1,2,0.7605771999806166,-50.0
11,lsm,f,19,r,2,(-121.76378772032348, 121.76378772032349),24,-25,14,yes,x,5,x,0.502699600008782,1,92,test1,2,0.5029153000214137,-70.0
11,lsm,f,19,r,2,(172.20000000000002, 0.0),21,-25,14,yes,x,5,x,0.40522049996070564,1,93,test1,2,0.4054133999743499,-70.0
11,lsm,f,19,r,2,(-3.163262682197613e-14, -172.20000000000002),27,-25,14,yes,x,5,x,0.4192685000016354,1,94,test1,2,0.41936549998354167,-70.0
11,lsm,f,19,r,2,(121.76378772032349, 121.76378772032349),22,25,4,yes,x,5,x,0.41708700003800914,1,95,test1,2,0.4174061000230722,-20.0
11,lsm,f,19,r,2,(121.76378772032349, 121.76378772032349),22,-3,11,yes,x,5,x,0.7525685000000522,1,96,test1,2,0.7528950999840163,-48.0
11,lsm,f,19,r,2,(121.76378772032349, 121.76378772032349),22,7,3,yes,x,5,x,0.40405210002791137,1,1,test2,2,0.4041549999965355,-38.0
11,lsm,f,19,r,2,(1.0544208940658713e-14, 172.20000000000002),23,-7,13,yes,x,5,x,0.4175052000209689,1,2,test2,2,0.41780220001237467,-52.0
11,lsm,f,19,r,2,(1.0544208940658713e-14, 172.20000000000002),23,5,2,yes,x,5,x,0.39720170001965016,1,3,test2,2,0.3973007000167854,-40.0
11,lsm,f,19,r,2,(172.20000000000002, 0.0),21,-3,11,yes,x,5,m,0.6806143000139855,0,4,test2,2,0.6810152000398375,-48.0
11,lsm,f,19,r,2,(121.76378772032346, -121.76378772032352),28,5,2,yes,x,5,x,0.7842250000103377,1,5,test2,2,0.7848358000046574,-40.0
11,lsm,f,19,r,2,(121.76378772032349, 121.76378772032349),22,-3,11,no,m,6,m,0.6123438000213355,1,6,test2,2,0.6124716000049375,-40.0
11,lsm,f,19,r,2,(121.76378772032346, -121.76378772032352),28,-25,14,yes,x,5,x,0.4226753000402823,1,7,test2,2,0.42309240001486614,-70.0
11,lsm,f,19,r,2,(121.76378772032346, -121.76378772032352),28,7,3,no,m,6,m,0.6888819999876432,1,8,test2,2,0.6896230999846011,-70.0
11,lsm,f,19,r,2,(172.20000000000002, 0.0),21,3,1,yes,x,5,x,0.5865518999635242,1,9,test2,2,0.5870179999619722,-42.0
11,lsm,f,19,r,2,(-121.76378772032348, 121.76378772032349),24,25,4,yes,x,5,x,0.43862160004209727,1,10,test2,2,0.43879630003357306,-20.0
11,lsm,f,19,r,2,(121.76378772032349, 121.76378772032349),22,-7,13,yes,x,5,x,0.47650479996809736,1,11,test2,2,0.4766031000181101,-52.0
11,lsm,f,19,r,2,(-172.20000000000002, 2.1088417881317425e-14),25,25,4,no,m,6,m,0.9019393000053242,1,12,test2,2,0.9024464999674819,-52.0
11,lsm,f,19,r,2,(-172.20000000000002, 2.1088417881317425e-14),25,25,4,yes,x,5,x,0.4636354999965988,1,13,test2,2,0.4640223999740556,-20.0
11,lsm,f,19,r,2,(-172.20000000000002, 2.1088417881317425e-14),25,-7,13,yes,x,5,x,0.6924398000119254,1,14,test2,2,0.6926484999712557,-52.0
11,lsm,f,19,r,2,(-121.76378772032352, -121.76378772032348),26,-7,13,yes,x,5,x,0.41413920000195503,1,15,test2,2,0.4145378999528475,-52.0
11,lsm,f,19,r,2,(172.20000000000002, 0.0),21,25,4,no,m,6,m,0.7939569000154734,1,16,test2,2,0.7941896000411361,-52.0
11,lsm,f,19,r,2,(-172.20000000000002, 2.1088417881317425e-14),25,3,1,yes,x,5,m,0.8867942999931984,0,17,test2,2,0.8868971999618225,-42.0
11,lsm,f,19,r,2,(121.76378772032346, -121.76378772032352),28,3,1,no,m,6,m,1.1675318999914452,1,18,test2,2,1.1676639000070281,-42.0
11,lsm,f,19,r,2,(-121.76378772032348, 121.76378772032349),24,7,3,yes,x,5,x,0.4093280000379309,1,19,test2,2,0.4096193999866955,-38.0
11,lsm,f,19,r,2,(-121.76378772032348, 121.76378772032349),24,3,1,yes,x,5,x,0.5469844000181183,1,20,test2,2,0.5470858999760821,-42.0
11,lsm,f,19,r,2,(-121.76378772032352, -121.76378772032348),26,25,4,no,m,6,m,0.7048468999564648,1,21,test2,2,0.7050375000108033,-42.0
11,lsm,f,19,r,2,(172.20000000000002, 0.0),21,-3,11,no,m,6,m,0.631304899987299,1,22,test2,2,0.6318761000293307,-42.0
11,lsm,f,19,r,2,(1.0544208940658713e-14, 172.20000000000002),23,3,1,no,m,6,m,0.638065800012555,1,23,test2,2,0.6386215999955311,-42.0
11,lsm,f,19,r,2,(121.76378772032346, -121.76378772032352),28,25,4,yes,x,5,x,0.4670469000120647,1,24,test2,2,0.46733660000609234,-20.0
11,lsm,f,19,r,2,(121.76378772032346, -121.76378772032352),28,-25,14,yes,x,5,x,0.42905470001278445,1,25,test2,2,0.42917939997278154,-70.0
11,lsm,f,19,r,2,(172.20000000000002, 0.0),21,5,2,no,m,6,m,1.1322283000336029,1,26,test2,2,1.1323305999976583,-70.0
11,lsm,f,19,r,2,(121.76378772032349, 121.76378772032349),22,-5,12,yes,x,5,x,0.6548132000025362,1,27,test2,2,0.6549942999845371,-50.0
11,lsm,f,19,r,2,(-172.20000000000002, 2.1088417881317425e-14),25,-7,13,no,m,6,m,0.6065567000187002,1,28,test2,2,0.6069328999728896,-50.0
11,lsm,f,19,r,2,(-172.20000000000002, 2.1088417881317425e-14),25,3,1,no,m,6,m,0.7426948000211269,1,29,test2,2,0.7428136999951676,-50.0
11,lsm,f,19,r,2,(121.76378772032346, -121.76378772032352),28,25,4,yes,x,5,x,0.48536890000104904,1,30,test2,2,0.485880599997472,-20.0
11,lsm,f,19,r,2,(-121.76378772032348, 121.76378772032349),24,-5,12,yes,x,5,x,0.4876548000029288,1,31,test2,2,0.487758900038898,-50.0
11,lsm,f,19,r,2,(1.0544208940658713e-14, 172.20000000000002),23,25,4,yes,x,5,x,0.4380483999848366,1,32,test2,2,0.4382478999905288,-20.0
11,lsm,f,19,r,2,(1.0544208940658713e-14, 172.20000000000002),23,-7,13,yes,x,5,x,0.4516728000016883,1,33,test2,2,0.45188889995915815,-52.0
11,lsm,f,19,r,2,(121.76378772032346, -121.76378772032352),28,-5,12,no,m,6,m,0.7104628999950364,1,34,test2,2,0.7107764999964274,-52.0
11,lsm,f,19,r,2,(1.0544208940658713e-14, 172.20000000000002),23,7,3,yes,x,5,x,0.5560811999603175,1,35,test2,2,0.5561818999703974,-38.0
11,lsm,f,19,r,2,(-172.20000000000002, 2.1088417881317425e-14),25,-3,11,yes,x,5,m,0.8452179000014439,0,36,test2,2,0.8454208000330254,-48.0
11,lsm,f,19,r,2,(-3.163262682197613e-14, -172.20000000000002),27,3,1,yes,x,5,m,1.0178713999921456,0,37,test2,2,1.0180986000341363,-42.0
11,lsm,f,19,r,2,(-3.163262682197613e-14, -172.20000000000002),27,3,1,no,m,6,m,0.6520681999973021,1,38,test2,2,0.6521709999651648,-42.0
11,lsm,f,19,r,2,(172.20000000000002, 0.0),21,-7,13,no,m,6,m,0.5186701000202447,1,39,test2,2,0.5189146000193432,-42.0
11,lsm,f,19,r,2,(-172.20000000000002, 2.1088417881317425e-14),25,5,2,yes,x,5,x,0.49568039999576285,1,40,test2,2,0.49580049997894093,-40.0
11,lsm,f,19,r,2,(-3.163262682197613e-14, -172.20000000000002),27,-3,11,yes,x,5,x,1.0065822000033222,1,41,test2,2,1.0069076999789104,-48.0
11,lsm,f,19,r,2,(-121.76378772032348, 121.76378772032349),24,-3,11,yes,x,5,m,0.6248173000058159,0,42,test2,2,0.6249435999779962,-48.0
11,lsm,f,19,r,2,(121.76378772032349, 121.76378772032349),22,25,4,yes,x,5,x,0.3726744999876246,1,43,test2,2,0.37290800001937896,-20.0
11,lsm,f,19,r,2,(-121.76378772032352, -121.76378772032348),26,7,3,yes,x,5,x,0.6900609000003897,1,44,test2,2,0.6901641999720596,-38.0
11,lsm,f,19,r,2,(1.0544208940658713e-14, 172.20000000000002),23,-7,13,no,m,6,m,0.965309499995783,1,45,test2,2,0.9655371999833733,-38.0
11,lsm,f,19,r,2,(-3.163262682197613e-14, -172.20000000000002),27,7,3,yes,x,5,x,0.39817379997111857,1,46,test2,2,0.3982733999728225,-38.0
11,lsm,f,19,r,2,(-121.76378772032352, -121.76378772032348),26,-3,11,no,m,6,m,1.0413528000353836,1,47,test2,2,1.0415938000078313,-38.0
11,lsm,f,19,r,2,(-3.163262682197613e-14, -172.20000000000002),27,7,3,yes,x,5,x,0.49235169996973127,1,48,test2,2,0.49246340000536293,-38.0
11,lsm,f,19,r,2,(121.76378772032349, 121.76378772032349),22,7,3,yes,x,5,x,0.5222364999935962,1,49,test2,2,0.5226623999769799,-38.0
11,lsm,f,19,r,2,(121.76378772032349, 121.76378772032349),22,-25,14,yes,x,5,x,0.4779232000000775,1,50,test2,2,0.47837590001290664,-70.0
11,lsm,f,19,r,2,(-121.76378772032352, -121.76378772032348),26,-5,12,no,m,6,m,0.658434099983424,1,51,test2,2,0.6589632999966852,-70.0
11,lsm,f,19,r,2,(121.76378772032349, 121.76378772032349),22,5,2,no,m,6,x,1.554319100046996,0,52,test2,2,1.5544154000235721,-70.0
11,lsm,f,19,r,2,(-121.76378772032352, -121.76378772032348),26,-25,14,yes,x,5,x,0.3404675999772735,1,53,test2,2,0.34113780001644045,-70.0
11,lsm,f,19,r,2,(1.0544208940658713e-14, 172.20000000000002),23,5,2,yes,x,5,x,1.1779149000067264,1,54,test2,2,1.1780924000195228,-40.0
11,lsm,f,19,r,2,(-3.163262682197613e-14, -172.20000000000002),27,3,1,yes,x,5,m,1.1713632000028156,0,55,test2,2,1.1716030000243336,-42.0
11,lsm,f,19,r,2,(-121.76378772032352, -121.76378772032348),26,7,3,no,m,6,m,1.1266359000001103,1,56,test2,2,1.1268738000071608,-42.0
11,lsm,f,19,r,2,(1.0544208940658713e-14, 172.20000000000002),23,-25,14,yes,x,5,x,0.4972660999628715,1,57,test2,2,0.4974216000409797,-70.0
11,lsm,f,19,r,2,(-172.20000000000002, 2.1088417881317425e-14),25,3,1,yes,x,5,m,1.0227841999731027,0,58,test2,2,1.0229883999563754,-42.0
11,lsm,f,19,r,2,(121.76378772032349, 121.76378772032349),22,-5,12,yes,x,5,x,0.9384212999721058,1,59,test2,2,0.9385351000237279,-50.0
11,lsm,f,19,r,2,(1.0544208940658713e-14, 172.20000000000002),23,-25,14,no,m,6,m,1.1304262999910861,1,60,test2,2,1.1307883999543265,-50.0
11,lsm,f,19,r,2,(-3.163262682197613e-14, -172.20000000000002),27,-7,13,yes,x,5,x,0.555834099999629,1,61,test2,2,0.5559630999923684,-52.0
11,lsm,f,19,r,2,(-121.76378772032348, 121.76378772032349),24,-7,13,yes,x,5,x,0.8762529999949038,1,62,test2,2,0.8763872000272386,-52.0
11,lsm,f,19,r,2,(121.76378772032346, -121.76378772032352),28,-5,12,yes,x,5,x,1.0305650999653153,1,63,test2,2,1.031122200016398,-50.0
11,lsm,f,19,r,2,(172.20000000000002, 0.0),21,25,4,yes,x,5,x,0.4906957999919541,1,64,test2,2,0.4910653999540955,-20.0
11,lsm,f,19,r,2,(-3.163262682197613e-14, -172.20000000000002),27,-25,14,yes,x,5,x,0.6614876000094227,1,65,test2,2,0.6617280000355095,-70.0
11,lsm,f,19,r,2,(121.76378772032346, -121.76378772032352),28,-7,13,yes,x,5,x,0.744126999983564,1,66,test2,2,0.7442789999768138,-52.0
11,lsm,f,19,r,2,(121.76378772032349, 121.76378772032349),22,3,1,no,m,6,m,1.0321271000429988,1,67,test2,2,1.0323454000172205,-52.0
11,lsm,f,19,r,2,(121.76378772032346, -121.76378772032352),28,5,2,yes,x,5,x,0.649924400029704,1,68,test2,2,0.6502060000202619,-40.0
11,lsm,f,19,r,2,(121.76378772032349, 121.76378772032349),22,5,2,yes,x,5,m,0.8706162000307813,0,69,test2,2,0.8707174000446685,-40.0
11,lsm,f,19,r,2,(-172.20000000000002, 2.1088417881317425e-14),25,-25,14,no,m,6,m,1.2962407000013627,1,70,test2,2,1.2964036000194028,-40.0
11,lsm,f,19,r,2,(-3.163262682197613e-14, -172.20000000000002),27,-3,11,yes,x,5,x,0.8527270999620669,1,71,test2,2,0.8533605000120588,-48.0
11,lsm,f,19,r,2,(-121.76378772032348, 121.76378772032349),24,3,1,no,m,6,m,1.1094862999743782,1,72,test2,2,1.1099408000009134,-48.0
11,lsm,f,19,r,2,(1.0544208940658713e-14, 172.20000000000002),23,25,4,no,m,6,m,0.8118646999937482,1,73,test2,2,0.8126775000127964,-48.0
11,lsm,f,19,r,2,(1.0544208940658713e-14, 172.20000000000002),23,25,4,yes,x,5,x,0.41423420002683997,1,74,test2,2,0.41436070000054315,-20.0
11,lsm,f,19,r,2,(1.0544208940658713e-14, 172.20000000000002),23,-3,11,no,m,6,m,0.7820016000187024,1,75,test2,2,0.7825205000117421,-20.0
11,lsm,f,19,r,2,(-3.163262682197613e-14, -172.20000000000002),27,-7,13,yes,x,5,x,0.4678832999779843,1,76,test2,2,0.4680389999994077,-52.0
11,lsm,f,19,r,2,(-121.76378772032348, 121.76378772032349),24,5,2,yes,x,5,x,0.7187902000150643,1,77,test2,2,0.7192094000056386,-40.0
11,lsm,f,19,r,2,(-121.76378772032352, -121.76378772032348),26,-3,11,yes,x,5,x,1.10630119999405,1,78,test2,2,1.106403500016313,-48.0
11,lsm,f,19,r,2,(-121.76378772032352, -121.76378772032348),26,5,2,yes,x,5,x,0.7122139999992214,1,79,test2,2,0.7123081999598071,-40.0
11,lsm,f,19,r,2,(-121.76378772032352, -121.76378772032348),26,3,1,yes,x,5,x,0.9795097999740392,1,80,test2,2,0.9798028999939561,-42.0
11,lsm,f,19,r,2,(172.20000000000002, 0.0),21,3,1,yes,x,5,x,1.3942835999769159,1,81,test2,2,1.3943878000136465,-42.0
11,lsm,f,19,r,2,(172.20000000000002, 0.0),21,-25,14,yes,x,5,x,0.7759956000372767,1,82,test2,2,0.7764972999575548,-70.0
11,lsm,f,19,r,2,(1.0544208940658713e-14, 172.20000000000002),23,-5,12,no,m,6,m,0.9534844000008889,1,83,test2,2,0.9540877999970689,-70.0
11,lsm,f,19,r,2,(-121.76378772032348, 121.76378772032349),24,-7,13,yes,x,5,x,0.5138542000204325,1,84,test2,2,0.5139649000484496,-52.0
11,lsm,f,19,r,2,(121.76378772032346, -121.76378772032352),28,-3,11,yes,x,5,m,1.2787289000116289,0,85,test2,2,1.2788974999566562,-48.0
11,lsm,f,19,r,2,(172.20000000000002, 0.0),21,5,2,yes,x,5,x,0.7251011999906041,1,86,test2,2,0.725502300017979,-40.0
11,lsm,f,19,r,2,(1.0544208940658713e-14, 172.20000000000002),23,-5,12,yes,x,5,x,0.5111208999878727,1,87,test2,2,0.5112490999745205,-50.0
11,lsm,f,19,r,2,(172.20000000000002, 0.0),21,5,2,yes,x,5,x,0.9498482999624684,1,88,test2,2,0.9501730999909341,-40.0
11,lsm,f,19,r,2,(-121.76378772032348, 121.76378772032349),24,-7,13,no,m,6,m,0.9241019999608397,1,89,test2,2,0.9244096999755129,-40.0
11,lsm,f,19,r,2,(1.0544208940658713e-14, 172.20000000000002),23,-25,14,yes,x,5,x,0.46368190000066534,1,90,test2,2,0.46377719996962696,-70.0
11,lsm,f,19,r,2,(121.76378772032349, 121.76378772032349),22,25,4,no,m,6,m,0.8954603000311181,1,91,test2,2,0.8958398000104353,-70.0
11,lsm,f,19,r,2,(-121.76378772032352, -121.76378772032348),26,25,4,yes,x,5,x,0.53243709995877,1,92,test2,2,0.5327179000014439,-20.0
11,lsm,f,19,r,2,(-3.163262682197613e-14, -172.20000000000002),27,-25,14,no,m,6,m,0.8396475000190549,1,93,test2,2,0.8397594999987632,-20.0
11,lsm,f,19,r,2,(-121.76378772032348, 121.76378772032349),24,25,4,yes,x,5,x,0.5370869999751449,1,94,test2,2,0.5373619999736547,-20.0
11,lsm,f,19,r,2,(121.76378772032346, -121.76378772032352),28,-7,13,yes,x,5,x,0.6093742999946699,1,95,test2,2,0.609617900045123,-52.0
11,lsm,f,19,r,2,(-172.20000000000002, 2.1088417881317425e-14),25,5,2,yes,x,5,x,0.6021396000287496,1,96,test2,2,0.6022524000145495,-40.0
11,lsm,f,19,r,2,(-121.76378772032352, -121.76378772032348),26,-25,14,no,m,6,m,1.0672735999687575,1,1,test1,3,1.0674981999909505,-40.0
11,lsm,f,19,r,2,(-121.76378772032352, -121.76378772032348),26,7,3,yes,x,5,x,0.42703940003411844,1,2,test1,3,0.42735960002755746,-38.0
11,lsm,f,19,r,2,(-172.20000000000002, 2.1088417881317425e-14),25,-25,14,yes,x,5,x,0.3722359999665059,1,3,test1,3,0.372340300003998,-70.0
11,lsm,f,19,r,2,(-3.163262682197613e-14, -172.20000000000002),27,-5,12,no,m,6,m,0.6776042000274174,1,4,test1,3,0.6780259000370279,-70.0
11,lsm,f,19,r,2,(-172.20000000000002, 2.1088417881317425e-14),25,-25,14,yes,x,5,x,0.34358320001047105,1,5,test1,3,0.3438190000015311,-70.0
11,lsm,f,19,r,2,(-121.76378772032348, 121.76378772032349),24,-5,12,no,m,6,m,0.8775814999826252,1,6,test1,3,0.8778664999990724,-70.0
11,lsm,f,19,r,2,(121.76378772032346, -121.76378772032352),28,-25,14,no,m,6,x,1.382655400026124,0,7,test1,3,1.3829456999665126,-70.0
11,lsm,f,19,r,2,(1.0544208940658713e-14, 172.20000000000002),23,3,1,yes,x,5,x,0.3561228000326082,1,8,test1,3,0.3565336000174284,-42.0
11,lsm,f,19,r,2,(-121.76378772032352, -121.76378772032348),26,-7,13,no,m,6,m,0.8146913000382483,1,9,test1,3,0.8147901000338607,-42.0
11,lsm,f,19,r,2,(121.76378772032346, -121.76378772032352),28,25,4,no,m,6,m,1.3505805000313558,1,10,test1,3,1.3509836999583058,-42.0
11,lsm,f,19,r,2,(-121.76378772032348, 121.76378772032349),24,5,2,yes,x,5,x,0.5224458000157028,1,11,test1,3,0.5226723999949172,-40.0
11,lsm,f,19,r,2,(-121.76378772032352, -121.76378772032348),26,5,2,yes,x,5,x,0.7425722000189126,1,12,test1,3,0.7427919000037946,-40.0
11,lsm,f,19,r,2,(121.76378772032349, 121.76378772032349),22,-25,14,yes,x,5,x,0.44137270003557205,1,13,test1,3,0.44147389999125153,-70.0
11,lsm,f,19,r,2,(172.20000000000002, 0.0),21,-7,13,yes,x,5,x,0.5152378000202589,1,14,test1,3,0.5156039000139572,-52.0
11,lsm,f,19,r,2,(172.20000000000002, 0.0),21,-3,11,yes,x,5,x,0.7705316999927163,1,15,test1,3,0.7707766000530683,-48.0
11,lsm,f,19,r,2,(-3.163262682197613e-14, -172.20000000000002),27,7,3,no,m,6,m,1.5216326999943703,1,16,test1,3,1.5217368000303395,-48.0
11,lsm,f,19,r,2,(-121.76378772032348, 121.76378772032349),24,3,1,yes,x,5,x,0.4897958000074141,1,17,test1,3,0.48991070000920445,-42.0
11,lsm,f,19,r,2,(-3.163262682197613e-14, -172.20000000000002),27,-7,13,no,m,6,m,1.2083300000522286,1,18,test1,3,1.2085578999831341,-42.0
11,lsm,f,19,r,2,(-121.76378772032348, 121.76378772032349),24,-5,12,yes,x,5,x,0.7136649999883957,1,19,test1,3,0.7137854999746196,-50.0
11,lsm,f,19,r,2,(-121.76378772032348, 121.76378772032349),24,5,2,no,m,6,m,0.7585027000168338,1,20,test1,3,0.7586425000336021,-50.0
11,lsm,f,19,r,2,(1.0544208940658713e-14, 172.20000000000002),23,7,3,no,m,6,x,0.5775120999896899,0,21,test1,3,0.5777598000131547,-50.0
11,lsm,f,19,r,2,(-121.76378772032348, 121.76378772032349),24,-3,11,yes,x,5,x,0.5421453000162728,1,22,test1,3,0.5425322000519373,-48.0
11,lsm,f,19,r,2,(-121.76378772032352, -121.76378772032348),26,5,2,no,m,6,m,1.1044308000127785,1,23,test1,3,1.1046863999799825,-48.0
11,lsm,f,19,r,2,(121.76378772032346, -121.76378772032352),28,7,3,yes,x,5,x,0.5429561999626458,1,24,test1,3,0.5431729999836534,-38.0
11,lsm,f,19,r,2,(121.76378772032346, -121.76378772032352),28,5,2,no,m,6,m,0.9845256000407971,1,25,test1,3,0.9851419000187889,-38.0
11,lsm,f,19,r,2,(121.76378772032349, 121.76378772032349),22,-3,11,yes,x,5,x,0.7520503000123426,1,26,test1,3,0.752288400020916,-48.0
11,lsm,f,19,r,2,(-3.163262682197613e-14, -172.20000000000002),27,-5,12,yes,x,5,x,0.946117100014817,1,27,test1,3,0.946359499997925,-50.0
11,lsm,f,19,r,2,(172.20000000000002, 0.0),21,-5,12,yes,x,5,x,0.5059235999942757,1,28,test1,3,0.5061660999781452,-50.0
11,lsm,f,19,r,2,(1.0544208940658713e-14, 172.20000000000002),23,-5,12,yes,x,5,x,0.4258108999929391,1,29,test1,3,0.42604300001403317,-50.0
11,lsm,f,19,r,2,(-121.76378772032348, 121.76378772032349),24,25,4,no,m,6,m,1.3161083000013605,1,30,test1,3,1.3162095000152476,-50.0
11,lsm,f,19,r,2,(-121.76378772032352, -121.76378772032348),26,-7,13,yes,x,5,x,0.3026530000497587,1,31,test1,3,0.3027810000348836,-52.0
11,lsm,f,19,r,2,(-3.163262682197613e-14, -172.20000000000002),27,5,2,yes,x,5,x,0.604069699998945,1,32,test1,3,0.6041734000318684,-40.0
11,lsm,f,19,r,2,(-172.20000000000002, 2.1088417881317425e-14),25,5,2,no,m,6,m,0.7971029999898747,1,33,test1,3,0.7973755999701098,-40.0
11,lsm,f,19,r,2,(121.76378772032346, -121.76378772032352),28,-3,11,no,m,6,m,0.9854824999929406,1,34,test1,3,0.9858327999827452,-40.0
11,lsm,f,19,r,2,(121.76378772032349, 121.76378772032349),22,-7,13,yes,x,5,x,0.5947767000179738,1,35,test1,3,0.5950973000144586,-52.0
11,lsm,f,19,r,2,(-172.20000000000002, 2.1088417881317425e-14),25,-3,11,yes,x,5,m,0.7131419000215828,0,36,test1,3,0.7132430999772623,-48.0
11,lsm,f,19,r,2,(172.20000000000002, 0.0),21,-5,12,yes,x,5,x,0.7579900000127964,1,37,test1,3,0.7581163999857381,-50.0
11,lsm,f,19,r,2,(-3.163262682197613e-14, -172.20000000000002),27,25,4,yes,x,5,x,0.38835660001495853,1,38,test1,3,0.38856970000779256,-20.0
11,lsm,f,19,r,2,(172.20000000000002, 0.0),21,-7,13,yes,x,5,x,0.4460342999664135,1,39,test1,3,0.4461281999829225,-52.0
11,lsm,f,19,r,2,(-121.76378772032348, 121.76378772032349),24,7,3,no,m,6,x,0.6260514000314288,0,40,test1,3,0.6262788000167347,-52.0
11,lsm,f,19,r,2,(-3.163262682197613e-14, -172.20000000000002),27,5,2,no,m,6,x,0.3910052999854088,0,41,test1,3,0.39156160003039986,-52.0
11,lsm,f,19,r,2,(121.76378772032349, 121.76378772032349),22,3,1,yes,x,5,x,0.5533083000336774,1,42,test1,3,0.5535704000503756,-42.0
11,lsm,f,19,r,2,(172.20000000000002, 0.0),21,3,1,no,m,6,x,0.7005202999571338,0,43,test1,3,0.7009615999995731,-42.0
11,lsm,f,19,r,2,(-121.76378772032348, 121.76378772032349),24,-25,14,no,m,6,m,0.765906399989035,1,44,test1,3,0.7660790999652818,-42.0
11,lsm,f,19,r,2,(-172.20000000000002, 2.1088417881317425e-14),25,-5,12,no,m,6,m,1.2841591000324115,1,45,test1,3,1.2843123000347987,-42.0
11,lsm,f,19,r,2,(121.76378772032349, 121.76378772032349),22,-7,13,no,m,6,m,1.1659515000064857,1,46,test1,3,1.1660551000386477,-42.0
11,lsm,f,19,r,2,(121.76378772032349, 121.76378772032349),22,5,2,yes,x,5,x,0.5221917000017129,1,47,test1,3,0.5227214000187814,-40.0
11,lsm,f,19,r,2,(-3.163262682197613e-14, -172.20000000000002),27,-3,11,no,m,6,m,0.5894328000140376,1,48,test1,3,0.589989300002344,-40.0
11,lsm,f,19,r,2,(121.76378772032346, -121.76378772032352),28,3,1,yes,x,5,m,0.7207731999806128,0,49,test1,3,0.721045000012964,-42.0
11,lsm,f,19,r,2,(-3.163262682197613e-14, -172.20000000000002),27,25,4,no,m,6,m,0.8682210000115447,1,50,test1,3,0.8688775000046007,-42.0
11,lsm,f,19,r,2,(121.76378772032346, -121.76378772032352),28,3,1,yes,x,5,m,0.7665494999964722,0,51,test1,3,0.7669026000075974,-42.0
11,lsm,f,19,r,2,(-121.76378772032352, -121.76378772032348),26,25,4,yes,x,5,x,0.35341079998761415,1,52,test1,3,0.3535196000011638,-20.0
11,lsm,f,19,r,2,(-121.76378772032352, -121.76378772032348),26,-5,12,yes,x,5,x,0.42750739998882636,1,53,test1,3,0.4276028000167571,-50.0
11,lsm,f,19,r,2,(-172.20000000000002, 2.1088417881317425e-14),25,7,3,no,m,6,m,0.6700218999758363,1,54,test1,3,0.6701340999570675,-50.0
11,lsm,f,19,r,2,(-121.76378772032348, 121.76378772032349),24,7,3,yes,x,5,x,0.34737450000829995,1,55,test1,3,0.34767380001721904,-38.0
11,lsm,f,19,r,2,(-121.76378772032352, -121.76378772032348),26,3,1,yes,x,5,x,0.5867580000194721,1,56,test1,3,0.5868503000237979,-42.0
11,lsm,f,19,r,2,(1.0544208940658713e-14, 172.20000000000002),23,-3,11,yes,x,5,x,0.7146331999683753,1,57,test1,3,0.7147835000068881,-48.0
11,lsm,f,19,r,2,(-172.20000000000002, 2.1088417881317425e-14),25,7,3,yes,x,5,x,0.41371420002542436,1,58,test1,3,0.41384829999879,-38.0
11,lsm,f,19,r,2,(121.76378772032346, -121.76378772032352),28,-5,12,yes,x,5,x,0.6596239999635145,1,59,test1,3,0.6598520999541506,-50.0
11,lsm,f,19,r,2,(172.20000000000002, 0.0),21,-5,12,no,m,6,m,1.1753558000200428,1,60,test1,3,1.1754840000066906,-50.0
11,lsm,f,19,r,2,(-3.163262682197613e-14, -172.20000000000002),27,5,2,yes,x,5,x,0.38991680002072826,1,61,test1,3,0.3902352000004612,-40.0
11,lsm,f,19,r,2,(172.20000000000002, 0.0),21,25,4,yes,x,5,x,0.4228403000161052,1,62,test1,3,0.4229947999701835,-20.0
11,lsm,f,19,r,2,(-121.76378772032352, -121.76378772032348),26,3,1,no,m,6,m,0.6322186000179499,1,63,test1,3,0.6328223000164144,-20.0
11,lsm,f,19,r,2,(121.76378772032349, 121.76378772032349),22,-25,14,no,m,6,x,0.40414309996413067,0,64,test1,3,0.4045214999932796,-20.0
11,lsm,f,19,r,2,(-172.20000000000002, 2.1088417881317425e-14),25,7,3,yes,x,5,x,0.43570059997728094,1,65,test1,3,0.43585629999870434,-38.0
11,lsm,f,19,r,2,(121.76378772032349, 121.76378772032349),22,3,1,yes,x,5,m,0.7715712999925017,0,66,test1,3,0.7716981000266969,-42.0
11,lsm,f,19,r,2,(121.76378772032349, 121.76378772032349),22,7,3,no,m,6,m,1.198051800020039,1,67,test1,3,1.1984085000003688,-42.0
11,lsm,f,19,r,2,(1.0544208940658713e-14, 172.20000000000002),23,5,2,no,m,6,m,0.6376876999856904,1,68,test1,3,0.6384113000240177,-42.0
11,lsm,f,19,r,2,(121.76378772032346, -121.76378772032352),28,-3,11,yes,x,5,m,1.0322710000327788,0,69,test1,3,1.0324903999571688,-48.0
11,lsm,f,19,r,2,(-121.76378772032352, -121.76378772032348),26,-3,11,yes,x,5,x,0.7219424999784678,1,70,test1,3,0.7221667999983765,-48.0
11,lsm,f,19,r,2,(172.20000000000002, 0.0),21,-25,14,no,m,6,m,0.925466199987568,1,71,test1,3,0.9255668999976479,-48.0
11,lsm,f,19,r,2,(-172.20000000000002, 2.1088417881317425e-14),25,-5,12,yes,x,5,x,0.5275242999778129,1,72,test1,3,0.5278327999985777,-50.0
11,lsm,f,19,r,2,(-172.20000000000002, 2.1088417881317425e-14),25,-7,13,yes,x,5,x,0.36858159996336326,1,73,test1,3,0.3687126000295393,-52.0
11,lsm,f,19,r,2,(-172.20000000000002, 2.1088417881317425e-14),25,-3,11,no,m,6,x,0.413689200009685,0,74,test1,3,0.41378800000529736,-52.0
11,lsm,f,19,r,2,(-121.76378772032348, 121.76378772032349),24,-25,14,yes,x,5,x,0.3616578999790363,1,75,test1,3,0.36187490000156686,-70.0
11,lsm,f,19,r,2,(-121.76378772032352, -121.76378772032348),26,-25,14,yes,x,5,x,0.36768709996249527,1,76,test1,3,0.3677874999702908,-70.0
11,lsm,f,19,r,2,(-121.76378772032352, -121.76378772032348),26,-5,12,yes,x,5,x,0.5557801999966614,1,77,test1,3,0.5560159999877214,-50.0
11,lsm,f,19,r,2,(121.76378772032349, 121.76378772032349),22,-5,12,no,m,6,m,1.1878179000341333,1,78,test1,3,1.1882121000089683,-50.0
11,lsm,f,19,r,2,(172.20000000000002, 0.0),21,7,3,yes,x,5,x,0.6339291000040248,1,79,test1,3,0.634576000040397,-38.0
11,lsm,f,19,r,2,(1.0544208940658713e-14, 172.20000000000002),23,3,1,yes,x,5,x,0.5798643000307493,1,80,test1,3,0.5799676000024192,-42.0
11,lsm,f,19,r,2,(-172.20000000000002, 2.1088417881317425e-14),25,25,4,yes,x,5,x,0.4194106999784708,1,81,test1,3,0.419644600013271,-20.0
11,lsm,f,19,r,2,(121.76378772032346, -121.76378772032352),28,7,3,yes,x,5,x,0.4921719999983907,1,82,test1,3,0.4923131999676116,-38.0
11,lsm,f,19,r,2,(-3.163262682197613e-14, -172.20000000000002),27,-5,12,yes,x,5,x,0.39625580003485084,1,83,test1,3,0.396357599995099,-50.0
11,lsm,f,19,r,2,(-3.163262682197613e-14, -172.20000000000002),27,25,4,yes,x,5,x,0.45600219996413216,1,84,test1,3,0.4561964999884367,-20.0
11,lsm,f,19,r,2,(172.20000000000002, 0.0),21,7,3,yes,x,5,x,0.4256076999590732,1,85,test1,3,0.42573139996966347,-38.0
11,lsm,f,19,r,2,(1.0544208940658713e-14, 172.20000000000002),23,7,3,yes,x,5,x,0.4490019000368193,1,86,test1,3,0.44915790000231937,-38.0
11,lsm,f,19,r,2,(1.0544208940658713e-14, 172.20000000000002),23,-3,11,yes,x,5,x,0.7678261000546627,1,87,test1,3,0.7681236999924295,-48.0
11,lsm,f,19,r,2,(-172.20000000000002, 2.1088417881317425e-14),25,-5,12,yes,x,5,x,0.482552100031171,1,88,test1,3,0.48267540003871545,-50.0
11,lsm,f,19,r,2,(172.20000000000002, 0.0),21,7,3,no,m,6,x,0.6330203999532387,0,89,test1,3,0.6333108000108041,-50.0
11,lsm,f,19,r,2,(121.76378772032346, -121.76378772032352),28,-7,13,no,m,6,m,0.7191685999860056,1,90,test1,3,0.7192956999642774,-50.0
11,lsm,f,19,r,2,(-121.76378772032348, 121.76378772032349),24,-3,11,no,m,6,m,0.7583727000164799,1,91,test1,3,0.7585009000031278,-50.0
11,lsm,f,19,r,2,(-121.76378772032348, 121.76378772032349),24,-25,14,yes,x,5,x,0.4377905000001192,1,92,test1,3,0.43802890001097694,-70.0
11,lsm,f,19,r,2,(172.20000000000002, 0.0),21,-25,14,yes,x,5,x,0.47806460002902895,1,93,test1,3,0.4781630999641493,-70.0
11,lsm,f,19,r,2,(-3.163262682197613e-14, -172.20000000000002),27,-25,14,yes,x,5,x,0.3579846999491565,1,94,test1,3,0.3585937999887392,-70.0
11,lsm,f,19,r,2,(121.76378772032349, 121.76378772032349),22,25,4,yes,x,5,x,0.5213773000286892,1,95,test1,3,0.5215248999884352,-20.0
11,lsm,f,19,r,2,(121.76378772032349, 121.76378772032349),22,-3,11,yes,x,5,x,0.5722298999899067,1,96,test1,3,0.5723606999963522,-48.0
11,lsm,f,19,r,2,(121.76378772032349, 121.76378772032349),22,7,3,yes,x,5,x,0.28381190000800416,1,1,test2,3,0.28394110000226647,-38.0
11,lsm,f,19,r,2,(1.0544208940658713e-14, 172.20000000000002),23,-7,13,yes,x,5,x,0.3618969999952242,1,2,test2,3,0.3620282000047155,-52.0
11,lsm,f,19,r,2,(1.0544208940658713e-14, 172.20000000000002),23,5,2,yes,x,5,x,0.5236432999954559,1,3,test2,3,0.5242604999803007,-40.0
11,lsm,f,19,r,2,(172.20000000000002, 0.0),21,-3,11,yes,x,5,x,0.6424164000200108,1,4,test2,3,0.6425573999877088,-48.0
11,lsm,f,19,r,2,(121.76378772032346, -121.76378772032352),28,5,2,yes,x,5,x,0.6264004000113346,1,5,test2,3,0.6265123999910429,-40.0
11,lsm,f,19,r,2,(121.76378772032349, 121.76378772032349),22,-3,11,no,m,6,m,0.7321676000137813,1,6,test2,3,0.7327262000180781,-40.0
11,lsm,f,19,r,2,(121.76378772032346, -121.76378772032352),28,-25,14,yes,x,5,x,0.4029442999744788,1,7,test2,3,0.4036239999695681,-70.0
11,lsm,f,19,r,2,(121.76378772032346, -121.76378772032352),28,7,3,no,m,6,m,0.8941040000063367,1,8,test2,3,0.894203900010325,-70.0
11,lsm,f,19,r,2,(172.20000000000002, 0.0),21,3,1,yes,x,5,x,0.8725324000115506,1,9,test2,3,0.8728165000211447,-42.0
11,lsm,f,19,r,2,(-121.76378772032348, 121.76378772032349),24,25,4,yes,x,5,x,0.398985999985598,1,10,test2,3,0.399083599972073,-20.0
11,lsm,f,19,r,2,(121.76378772032349, 121.76378772032349),22,-7,13,yes,x,5,x,0.4004314999911003,1,11,test2,3,0.4008025000221096,-52.0
11,lsm,f,19,r,2,(-172.20000000000002, 2.1088417881317425e-14),25,25,4,no,m,6,m,0.6520777000114322,1,12,test2,3,0.6522567999782041,-52.0
11,lsm,f,19,r,2,(-172.20000000000002, 2.1088417881317425e-14),25,25,4,yes,x,5,x,0.35064850002527237,1,13,test2,3,0.35094129998469725,-20.0
11,lsm,f,19,r,2,(-172.20000000000002, 2.1088417881317425e-14),25,-7,13,yes,x,5,x,0.4165766999940388,1,14,test2,3,0.41686389996903017,-52.0
11,lsm,f,19,r,2,(-121.76378772032352, -121.76378772032348),26,-7,13,yes,x,5,x,0.3949987999512814,1,15,test2,3,0.3953923999797553,-52.0
11,lsm,f,19,r,2,(172.20000000000002, 0.0),21,25,4,no,m,6,m,0.9392703000339679,1,16,test2,3,0.9395991000346839,-52.0
11,lsm,f,19,r,2,(-172.20000000000002, 2.1088417881317425e-14),25,3,1,yes,x,5,x,0.44348419999005273,1,17,test2,3,0.4437970999861136,-42.0
11,lsm,f,19,r,2,(121.76378772032346, -121.76378772032352),28,3,1,no,m,6,m,0.645556100003887,1,18,test2,3,0.6456594999763183,-42.0
11,lsm,f,19,r,2,(-121.76378772032348, 121.76378772032349),24,7,3,yes,x,5,x,0.38309590000426397,1,19,test2,3,0.38368299999274313,-38.0
11,lsm,f,19,r,2,(-121.76378772032348, 121.76378772032349),24,3,1,yes,x,5,x,0.998446200042963,1,20,test2,3,0.998917100019753,-42.0
11,lsm,f,19,r,2,(-121.76378772032352, -121.76378772032348),26,25,4,no,m,6,m,0.8404588000266813,1,21,test2,3,0.8407543000066653,-42.0
11,lsm,f,19,r,2,(172.20000000000002, 0.0),21,-3,11,no,m,6,m,0.5971314999624155,1,22,test2,3,0.5974015999818221,-42.0
11,lsm,f,19,r,2,(1.0544208940658713e-14, 172.20000000000002),23,3,1,no,m,6,m,0.5443517999956384,1,23,test2,3,0.5447840000269935,-42.0
11,lsm,f,19,r,2,(121.76378772032346, -121.76378772032352),28,25,4,yes,x,5,x,0.37565239996183664,1,24,test2,3,0.375965700019151,-20.0
11,lsm,f,19,r,2,(121.76378772032346, -121.76378772032352),28,-25,14,yes,x,5,x,0.3538527999771759,1,25,test2,3,0.35395170003175735,-70.0
11,lsm,f,19,r,2,(172.20000000000002, 0.0),21,5,2,no,m,6,m,0.6337232000078075,1,26,test2,3,0.6338567000348121,-70.0
11,lsm,f,19,r,2,(121.76378772032349, 121.76378772032349),22,-5,12,yes,x,5,x,0.5733067999826744,1,27,test2,3,0.5734094000072218,-50.0
11,lsm,f,19,r,2,(-172.20000000000002, 2.1088417881317425e-14),25,-7,13,no,m,6,m,0.6218956999946386,1,28,test2,3,0.6223292000358924,-50.0
11,lsm,f,19,r,2,(-172.20000000000002, 2.1088417881317425e-14),25,3,1,no,m,6,m,0.556766499998048,1,29,test2,3,0.5574391999980435,-50.0
11,lsm,f,19,r,2,(121.76378772032346, -121.76378772032352),28,25,4,yes,x,5,x,0.37207719997968525,1,30,test2,3,0.372591299994383,-20.0
11,lsm,f,19,r,2,(-121.76378772032348, 121.76378772032349),24,-5,12,yes,x,5,x,0.6977101000375114,1,31,test2,3,0.6978681999607943,-50.0
11,lsm,f,19,r,2,(1.0544208940658713e-14, 172.20000000000002),23,25,4,yes,x,5,x,0.6943597000208683,1,32,test2,3,0.6946742000291124,-20.0
11,lsm,f,19,r,2,(1.0544208940658713e-14, 172.20000000000002),23,-7,13,yes,x,5,x,0.46896980004385114,1,33,test2,3,0.46919950004667044,-52.0
11,lsm,f,19,r,2,(121.76378772032346, -121.76378772032352),28,-5,12,no,m,6,m,0.553335300006438,1,34,test2,3,0.5534315999830142,-52.0
11,lsm,f,19,r,2,(1.0544208940658713e-14, 172.20000000000002),23,7,3,yes,x,5,x,0.41388050001114607,1,35,test2,3,0.4144397000200115,-38.0
11,lsm,f,19,r,2,(-172.20000000000002, 2.1088417881317425e-14),25,-3,11,yes,x,5,x,1.6199031999567524,1,36,test2,3,1.62033419997897,-48.0
11,lsm,f,19,r,2,(-3.163262682197613e-14, -172.20000000000002),27,3,1,yes,x,5,x,1.1858266000053845,1,37,test2,3,1.185993299994152,-42.0
11,lsm,f,19,r,2,(-3.163262682197613e-14, -172.20000000000002),27,3,1,no,m,6,m,1.0872127000475302,1,38,test2,3,1.0873778999666683,-42.0
11,lsm,f,19,r,2,(172.20000000000002, 0.0),21,-7,13,no,m,6,m,1.3230700999847613,1,39,test2,3,1.3232753000338562,-42.0
11,lsm,f,19,r,2,(-172.20000000000002, 2.1088417881317425e-14),25,5,2,yes,x,5,x,0.4917896999977529,1,40,test2,3,0.49209730001166463,-40.0
11,lsm,f,19,r,2,(-3.163262682197613e-14, -172.20000000000002),27,-3,11,yes,x,5,x,0.9249202000210062,1,41,test2,3,0.925243399979081,-48.0
11,lsm,f,19,r,2,(-121.76378772032348, 121.76378772032349),24,-3,11,yes,x,5,x,0.5963239999837242,1,42,test2,3,0.5964827999705449,-48.0
11,lsm,f,19,r,2,(121.76378772032349, 121.76378772032349),22,25,4,yes,x,5,x,0.4439964999910444,1,43,test2,3,0.44415669998852536,-20.0
11,lsm,f,19,r,2,(-121.76378772032352, -121.76378772032348),26,7,3,yes,x,5,x,0.4632518999860622,1,44,test2,3,0.463478000019677,-38.0
11,lsm,f,19,r,2,(1.0544208940658713e-14, 172.20000000000002),23,-7,13,no,m,6,m,0.9288595999823883,1,45,test2,3,0.929079899971839,-38.0
11,lsm,f,19,r,2,(-3.163262682197613e-14, -172.20000000000002),27,7,3,yes,x,5,x,0.41301640000892803,1,46,test2,3,0.4134679000126198,-38.0
11,lsm,f,19,r,2,(-121.76378772032352, -121.76378772032348),26,-3,11,no,m,6,x,0.3934690000023693,0,47,test2,3,0.3937811999931,-38.0
11,lsm,f,19,r,2,(-3.163262682197613e-14, -172.20000000000002),27,7,3,yes,x,5,x,0.5385150999645703,1,48,test2,3,0.5386456000269391,-38.0
11,lsm,f,19,r,2,(121.76378772032349, 121.76378772032349),22,7,3,yes,x,5,x,0.48440200003096834,1,49,test2,3,0.48458190000383183,-38.0
11,lsm,f,19,r,2,(121.76378772032349, 121.76378772032349),22,-25,14,yes,x,5,x,0.46393789997091517,1,50,test2,3,0.46404079999774694,-70.0
11,lsm,f,19,r,2,(-121.76378772032352, -121.76378772032348),26,-5,12,no,m,6,m,0.7177688999800012,1,51,test2,3,0.7179104999522679,-70.0
11,lsm,f,19,r,2,(121.76378772032349, 121.76378772032349),22,5,2,no,m,6,m,0.8270088999997824,1,52,test2,3,0.8271489999606274,-70.0
11,lsm,f,19,r,2,(-121.76378772032352, -121.76378772032348),26,-25,14,yes,x,5,x,0.33043920004274696,1,53,test2,3,0.3305627999943681,-70.0
11,lsm,f,19,r,2,(1.0544208940658713e-14, 172.20000000000002),23,5,2,yes,x,5,x,0.49209349998272955,1,54,test2,3,0.4926189999678172,-40.0
11,lsm,f,19,r,2,(-3.163262682197613e-14, -172.20000000000002),27,3,1,yes,x,5,x,0.5253893000190146,1,55,test2,3,0.5257737999781966,-42.0
11,lsm,f,19,r,2,(-121.76378772032352, -121.76378772032348),26,7,3,no,m,6,x,0.5730541999801062,0,56,test2,3,0.5732665999676101,-42.0
11,lsm,f,19,r,2,(1.0544208940658713e-14, 172.20000000000002),23,-25,14,yes,x,5,x,0.4048707000329159,1,57,test2,3,0.4051026999950409,-70.0
11,lsm,f,19,r,2,(-172.20000000000002, 2.1088417881317425e-14),25,3,1,yes,x,5,x,0.5291871000081301,1,58,test2,3,0.529285800002981,-42.0
11,lsm,f,19,r,2,(121.76378772032349, 121.76378772032349),22,-5,12,yes,x,5,x,0.5231649999623187,1,59,test2,3,0.5233878000290133,-50.0
11,lsm,f,19,r,2,(1.0544208940658713e-14, 172.20000000000002),23,-25,14,no,m,6,m,0.8827704999712296,1,60,test2,3,0.8828931999742053,-50.0
11,lsm,f,19,r,2,(-3.163262682197613e-14, -172.20000000000002),27,-7,13,yes,x,5,x,0.3940677000209689,1,61,test2,3,0.3941652000066824,-52.0
11,lsm,f,19,r,2,(-121.76378772032348, 121.76378772032349),24,-7,13,yes,x,5,x,0.44907360000070184,1,62,test2,3,0.44919769995613024,-52.0
11,lsm,f,19,r,2,(121.76378772032346, -121.76378772032352),28,-5,12,yes,x,5,x,0.7623810000368394,1,63,test2,3,0.7629984999657609,-50.0
11,lsm,f,19,r,2,(172.20000000000002, 0.0),21,25,4,yes,x,5,x,0.3785943000111729,1,64,test2,3,0.37893020000774413,-20.0
11,lsm,f,19,r,2,(-3.163262682197613e-14, -172.20000000000002),27,-25,14,yes,x,5,x,0.33959889999823645,1,65,test2,3,0.33978130004834384,-70.0
11,lsm,f,19,r,2,(121.76378772032346, -121.76378772032352),28,-7,13,yes,x,5,x,0.34709490003297105,1,66,test2,3,0.34725309995701537,-52.0
11,lsm,f,19,r,2,(121.76378772032349, 121.76378772032349),22,3,1,no,m,6,x,0.39593880000757053,0,67,test2,3,0.3962694000219926,-52.0
11,lsm,f,19,r,2,(121.76378772032346, -121.76378772032352),28,5,2,yes,x,5,x,0.47159780003130436,1,68,test2,3,0.471717800013721,-40.0
11,lsm,f,19,r,2,(121.76378772032349, 121.76378772032349),22,5,2,yes,x,5,x,0.4893439000006765,1,69,test2,3,0.4895740000065416,-40.0
11,lsm,f,19,r,2,(-172.20000000000002, 2.1088417881317425e-14),25,-25,14,no,m,6,x,0.36295879998942837,0,70,test2,3,0.3631819000001997,-40.0
11,lsm,f,19,r,2,(-3.163262682197613e-14, -172.20000000000002),27,-3,11,yes,x,5,x,0.4403036999865435,1,71,test2,3,0.4403980000060983,-48.0
11,lsm,f,19,r,2,(-121.76378772032348, 121.76378772032349),24,3,1,no,m,6,m,0.7290738000301644,1,72,test2,3,0.7294807999860495,-48.0
11,lsm,f,19,r,2,(1.0544208940658713e-14, 172.20000000000002),23,25,4,no,m,6,m,1.6519200999755412,1,73,test2,3,1.6522252999711782,-48.0
11,lsm,f,19,r,2,(1.0544208940658713e-14, 172.20000000000002),23,25,4,yes,x,5,x,0.4375714000198059,1,74,test2,3,0.43770010001026094,-20.0
11,lsm,f,19,r,2,(1.0544208940658713e-14, 172.20000000000002),23,-3,11,no,m,6,m,0.7767688000458293,1,75,test2,3,0.7768828000407666,-20.0
11,lsm,f,19,r,2,(-3.163262682197613e-14, -172.20000000000002),27,-7,13,yes,x,5,x,0.410125499998685,1,76,test2,3,0.41024279996054247,-52.0
11,lsm,f,19,r,2,(-121.76378772032348, 121.76378772032349),24,5,2,yes,x,5,x,0.48289199999999255,1,77,test2,3,0.48306810000212863,-40.0
11,lsm,f,19,r,2,(-121.76378772032352, -121.76378772032348),26,-3,11,yes,x,5,x,0.9417414999916218,1,78,test2,3,0.9420220999745652,-48.0
11,lsm,f,19,r,2,(-121.76378772032352, -121.76378772032348),26,5,2,yes,x,5,x,0.42824059998383746,1,79,test2,3,0.42860600003041327,-40.0
11,lsm,f,19,r,2,(-121.76378772032352, -121.76378772032348),26,3,1,yes,x,5,x,0.8589937000069767,1,80,test2,3,0.8595339000457898,-42.0
11,lsm,f,19,r,2,(172.20000000000002, 0.0),21,3,1,yes,x,5,x,0.6249027000158094,1,81,test2,3,0.6251352999825031,-42.0
11,lsm,f,19,r,2,(172.20000000000002, 0.0),21,-25,14,yes,x,5,x,0.49780390004161745,1,82,test2,3,0.49790240003494546,-70.0
11,lsm,f,19,r,2,(1.0544208940658713e-14, 172.20000000000002),23,-5,12,no,m,6,x,1.0384392000269145,0,83,test2,3,1.0386678000213578,-70.0
11,lsm,f,19,r,2,(-121.76378772032348, 121.76378772032349),24,-7,13,yes,x,5,x,0.5050821999902837,1,84,test2,3,0.5053110999870114,-52.0
11,lsm,f,19,r,2,(121.76378772032346, -121.76378772032352),28,-3,11,yes,x,5,m,0.8553573000244796,0,85,test2,3,0.8555769000086002,-48.0
11,lsm,f,19,r,2,(172.20000000000002, 0.0),21,5,2,yes,x,5,x,0.5058406999451108,1,86,test2,3,0.506348299968522,-40.0
11,lsm,f,19,r,2,(1.0544208940658713e-14, 172.20000000000002),23,-5,12,yes,x,5,x,0.4176683999830857,1,87,test2,3,0.41809019999345765,-50.0
11,lsm,f,19,r,2,(172.20000000000002, 0.0),21,5,2,yes,x,5,x,0.4342948999837972,1,88,test2,3,0.43475180002860725,-40.0
11,lsm,f,19,r,2,(-121.76378772032348, 121.76378772032349),24,-7,13,no,m,6,m,0.6817883000476286,1,89,test2,3,0.6819747000117786,-40.0
11,lsm,f,19,r,2,(1.0544208940658713e-14, 172.20000000000002),23,-25,14,yes,x,5,x,0.48424590000649914,1,90,test2,3,0.4843417000374757,-70.0
11,lsm,f,19,r,2,(121.76378772032349, 121.76378772032349),22,25,4,no,m,6,m,0.9379614000208676,1,91,test2,3,0.9380672000115737,-70.0
11,lsm,f,19,r,2,(-121.76378772032352, -121.76378772032348),26,25,4,yes,x,5,x,0.4431831000256352,1,92,test2,3,0.4432983999722637,-20.0
11,lsm,f,19,r,2,(-3.163262682197613e-14, -172.20000000000002),27,-25,14,no,m,6,m,0.8032744000083767,1,93,test2,3,0.8035580000141636,-20.0
11,lsm,f,19,r,2,(-121.76378772032348, 121.76378772032349),24,25,4,yes,x,5,x,0.35702200001105666,1,94,test2,3,0.35732150002149865,-20.0
11,lsm,f,19,r,2,(121.76378772032346, -121.76378772032352),28,-7,13,yes,x,5,m,0.45200339995790273,0,95,test2,3,0.4523965999833308,-52.0
11,lsm,f,19,r,2,(-172.20000000000002, 2.1088417881317425e-14),25,5,2,yes,x,5,x,0.5196845000027679,1,96,test2,3,0.5198830000008456,-40.0
11,lsm,f,19,r,2,(-121.76378772032352, -121.76378772032348),26,-25,14,no,m,6,m,0.8396714000264183,1,1,test1,4,0.8397959999856539,-40.0
11,lsm,f,19,r,2,(-121.76378772032352, -121.76378772032348),26,7,3,yes,x,5,x,0.40859379997709766,1,2,test1,4,0.4087081999750808,-38.0
11,lsm,f,19,r,2,(-172.20000000000002, 2.1088417881317425e-14),25,-25,14,yes,x,5,x,0.399703600036446,1,3,test1,4,0.3999411000404507,-70.0
11,lsm,f,19,r,2,(-3.163262682197613e-14, -172.20000000000002),27,-5,12,no,m,6,m,0.671580400026869,1,4,test1,4,0.6716792000224814,-70.0
11,lsm,f,19,r,2,(-172.20000000000002, 2.1088417881317425e-14),25,-25,14,yes,x,5,x,0.3862604000023566,1,5,test1,4,0.3865687000215985,-70.0
11,lsm,f,19,r,2,(-121.76378772032348, 121.76378772032349),24,-5,12,no,m,6,m,0.6502310000360012,1,6,test1,4,0.650359200022649,-70.0
11,lsm,f,19,r,2,(121.76378772032346, -121.76378772032352),28,-25,14,no,m,6,m,1.1022107999888249,1,7,test1,4,1.102457200002391,-70.0
11,lsm,f,19,r,2,(1.0544208940658713e-14, 172.20000000000002),23,3,1,yes,x,5,x,0.6510549000231549,1,8,test1,4,0.651149700046517,-42.0
11,lsm,f,19,r,2,(-121.76378772032352, -121.76378772032348),26,-7,13,no,m,6,m,0.640956700022798,1,9,test1,4,0.6411837000050582,-42.0
11,lsm,f,19,r,2,(121.76378772032346, -121.76378772032352),28,25,4,no,m,6,m,1.1762957999599166,1,10,test1,4,1.1764284999808297,-42.0
11,lsm,f,19,r,2,(-121.76378772032348, 121.76378772032349),24,5,2,yes,x,5,x,0.4709238999639638,1,11,test1,4,0.4710518000065349,-40.0
11,lsm,f,19,r,2,(-121.76378772032352, -121.76378772032348),26,5,2,yes,x,5,x,0.6315257999813184,1,12,test1,4,0.631893299985677,-40.0
11,lsm,f,19,r,2,(121.76378772032349, 121.76378772032349),22,-25,14,yes,x,5,x,0.4834091999800876,1,13,test1,4,0.4836356999585405,-70.0
11,lsm,f,19,r,2,(172.20000000000002, 0.0),21,-7,13,yes,x,5,x,0.48039099999004975,1,14,test1,4,0.4805456000030972,-52.0
11,lsm,f,19,r,2,(172.20000000000002, 0.0),21,-3,11,yes,x,5,x,0.7601284999982454,1,15,test1,4,0.7602517000050284,-48.0
11,lsm,f,19,r,2,(-3.163262682197613e-14, -172.20000000000002),27,7,3,no,m,6,x,0.7063278999994509,0,16,test1,4,0.7064314000308514,-48.0
11,lsm,f,19,r,2,(-121.76378772032348, 121.76378772032349),24,3,1,yes,x,5,x,0.5222484999685548,1,17,test1,4,0.5225340999895707,-42.0
11,lsm,f,19,r,2,(-3.163262682197613e-14, -172.20000000000002),27,-7,13,no,m,6,m,0.7286625999840908,1,18,test1,4,0.7288866000017151,-42.0
11,lsm,f,19,r,2,(-121.76378772032348, 121.76378772032349),24,-5,12,yes,x,5,x,0.4492323000449687,1,19,test1,4,0.4493306999793276,-50.0
11,lsm,f,19,r,2,(-121.76378772032348, 121.76378772032349),24,5,2,no,m,6,m,0.6979807000025176,1,20,test1,4,0.6981048000161536,-50.0
11,lsm,f,19,r,2,(1.0544208940658713e-14, 172.20000000000002),23,7,3,no,m,6,m,0.906257499998901,1,21,test1,4,0.9064634999958798,-50.0
11,lsm,f,19,r,2,(-121.76378772032348, 121.76378772032349),24,-3,11,yes,x,5,m,0.8183248999994248,0,22,test1,4,0.8188185999752022,-48.0
11,lsm,f,19,r,2,(-121.76378772032352, -121.76378772032348),26,5,2,no,m,6,m,0.9749711999902502,1,23,test1,4,0.9751889999606647,-48.0
11,lsm,f,19,r,2,(121.76378772032346, -121.76378772032352),28,7,3,yes,x,5,x,0.5127571999910288,1,24,test1,4,0.5131298000342213,-38.0
11,lsm,f,19,r,2,(121.76378772032346, -121.76378772032352),28,5,2,no,m,6,m,0.5370028999750502,1,25,test1,4,0.5373453000211157,-38.0
11,lsm,f,19,r,2,(121.76378772032349, 121.76378772032349),22,-3,11,yes,x,5,m,1.0143464999855496,0,26,test1,4,1.0144746000296436,-48.0
11,lsm,f,19,r,2,(-3.163262682197613e-14, -172.20000000000002),27,-5,12,yes,x,5,m,0.8151928000152111,0,27,test1,4,0.8153481000335887,-50.0
11,lsm,f,19,r,2,(172.20000000000002, 0.0),21,-5,12,yes,x,5,x,0.4888679999858141,1,28,test1,4,0.4894162999698892,-50.0
11,lsm,f,19,r,2,(1.0544208940658713e-14, 172.20000000000002),23,-5,12,yes,x,5,x,0.3775221999967471,1,29,test1,4,0.37771580001572147,-50.0
11,lsm,f,19,r,2,(-121.76378772032348, 121.76378772032349),24,25,4,no,m,6,x,0.7328754999907687,0,30,test1,4,0.732978500018362,-50.0
11,lsm,f,19,r,2,(-121.76378772032352, -121.76378772032348),26,-7,13,yes,x,5,x,0.46113720000721514,1,31,test1,4,0.4612395000294782,-52.0
11,lsm,f,19,r,2,(-3.163262682197613e-14, -172.20000000000002),27,5,2,yes,x,5,x,0.477636200026609,1,32,test1,4,0.47791369998594746,-40.0
11,lsm,f,19,r,2,(-172.20000000000002, 2.1088417881317425e-14),25,5,2,no,m,6,None,None,0,33,test1,4,1.9800887999590486,-40.0
11,lsm,f,19,r,2,(121.76378772032346, -121.76378772032352),28,-3,11,no,m,6,m,0.9529603000264615,1,34,test1,4,0.9530964000150561,-40.0
11,lsm,f,19,r,2,(121.76378772032349, 121.76378772032349),22,-7,13,yes,x,5,x,0.4756108000292443,1,35,test1,4,0.47577620000811294,-52.0
11,lsm,f,19,r,2,(-172.20000000000002, 2.1088417881317425e-14),25,-3,11,yes,x,5,m,0.8378234000410885,0,36,test1,4,0.8379245999967679,-48.0
11,lsm,f,19,r,2,(172.20000000000002, 0.0),21,-5,12,yes,x,5,x,0.46358899999177083,1,37,test1,4,0.4638071999652311,-50.0
11,lsm,f,19,r,2,(-3.163262682197613e-14, -172.20000000000002),27,25,4,yes,x,5,x,0.398347600013949,1,38,test1,4,0.39848949998850003,-20.0
11,lsm,f,19,r,2,(172.20000000000002, 0.0),21,-7,13,yes,x,5,x,0.41592850000597537,1,39,test1,4,0.41662480001104996,-52.0
11,lsm,f,19,r,2,(-121.76378772032348, 121.76378772032349),24,7,3,no,m,6,m,0.8750135999871418,1,40,test1,4,0.8751131999888457,-52.0
11,lsm,f,19,r,2,(-3.163262682197613e-14, -172.20000000000002),27,5,2,no,m,6,m,0.5703118999954313,1,41,test1,4,0.5707286999677308,-52.0
11,lsm,f,19,r,2,(121.76378772032349, 121.76378772032349),22,3,1,yes,x,5,m,0.6742358999908902,0,42,test1,4,0.6744317000266165,-42.0
11,lsm,f,19,r,2,(172.20000000000002, 0.0),21,3,1,no,m,6,x,0.6916540000238456,0,43,test1,4,0.6920165999908932,-42.0
11,lsm,f,19,r,2,(-121.76378772032348, 121.76378772032349),24,-25,14,no,m,6,x,1.086476499971468,0,44,test1,4,1.086846099991817,-42.0
11,lsm,f,19,r,2,(-172.20000000000002, 2.1088417881317425e-14),25,-5,12,no,m,6,m,1.6902388999587856,1,45,test1,4,1.6904038000502624,-42.0
11,lsm,f,19,r,2,(121.76378772032349, 121.76378772032349),22,-7,13,no,m,6,m,1.2337363999686204,1,46,test1,4,1.2339172000065446,-42.0
11,lsm,f,19,r,2,(121.76378772032349, 121.76378772032349),22,5,2,yes,x,5,x,0.676137899979949,1,47,test1,4,0.6762557000038214,-40.0
11,lsm,f,19,r,2,(-3.163262682197613e-14, -172.20000000000002),27,-3,11,no,m,6,m,0.7180234999977984,1,48,test1,4,0.71812829998089,-40.0
11,lsm,f,19,r,2,(121.76378772032346, -121.76378772032352),28,3,1,yes,x,5,x,0.7240186999551952,1,49,test1,4,0.7242614999995567,-42.0
11,lsm,f,19,r,2,(-3.163262682197613e-14, -172.20000000000002),27,25,4,no,m,6,m,0.5946714999736287,1,50,test1,4,0.5950150999706239,-42.0
11,lsm,f,19,r,2,(121.76378772032346, -121.76378772032352),28,3,1,yes,x,5,m,0.8833148999838158,0,51,test1,4,0.8834459999925457,-42.0
11,lsm,f,19,r,2,(-121.76378772032352, -121.76378772032348),26,25,4,yes,x,5,x,0.6119077000184916,1,52,test1,4,0.6126163000008091,-20.0
11,lsm,f,19,r,2,(-121.76378772032352, -121.76378772032348),26,-5,12,yes,x,5,x,0.4359393999911845,1,53,test1,4,0.4362740999786183,-50.0
11,lsm,f,19,r,2,(-172.20000000000002, 2.1088417881317425e-14),25,7,3,no,m,6,m,0.7725178999826312,1,54,test1,4,0.7730695999925956,-50.0
11,lsm,f,19,r,2,(-121.76378772032348, 121.76378772032349),24,7,3,yes,x,5,x,0.4216584999812767,1,55,test1,4,0.4218825999996625,-38.0
11,lsm,f,19,r,2,(-121.76378772032352, -121.76378772032348),26,3,1,yes,x,5,x,0.7297380999661982,1,56,test1,4,0.7306915000081062,-42.0
11,lsm,f,19,r,2,(1.0544208940658713e-14, 172.20000000000002),23,-3,11,yes,x,5,m,0.6128729000338353,0,57,test1,4,0.613239899976179,-48.0
11,lsm,f,19,r,2,(-172.20000000000002, 2.1088417881317425e-14),25,7,3,yes,x,5,x,0.45641010004328564,1,58,test1,4,0.45651300001190975,-38.0
11,lsm,f,19,r,2,(121.76378772032346, -121.76378772032352),28,-5,12,yes,x,5,m,0.5853283000178635,0,59,test1,4,0.5856150999898091,-50.0
11,lsm,f,19,r,2,(172.20000000000002, 0.0),21,-5,12,no,m,6,m,0.666299499978777,1,60,test1,4,0.6663944000029005,-50.0
11,lsm,f,19,r,2,(-3.163262682197613e-14, -172.20000000000002),27,5,2,yes,x,5,m,0.7260055000078864,0,61,test1,4,0.7265226999879815,-40.0
11,lsm,f,19,r,2,(172.20000000000002, 0.0),21,25,4,yes,x,5,x,0.4674315999727696,1,62,test1,4,0.4675438999547623,-20.0
11,lsm,f,19,r,2,(-121.76378772032352, -121.76378772032348),26,3,1,no,m,6,m,1.567243400029838,1,63,test1,4,1.5673724999651313,-20.0
11,lsm,f,19,r,2,(121.76378772032349, 121.76378772032349),22,-25,14,no,m,6,m,1.2083861000137404,1,64,test1,4,1.2092981000314467,-20.0
11,lsm,f,19,r,2,(-172.20000000000002, 2.1088417881317425e-14),25,7,3,yes,x,5,x,0.4409338999539614,1,65,test1,4,0.441888100001961,-38.0
11,lsm,f,19,r,2,(121.76378772032349, 121.76378772032349),22,3,1,yes,x,5,x,0.9085305000189692,1,66,test1,4,0.9088023999938741,-42.0
11,lsm,f,19,r,2,(121.76378772032349, 121.76378772032349),22,7,3,no,m,6,m,1.4959636999992654,1,67,test1,4,1.496125999954529,-42.0
11,lsm,f,19,r,2,(1.0544208940658713e-14, 172.20000000000002),23,5,2,no,m,6,m,0.6502300000283867,1,68,test1,4,0.6503604000317864,-42.0
11,lsm,f,19,r,2,(121.76378772032346, -121.76378772032352),28,-3,11,yes,x,5,x,1.0411741000134498,1,69,test1,4,1.0413997000432573,-48.0
11,lsm,f,19,r,2,(-121.76378772032352, -121.76378772032348),26,-3,11,yes,x,5,x,0.5860421999823302,1,70,test1,4,0.5861431999946944,-48.0
11,lsm,f,19,r,2,(172.20000000000002, 0.0),21,-25,14,no,m,6,m,0.8781746000167914,1,71,test1,4,0.8784015999990515,-48.0
11,lsm,f,19,r,2,(-172.20000000000002, 2.1088417881317425e-14),25,-5,12,yes,x,5,x,0.790311400021892,1,72,test1,4,0.79047329997411,-50.0
11,lsm,f,19,r,2,(-172.20000000000002, 2.1088417881317425e-14),25,-7,13,yes,x,5,x,0.4617813999648206,1,73,test1,4,0.4619984999881126,-52.0
11,lsm,f,19,r,2,(-172.20000000000002, 2.1088417881317425e-14),25,-3,11,no,m,6,m,0.8377202000119723,1,74,test1,4,0.8378203000174835,-52.0
11,lsm,f,19,r,2,(-121.76378772032348, 121.76378772032349),24,-25,14,yes,x,5,x,0.434966099972371,1,75,test1,4,0.43522500002291054,-70.0
11,lsm,f,19,r,2,(-121.76378772032352, -121.76378772032348),26,-25,14,yes,x,5,x,0.4475543000153266,1,76,test1,4,0.4476913000107743,-70.0
11,lsm,f,19,r,2,(-121.76378772032352, -121.76378772032348),26,-5,12,yes,x,5,x,0.6040142000420019,1,77,test1,4,0.6044118000427261,-50.0
11,lsm,f,19,r,2,(121.76378772032349, 121.76378772032349),22,-5,12,no,m,6,m,1.115270500013139,1,78,test1,4,1.1153978999936953,-50.0
11,lsm,f,19,r,2,(172.20000000000002, 0.0),21,7,3,yes,x,5,x,0.46092240000143647,1,79,test1,4,0.46103580005001277,-38.0
11,lsm,f,19,r,2,(1.0544208940658713e-14, 172.20000000000002),23,3,1,yes,x,5,x,0.6939830000046641,1,80,test1,4,0.6941034999908879,-42.0
11,lsm,f,19,r,2,(-172.20000000000002, 2.1088417881317425e-14),25,25,4,yes,x,5,x,0.3594782000291161,1,81,test1,4,0.3600467999931425,-20.0
11,lsm,f,19,r,2,(121.76378772032346, -121.76378772032352),28,7,3,yes,x,5,x,0.5361013000365347,1,82,test1,4,0.536474599968642,-38.0
11,lsm,f,19,r,2,(-3.163262682197613e-14, -172.20000000000002),27,-5,12,yes,x,5,x,0.42753450002055615,1,83,test1,4,0.42763220000779256,-50.0
11,lsm,f,19,r,2,(-3.163262682197613e-14, -172.20000000000002),27,25,4,yes,x,5,x,0.38959160004742444,1,84,test1,4,0.38969989999895915,-20.0
11,lsm,f,19,r,2,(172.20000000000002, 0.0),21,7,3,yes,x,5,x,0.3830212999600917,1,85,test1,4,0.3831133999628946,-38.0
11,lsm,f,19,r,2,(1.0544208940658713e-14, 172.20000000000002),23,7,3,yes,x,5,x,0.45034659997327253,1,86,test1,4,0.4504433999536559,-38.0
11,lsm,f,19,r,2,(1.0544208940658713e-14, 172.20000000000002),23,-3,11,yes,x,5,x,0.8545105999801308,1,87,test1,4,0.8546266999910586,-48.0
11,lsm,f,19,r,2,(-172.20000000000002, 2.1088417881317425e-14),25,-5,12,yes,x,5,x,0.47386599995661527,1,88,test1,4,0.4740652999607846,-50.0
11,lsm,f,19,r,2,(172.20000000000002, 0.0),21,7,3,no,m,6,m,0.6976208000560291,1,89,test1,4,0.6977333000395447,-50.0
11,lsm,f,19,r,2,(121.76378772032346, -121.76378772032352),28,-7,13,no,m,6,m,0.8287253999733366,1,90,test1,4,0.8288224000134505,-50.0
11,lsm,f,19,r,2,(-121.76378772032348, 121.76378772032349),24,-3,11,no,m,6,m,0.9957895999541506,1,91,test1,4,0.996076500043273,-50.0
11,lsm,f,19,r,2,(-121.76378772032348, 121.76378772032349),24,-25,14,yes,x,5,x,0.4068984999903478,1,92,test1,4,0.4071745000546798,-70.0
11,lsm,f,19,r,2,(172.20000000000002, 0.0),21,-25,14,yes,x,5,x,0.5357065999996848,1,93,test1,4,0.5359332999796607,-70.0
11,lsm,f,19,r,2,(-3.163262682197613e-14, -172.20000000000002),27,-25,14,yes,x,5,x,0.49874589999672025,1,94,test1,4,0.49894380004843697,-70.0
11,lsm,f,19,r,2,(121.76378772032349, 121.76378772032349),22,25,4,yes,x,5,x,0.42392530001234263,1,95,test1,4,0.4243979000020772,-20.0
11,lsm,f,19,r,2,(121.76378772032349, 121.76378772032349),22,-3,11,yes,x,5,x,0.8856575000099838,1,96,test1,4,0.8857884999597445,-48.0
11,lsm,f,19,r,2,(121.76378772032349, 121.76378772032349),22,7,3,yes,x,5,x,0.41203930001938716,1,1,test2,4,0.41214109997963533,-38.0
11,lsm,f,19,r,2,(1.0544208940658713e-14, 172.20000000000002),23,-7,13,yes,x,5,x,0.3914869999862276,1,2,test2,4,0.391866099962499,-52.0
11,lsm,f,19,r,2,(1.0544208940658713e-14, 172.20000000000002),23,5,2,yes,x,5,x,0.4479532000259496,1,3,test2,4,0.44805509998695925,-40.0
11,lsm,f,19,r,2,(172.20000000000002, 0.0),21,-3,11,yes,x,5,x,0.5732175000011921,1,4,test2,4,0.5733309999923222,-48.0
11,lsm,f,19,r,2,(121.76378772032346, -121.76378772032352),28,5,2,yes,x,5,x,0.5334441000013612,1,5,test2,4,0.5337093999842182,-40.0
11,lsm,f,19,r,2,(121.76378772032349, 121.76378772032349),22,-3,11,no,m,6,m,0.6596824000007473,1,6,test2,4,0.6598126000026241,-40.0
11,lsm,f,19,r,2,(121.76378772032346, -121.76378772032352),28,-25,14,yes,x,5,x,0.40998930000932887,1,7,test2,4,0.41024490003474057,-70.0
11,lsm,f,19,r,2,(121.76378772032346, -121.76378772032352),28,7,3,no,m,6,m,0.6249081999994814,1,8,test2,4,0.6250448999926448,-70.0
11,lsm,f,19,r,2,(172.20000000000002, 0.0),21,3,1,yes,x,5,x,1.1837639000150375,1,9,test2,4,1.1841070000082254,-42.0
11,lsm,f,19,r,2,(-121.76378772032348, 121.76378772032349),24,25,4,yes,x,5,x,0.4037495999946259,1,10,test2,4,0.40398699999786913,-20.0
11,lsm,f,19,r,2,(121.76378772032349, 121.76378772032349),22,-7,13,yes,x,5,x,0.4816465000039898,1,11,test2,4,0.4818564000306651,-52.0
11,lsm,f,19,r,2,(-172.20000000000002, 2.1088417881317425e-14),25,25,4,no,m,6,m,0.6183531999704428,1,12,test2,4,0.6189347999752499,-52.0
11,lsm,f,19,r,2,(-172.20000000000002, 2.1088417881317425e-14),25,25,4,yes,x,5,x,0.34837900003185496,1,13,test2,4,0.3489113000105135,-20.0
11,lsm,f,19,r,2,(-172.20000000000002, 2.1088417881317425e-14),25,-7,13,yes,x,5,x,0.39474040002096444,1,14,test2,4,0.3948400999652222,-52.0
11,lsm,f,19,r,2,(-121.76378772032352, -121.76378772032348),26,-7,13,yes,x,5,x,0.39067419996717945,1,15,test2,4,0.3908353999722749,-52.0
11,lsm,f,19,r,2,(172.20000000000002, 0.0),21,25,4,no,m,6,m,0.6336960999760777,1,16,test2,4,0.633814100001473,-52.0
11,lsm,f,19,r,2,(-172.20000000000002, 2.1088417881317425e-14),25,3,1,yes,x,5,x,0.8353925999836065,1,17,test2,4,0.8356158999959007,-42.0
11,lsm,f,19,r,2,(121.76378772032346, -121.76378772032352),28,3,1,no,m,6,m,0.5032080000382848,1,18,test2,4,0.5034355000243522,-42.0
11,lsm,f,19,r,2,(-121.76378772032348, 121.76378772032349),24,7,3,yes,x,5,x,0.47280859999591485,1,19,test2,4,0.47342809999827296,-38.0
11,lsm,f,19,r,2,(-121.76378772032348, 121.76378772032349),24,3,1,yes,x,5,x,0.8198261999641545,1,20,test2,4,0.8200743000488728,-42.0
11,lsm,f,19,r,2,(-121.76378772032352, -121.76378772032348),26,25,4,no,m,6,m,0.7211625999771059,1,21,test2,4,0.7213845999795012,-42.0
11,lsm,f,19,r,2,(172.20000000000002, 0.0),21,-3,11,no,m,6,m,0.6257339000003412,1,22,test2,4,0.6258313999860547,-42.0
11,lsm,f,19,r,2,(1.0544208940658713e-14, 172.20000000000002),23,3,1,no,m,6,m,0.5193727999576367,1,23,test2,4,0.5195361999794841,-42.0
11,lsm,f,19,r,2,(121.76378772032346, -121.76378772032352),28,25,4,yes,x,5,x,0.5400093999924138,1,24,test2,4,0.5401850000489503,-20.0
11,lsm,f,19,r,2,(121.76378772032346, -121.76378772032352),28,-25,14,yes,x,5,x,0.3340462999767624,1,25,test2,4,0.33434020000277087,-70.0
11,lsm,f,19,r,2,(172.20000000000002, 0.0),21,5,2,no,m,6,m,1.388471100013703,1,26,test2,4,1.3887514000525698,-70.0
11,lsm,f,19,r,2,(121.76378772032349, 121.76378772032349),22,-5,12,yes,x,5,x,0.9163694999879226,1,27,test2,4,0.9164632000029087,-50.0
11,lsm,f,19,r,2,(-172.20000000000002, 2.1088417881317425e-14),25,-7,13,no,m,6,m,1.0437386999838054,1,28,test2,4,1.0443275999859907,-50.0
11,lsm,f,19,r,2,(-172.20000000000002, 2.1088417881317425e-14),25,3,1,no,m,6,m,0.6385768000036478,1,29,test2,4,0.6387074000085704,-50.0
11,lsm,f,19,r,2,(121.76378772032346, -121.76378772032352),28,25,4,yes,x,5,x,0.4445364000275731,1,30,test2,4,0.4448244000086561,-20.0
11,lsm,f,19,r,2,(-121.76378772032348, 121.76378772032349),24,-5,12,yes,x,5,x,0.5057479999959469,1,31,test2,4,0.5058732999605127,-50.0
11,lsm,f,19,r,2,(1.0544208940658713e-14, 172.20000000000002),23,25,4,yes,x,5,x,0.39104560000123456,1,32,test2,4,0.3915232000290416,-20.0
11,lsm,f,19,r,2,(1.0544208940658713e-14, 172.20000000000002),23,-7,13,yes,x,5,x,0.4316850999603048,1,33,test2,4,0.43224320001900196,-52.0
11,lsm,f,19,r,2,(121.76378772032346, -121.76378772032352),28,-5,12,no,m,6,m,0.8203173999791034,1,34,test2,4,0.8206002999795601,-52.0
11,lsm,f,19,r,2,(1.0544208940658713e-14, 172.20000000000002),23,7,3,yes,x,5,x,0.7633870000136085,1,35,test2,4,0.7640726999961771,-38.0
11,lsm,f,19,r,2,(-172.20000000000002, 2.1088417881317425e-14),25,-3,11,yes,x,5,m,1.0415375999873504,0,36,test2,4,1.041638900001999,-48.0
11,lsm,f,19,r,2,(-3.163262682197613e-14, -172.20000000000002),27,3,1,yes,x,5,m,0.8335086000151932,0,37,test2,4,0.833728700003121,-42.0
11,lsm,f,19,r,2,(-3.163262682197613e-14, -172.20000000000002),27,3,1,no,m,6,m,0.8455100000137463,1,38,test2,4,0.8456522999913432,-42.0
11,lsm,f,19,r,2,(172.20000000000002, 0.0),21,-7,13,no,m,6,m,1.3438445999636315,1,39,test2,4,1.3445290999952704,-42.0
11,lsm,f,19,r,2,(-172.20000000000002, 2.1088417881317425e-14),25,5,2,yes,x,5,x,0.6843728999956511,1,40,test2,4,0.6844692999729887,-40.0
11,lsm,f,19,r,2,(-3.163262682197613e-14, -172.20000000000002),27,-3,11,yes,x,5,x,0.7197530000121333,1,41,test2,4,0.7203835000400431,-48.0
11,lsm,f,19,r,2,(-121.76378772032348, 121.76378772032349),24,-3,11,yes,x,5,x,0.8557877999846824,1,42,test2,4,0.8564794000121765,-48.0
11,lsm,f,19,r,2,(121.76378772032349, 121.76378772032349),22,25,4,yes,x,5,x,0.49906750000081956,1,43,test2,4,0.4992408999823965,-20.0
11,lsm,f,19,r,2,(-121.76378772032352, -121.76378772032348),26,7,3,yes,x,5,x,0.4674061000114307,1,44,test2,4,0.4677901999675669,-38.0
11,lsm,f,19,r,2,(1.0544208940658713e-14, 172.20000000000002),23,-7,13,no,m,6,x,0.7286458999733441,0,45,test2,4,0.7290583999711089,-38.0
11,lsm,f,19,r,2,(-3.163262682197613e-14, -172.20000000000002),27,7,3,yes,x,5,x,0.4530751000274904,1,46,test2,4,0.45317359996261075,-38.0
11,lsm,f,19,r,2,(-121.76378772032352, -121.76378772032348),26,-3,11,no,m,6,m,0.744268300011754,1,47,test2,4,0.7445523000205867,-38.0
11,lsm,f,19,r,2,(-3.163262682197613e-14, -172.20000000000002),27,7,3,yes,x,5,x,0.34537599998293445,1,48,test2,4,0.3455365999834612,-38.0
11,lsm,f,19,r,2,(121.76378772032349, 121.76378772032349),22,7,3,yes,x,5,x,0.4313671999843791,1,49,test2,4,0.43146220000926405,-38.0
11,lsm,f,19,r,2,(121.76378772032349, 121.76378772032349),22,-25,14,yes,x,5,x,0.4060182999819517,1,50,test2,4,0.4061140000121668,-70.0
11,lsm,f,19,r,2,(-121.76378772032352, -121.76378772032348),26,-5,12,no,m,6,m,0.8210320000071079,1,51,test2,4,0.8212576000369154,-70.0
11,lsm,f,19,r,2,(121.76378772032349, 121.76378772032349),22,5,2,no,m,6,x,0.3532268000417389,0,52,test2,4,0.35336270002881065,-70.0
11,lsm,f,19,r,2,(-121.76378772032352, -121.76378772032348),26,-25,14,yes,x,5,x,0.36121270002331585,1,53,test2,4,0.36153750005178154,-70.0
11,lsm,f,19,r,2,(1.0544208940658713e-14, 172.20000000000002),23,5,2,yes,x,5,x,0.6523646999849007,1,54,test2,4,0.6524971000035293,-40.0
11,lsm,f,19,r,2,(-3.163262682197613e-14, -172.20000000000002),27,3,1,yes,x,5,x,1.4624851000262424,1,55,test2,4,1.4626038999995217,-42.0
11,lsm,f,19,r,2,(-121.76378772032352, -121.76378772032348),26,7,3,no,m,6,m,1.1961155000026338,1,56,test2,4,1.1962225000024773,-42.0
11,lsm,f,19,r,2,(1.0544208940658713e-14, 172.20000000000002),23,-25,14,yes,x,5,x,0.3902244999771938,1,57,test2,4,0.3903835999662988,-70.0
11,lsm,f,19,r,2,(-172.20000000000002, 2.1088417881317425e-14),25,3,1,yes,x,5,x,1.467020499985665,1,58,test2,4,1.467119199980516,-42.0
11,lsm,f,19,r,2,(121.76378772032349, 121.76378772032349),22,-5,12,yes,x,5,x,0.5949129000073299,1,59,test2,4,0.5953262999537401,-50.0
11,lsm,f,19,r,2,(1.0544208940658713e-14, 172.20000000000002),23,-25,14,no,m,6,m,1.128862300014589,1,60,test2,4,1.1289909000042826,-50.0
11,lsm,f,19,r,2,(-3.163262682197613e-14, -172.20000000000002),27,-7,13,yes,x,5,x,0.44459690002258867,1,61,test2,4,0.44471849995898083,-52.0
11,lsm,f,19,r,2,(-121.76378772032348, 121.76378772032349),24,-7,13,yes,x,5,x,0.7746980999945663,1,62,test2,4,0.7747995000099763,-52.0
11,lsm,f,19,r,2,(121.76378772032346, -121.76378772032352),28,-5,12,yes,x,5,x,0.5810822999919765,1,63,test2,4,0.5812091000261717,-50.0
11,lsm,f,19,r,2,(172.20000000000002, 0.0),21,25,4,yes,x,5,x,0.47567369998432696,1,64,test2,4,0.4757654999848455,-20.0
11,lsm,f,19,r,2,(-3.163262682197613e-14, -172.20000000000002),27,-25,14,yes,x,5,x,0.41670780000276864,1,65,test2,4,0.41692069999407977,-70.0
11,lsm,f,19,r,2,(121.76378772032346, -121.76378772032352),28,-7,13,yes,x,5,x,0.4361646000179462,1,66,test2,4,0.4362872000201605,-52.0
11,lsm,f,19,r,2,(121.76378772032349, 121.76378772032349),22,3,1,no,m,6,m,0.7558016999973916,1,67,test2,4,0.756149800028652,-52.0
11,lsm,f,19,r,2,(121.76378772032346, -121.76378772032352),28,5,2,yes,x,5,x,0.7335019999882206,1,68,test2,4,0.7338046000222676,-40.0
11,lsm,f,19,r,2,(121.76378772032349, 121.76378772032349),22,5,2,yes,x,5,x,0.5984175999765284,1,69,test2,4,0.5988781999913044,-40.0
11,lsm,f,19,r,2,(-172.20000000000002, 2.1088417881317425e-14),25,-25,14,no,m,6,m,0.7901225000387058,1,70,test2,4,0.7902373999822885,-40.0
11,lsm,f,19,r,2,(-3.163262682197613e-14, -172.20000000000002),27,-3,11,yes,x,5,x,0.5640482999733649,1,71,test2,4,0.5645094000501558,-48.0
11,lsm,f,19,r,2,(-121.76378772032348, 121.76378772032349),24,3,1,no,m,6,m,0.6439612000249326,1,72,test2,4,0.644443399971351,-48.0
11,lsm,f,19,r,2,(1.0544208940658713e-14, 172.20000000000002),23,25,4,no,m,6,x,0.9535073000006378,0,73,test2,4,0.953788600047119,-48.0
11,lsm,f,19,r,2,(1.0544208940658713e-14, 172.20000000000002),23,25,4,yes,x,5,x,0.43596010003238916,1,74,test2,4,0.43619169999146834,-20.0
11,lsm,f,19,r,2,(1.0544208940658713e-14, 172.20000000000002),23,-3,11,no,m,6,m,0.6829486999777146,1,75,test2,4,0.6832412999938242,-20.0
11,lsm,f,19,r,2,(-3.163262682197613e-14, -172.20000000000002),27,-7,13,yes,x,5,x,0.3834950000164099,1,76,test2,4,0.3840906000114046,-52.0
