subj_id,subj_name,subj_gender ,subj_age,subj_handedness,subj_runNum,tar_l_x,tar_l_y,loc_code,tar_ori,tar_code,tar_pre ,cor_response,pre_code,subj_response,RT,correct,trial_num,type,bloc_num,dur, real_tar
11,lsm,f,19,r,1,(-121.76378772032352, -121.76378772032348),26,7,3,yes,x,5,m,1.5107174000004306,0,1,prac,0,1.511108900012914,-38.0
11,lsm,f,19,r,1,(121.76378772032346, -121.76378772032352),28,-3,11,yes,x,5,m,0.7734612000058405,0,2,prac,0,0.7736978000029922,-48.0
11,lsm,f,19,r,1,(-172.20000000000002, 2.1088417881317425e-14),25,-7,13,no,m,6,None,None,0,3,prac,0,1.9800860999966972,-48.0
11,lsm,f,19,r,1,(-3.163262682197613e-14, -172.20000000000002),27,25,4,yes,x,5,x,1.5963268000050448,1,4,prac,0,1.5966342000174336,-20.0
11,lsm,f,19,r,1,(-172.20000000000002, 2.1088417881317425e-14),25,25,4,yes,x,5,x,0.7536349999718368,1,5,prac,0,0.7540212000021711,-20.0
11,lsm,f,19,r,1,(172.20000000000002, 0.0),21,-3,11,yes,x,5,m,0.712840199994389,0,6,prac,0,0.7130081999930553,-48.0
11,lsm,f,19,r,1,(1.0544208940658713e-14, 172.20000000000002),23,25,4,yes,x,5,x,0.58047310000984,1,7,prac,0,0.580829199985601,-20.0
11,lsm,f,19,r,1,(1.0544208940658713e-14, 172.20000000000002),23,-3,11,yes,x,5,m,1.098379399976693,0,8,prac,0,1.0987381000304595,-48.0
11,lsm,f,19,r,1,(-121.76378772032348, 121.76378772032349),24,-5,12,yes,x,5,x,1.7698437999933958,1,9,prac,0,1.770090700010769,-50.0
11,lsm,f,19,r,1,(-172.20000000000002, 2.1088417881317425e-14),25,-3,11,yes,x,5,None,None,0,10,prac,0,1.9801009999937378,-48.0
11,lsm,f,19,r,1,(-121.76378772032352, -121.76378772032348),26,25,4,yes,x,5,x,0.619063800026197,1,11,prac,0,0.6194885000004433,-20.0
11,lsm,f,19,r,1,(-3.163262682197613e-14, -172.20000000000002),27,25,4,no,m,6,m,1.7323118000058457,1,12,prac,0,1.7326501000206918,-20.0
11,lsm,f,19,r,1,(121.76378772032349, 121.76378772032349),22,3,1,yes,x,5,x,1.4308371000224724,1,13,prac,0,1.4309530000318773,-42.0
11,lsm,f,19,r,1,(-121.76378772032348, 121.76378772032349),24,-25,14,no,m,6,m,1.64116689999355,1,14,prac,0,1.641269400017336,-42.0
11,lsm,f,19,r,1,(-121.76378772032352, -121.76378772032348),26,3,1,no,m,6,None,None,0,15,prac,0,1.980085399991367,-42.0
11,lsm,f,19,r,1,(-121.76378772032348, 121.76378772032349),24,7,3,no,m,6,None,None,0,16,prac,0,1.980131699994672,-42.0
11,lsm,f,19,r,1,(-3.163262682197613e-14, -172.20000000000002),27,-25,14,yes,x,5,x,0.7161964999977499,1,17,prac,0,0.7163098999881186,-70.0
11,lsm,f,19,r,1,(121.76378772032349, 121.76378772032349),22,7,3,no,m,6,m,0.8130387000273913,1,18,prac,0,0.8132711999933235,-70.0
11,lsm,f,19,r,1,(1.0544208940658713e-14, 172.20000000000002),23,-5,12,yes,x,5,x,0.7533241000492126,1,19,prac,0,0.7534842000459321,-50.0
11,lsm,f,19,r,1,(-121.76378772032352, -121.76378772032348),26,-7,13,no,m,6,m,0.7479926000232808,1,20,prac,0,0.7482240000390448,-50.0
11,lsm,f,19,r,1,(-121.76378772032352, -121.76378772032348),26,-7,13,yes,x,5,x,0.6359627000056207,1,1,test1,1,0.6360606999951415,-52.0
11,lsm,f,19,r,1,(-121.76378772032352, -121.76378772032348),26,-25,14,no,m,6,x,1.413891899981536,0,2,test1,1,1.4143159000086598,-52.0
11,lsm,f,19,r,1,(-121.76378772032348, 121.76378772032349),24,-25,14,yes,x,5,x,0.4944398000370711,1,3,test1,1,0.4945415999973193,-70.0
11,lsm,f,19,r,1,(121.76378772032346, -121.76378772032352),28,-3,11,yes,x,5,m,1.2199788000434637,0,4,test1,1,1.2201405999949202,-48.0
11,lsm,f,19,r,1,(-172.20000000000002, 2.1088417881317425e-14),25,25,4,yes,x,5,x,0.5057273000129499,1,5,test1,1,0.505952600040473,-20.0
11,lsm,f,19,r,1,(-172.20000000000002, 2.1088417881317425e-14),25,7,3,yes,x,5,x,1.1429775000433438,1,6,test1,1,1.1432214000378735,-38.0
11,lsm,f,19,r,1,(121.76378772032349, 121.76378772032349),22,-5,12,no,m,6,m,1.4246585999499075,1,7,test1,1,1.424846299982164,-38.0
11,lsm,f,19,r,1,(1.0544208940658713e-14, 172.20000000000002),23,5,2,yes,x,5,x,1.0711092000128701,1,8,test1,1,1.0714257000363432,-40.0
11,lsm,f,19,r,1,(-121.76378772032348, 121.76378772032349),24,7,3,yes,x,5,m,0.954888199979905,0,9,test1,1,0.9550663999980316,-38.0
11,lsm,f,19,r,1,(1.0544208940658713e-14, 172.20000000000002),23,3,1,yes,x,5,m,1.0270981999929063,0,10,test1,1,1.0275598000152968,-42.0
11,lsm,f,19,r,1,(1.0544208940658713e-14, 172.20000000000002),23,-7,13,yes,x,5,x,0.5745718000107445,1,11,test1,1,0.5746707999496721,-52.0
11,lsm,f,19,r,1,(172.20000000000002, 0.0),21,7,3,yes,x,5,x,1.1687144999741577,1,12,test1,1,1.1690072999917902,-38.0
11,lsm,f,19,r,1,(121.76378772032349, 121.76378772032349),22,-7,13,no,m,6,None,None,0,13,test1,1,1.9800826999708079,-38.0
11,lsm,f,19,r,1,(172.20000000000002, 0.0),21,25,4,yes,x,5,x,0.4921035000006668,1,14,test1,1,0.4924458999885246,-20.0
11,lsm,f,19,r,1,(-121.76378772032352, -121.76378772032348),26,7,3,yes,x,5,x,0.5484613999724388,1,15,test1,1,0.5485850999830291,-38.0
11,lsm,f,19,r,1,(-3.163262682197613e-14, -172.20000000000002),27,-5,12,yes,x,5,x,0.6122845000354573,1,16,test1,1,0.6127873999648727,-50.0
11,lsm,f,19,r,1,(-172.20000000000002, 2.1088417881317425e-14),25,-3,11,yes,x,5,m,0.9103729000198655,0,17,test1,1,0.9108636999735609,-48.0
11,lsm,f,19,r,1,(-121.76378772032348, 121.76378772032349),24,-7,13,no,m,6,m,0.8964461000286974,1,18,test1,1,0.8966802000068128,-48.0
11,lsm,f,19,r,1,(121.76378772032346, -121.76378772032352),28,7,3,no,m,6,m,1.1978081000270322,1,19,test1,1,1.1979131000116467,-48.0
11,lsm,f,19,r,1,(-172.20000000000002, 2.1088417881317425e-14),25,3,1,yes,x,5,m,1.7179420000175014,0,20,test1,1,1.7181650000275113,-42.0
11,lsm,f,19,r,1,(-3.163262682197613e-14, -172.20000000000002),27,7,3,yes,x,5,x,0.5287035999936052,1,21,test1,1,0.5292216999805532,-38.0
11,lsm,f,19,r,1,(-3.163262682197613e-14, -172.20000000000002),27,-7,13,yes,x,5,x,0.5711126999813132,1,22,test1,1,0.5713166000205092,-52.0
11,lsm,f,19,r,1,(-3.163262682197613e-14, -172.20000000000002),27,-25,14,no,m,6,m,1.0674020000151359,1,23,test1,1,1.06750230002217,-52.0
11,lsm,f,19,r,1,(-3.163262682197613e-14, -172.20000000000002),27,-25,14,yes,x,5,x,0.5077817999990657,1,24,test1,1,0.5083059000317007,-70.0
11,lsm,f,19,r,1,(-3.163262682197613e-14, -172.20000000000002),27,-3,11,yes,x,5,x,0.7323920000344515,1,25,test1,1,0.7327040999662131,-48.0
11,lsm,f,19,r,1,(-121.76378772032348, 121.76378772032349),24,-3,11,yes,x,5,m,0.8596097999834456,0,26,test1,1,0.8598329999949783,-48.0
11,lsm,f,19,r,1,(172.20000000000002, 0.0),21,-25,14,yes,x,5,x,0.550614100007806,1,27,test1,1,0.5508459000266157,-70.0
11,lsm,f,19,r,1,(-121.76378772032352, -121.76378772032348),26,3,1,no,m,6,m,0.7241530999890529,1,28,test1,1,0.7244489000295289,-70.0
11,lsm,f,19,r,1,(-121.76378772032352, -121.76378772032348),26,25,4,yes,x,5,x,0.5443670999957249,1,29,test1,1,0.5447423000005074,-20.0
11,lsm,f,19,r,1,(121.76378772032349, 121.76378772032349),22,-25,14,yes,x,5,x,0.9648136000032537,1,30,test1,1,0.9653395999921486,-70.0
11,lsm,f,19,r,1,(121.76378772032346, -121.76378772032352),28,-25,14,yes,x,5,x,0.5619527000235394,1,31,test1,1,0.5621626999927685,-70.0
11,lsm,f,19,r,1,(-121.76378772032352, -121.76378772032348),26,3,1,yes,x,5,m,1.0622307999874465,0,32,test1,1,1.062930200016126,-42.0
11,lsm,f,19,r,1,(-3.163262682197613e-14, -172.20000000000002),27,25,4,no,m,6,m,1.4294579999987036,1,33,test1,1,1.4297035000054166,-42.0
11,lsm,f,19,r,1,(-121.76378772032352, -121.76378772032348),26,-3,11,no,m,6,m,1.7451045000343584,1,34,test1,1,1.745207500003744,-42.0
11,lsm,f,19,r,1,(-121.76378772032352, -121.76378772032348),26,5,2,no,m,6,m,1.046022999973502,1,35,test1,1,1.046450299967546,-42.0
11,lsm,f,19,r,1,(121.76378772032346, -121.76378772032352),28,5,2,no,m,6,m,0.8983553000143729,1,36,test1,1,0.8985624000197276,-42.0
11,lsm,f,19,r,1,(-121.76378772032348, 121.76378772032349),24,25,4,yes,x,5,x,0.5385029999888502,1,37,test1,1,0.5388095999951474,-20.0
11,lsm,f,19,r,1,(-172.20000000000002, 2.1088417881317425e-14),25,-7,13,yes,x,5,x,0.8503552000038326,1,38,test1,1,0.8507898999960162,-52.0
11,lsm,f,19,r,1,(1.0544208940658713e-14, 172.20000000000002),23,25,4,no,m,6,m,0.7094670999795198,1,39,test1,1,0.7096860000165179,-52.0
11,lsm,f,19,r,1,(172.20000000000002, 0.0),21,-7,13,yes,x,5,x,0.8680855999700725,1,40,test1,1,0.8682345999986865,-52.0
11,lsm,f,19,r,1,(-172.20000000000002, 2.1088417881317425e-14),25,-25,14,yes,x,5,x,0.46154010004829615,1,41,test1,1,0.46182799997041,-70.0
11,lsm,f,19,r,1,(121.76378772032349, 121.76378772032349),22,5,2,yes,x,5,m,0.8854591999552213,0,42,test1,1,0.8855654000071809,-40.0
11,lsm,f,19,r,1,(1.0544208940658713e-14, 172.20000000000002),23,5,2,yes,x,5,x,0.7820118000381626,1,43,test1,1,0.7822925999644212,-40.0
11,lsm,f,19,r,1,(121.76378772032346, -121.76378772032352),28,25,4,yes,x,5,x,0.6360648999689147,1,44,test1,1,0.6364795999834314,-20.0
11,lsm,f,19,r,1,(-121.76378772032348, 121.76378772032349),24,5,2,no,m,6,m,1.0034809000208043,1,45,test1,1,1.0037071999977343,-20.0
11,lsm,f,19,r,1,(172.20000000000002, 0.0),21,-3,11,no,m,6,m,1.4077486000023782,1,46,test1,1,1.4079177000094205,-20.0
11,lsm,f,19,r,1,(121.76378772032349, 121.76378772032349),22,-3,11,yes,x,5,x,0.9741821000352502,1,47,test1,1,0.9746040000463836,-48.0
11,lsm,f,19,r,1,(-121.76378772032352, -121.76378772032348),26,7,3,no,m,6,m,0.9749168999842368,1,48,test1,1,0.9752657999633811,-48.0
11,lsm,f,19,r,1,(121.76378772032349, 121.76378772032349),22,25,4,yes,x,5,x,0.5142776999855414,1,49,test1,1,0.5143742999644019,-20.0
11,lsm,f,19,r,1,(-121.76378772032348, 121.76378772032349),24,5,2,yes,x,5,x,0.8918599999742582,1,50,test1,1,0.8922722999705002,-40.0
11,lsm,f,19,r,1,(1.0544208940658713e-14, 172.20000000000002),23,-7,13,yes,x,5,x,0.6243034999934025,1,51,test1,1,0.624402999994345,-52.0
11,lsm,f,19,r,1,(1.0544208940658713e-14, 172.20000000000002),23,7,3,no,m,6,m,1.3345561000169255,1,52,test1,1,1.3352056999574415,-52.0
11,lsm,f,19,r,1,(-121.76378772032348, 121.76378772032349),24,-5,12,no,m,6,m,0.9259922000346705,1,53,test1,1,0.9264638999593444,-52.0
11,lsm,f,19,r,1,(-3.163262682197613e-14, -172.20000000000002),27,-7,13,yes,x,5,x,0.562900000018999,1,54,test1,1,0.5629978000069968,-52.0
11,lsm,f,19,r,1,(-121.76378772032352, -121.76378772032348),26,3,1,yes,x,5,x,1.6614905000315048,1,55,test1,1,1.661762700008694,-42.0
11,lsm,f,19,r,1,(-121.76378772032352, -121.76378772032348),26,25,4,yes,x,5,x,0.4544854999985546,1,56,test1,1,0.45460559998173267,-20.0
11,lsm,f,19,r,1,(172.20000000000002, 0.0),21,-3,11,yes,x,5,m,1.1297981000388972,0,57,test1,1,1.1299258000217378,-48.0
11,lsm,f,19,r,1,(121.76378772032349, 121.76378772032349),22,-7,13,yes,x,5,x,0.540991599962581,1,58,test1,1,0.541338499984704,-52.0
11,lsm,f,19,r,1,(-121.76378772032352, -121.76378772032348),26,5,2,yes,x,5,x,0.558136600011494,1,59,test1,1,0.5584227000363171,-40.0
11,lsm,f,19,r,1,(-3.163262682197613e-14, -172.20000000000002),27,-5,12,yes,x,5,x,0.5779683000291698,1,60,test1,1,0.5780928000458516,-50.0
11,lsm,f,19,r,1,(121.76378772032346, -121.76378772032352),28,-5,12,no,m,6,m,0.9101260000024922,1,61,test1,1,0.9103745999746025,-50.0
11,lsm,f,19,r,1,(-3.163262682197613e-14, -172.20000000000002),27,25,4,yes,x,5,x,0.4137293000239879,1,62,test1,1,0.41406540002208203,-20.0
11,lsm,f,19,r,1,(-172.20000000000002, 2.1088417881317425e-14),25,3,1,yes,x,5,m,1.250124300015159,0,63,test1,1,1.250224600022193,-42.0
11,lsm,f,19,r,1,(1.0544208940658713e-14, 172.20000000000002),23,25,4,yes,x,5,x,0.6159152999753132,1,64,test1,1,0.6160298999748193,-20.0
11,lsm,f,19,r,1,(121.76378772032349, 121.76378772032349),22,5,2,no,m,6,m,1.7362260000081733,1,65,test1,1,1.73732580000069,-20.0
11,lsm,f,19,r,1,(121.76378772032346, -121.76378772032352),28,3,1,yes,x,5,m,1.1502974000177346,0,66,test1,1,1.1504145999788307,-42.0
11,lsm,f,19,r,1,(1.0544208940658713e-14, 172.20000000000002),23,-5,12,no,m,6,m,1.034919700003229,1,67,test1,1,1.0351142000290565,-42.0
11,lsm,f,19,r,1,(172.20000000000002, 0.0),21,5,2,no,m,6,m,1.0671330000041053,1,68,test1,1,1.0673600999871269,-42.0
11,lsm,f,19,r,1,(1.0544208940658713e-14, 172.20000000000002),23,3,1,no,m,6,m,0.9464733999921009,1,69,test1,1,0.9465682000154629,-42.0
11,lsm,f,19,r,1,(121.76378772032349, 121.76378772032349),22,3,1,no,m,6,m,0.9204434999846853,1,70,test1,1,0.9207432999974117,-42.0
11,lsm,f,19,r,1,(-121.76378772032348, 121.76378772032349),24,7,3,no,m,6,m,0.8907155000488274,1,71,test1,1,0.8908439999795519,-42.0
11,lsm,f,19,r,1,(121.76378772032346, -121.76378772032352),28,5,2,yes,x,5,x,0.7541915000183508,1,72,test1,1,0.754423400037922,-40.0
11,lsm,f,19,r,1,(-3.163262682197613e-14, -172.20000000000002),27,3,1,no,m,6,m,1.7203446000348777,1,73,test1,1,1.7206295000505634,-40.0
11,lsm,f,19,r,1,(121.76378772032346, -121.76378772032352),28,25,4,no,m,6,m,1.9332445000181906,1,74,test1,1,1.933416199986823,-40.0
11,lsm,f,19,r,1,(121.76378772032349, 121.76378772032349),22,3,1,yes,x,5,x,0.9133789999759756,1,75,test1,1,0.9136634999886155,-42.0
11,lsm,f,19,r,1,(121.76378772032346, -121.76378772032352),28,5,2,yes,x,5,x,0.7298429000074975,1,76,test1,1,0.7299443000229076,-40.0
11,lsm,f,19,r,1,(121.76378772032349, 121.76378772032349),22,-5,12,yes,x,5,x,1.0981715999660082,1,77,test1,1,1.0985279000014998,-50.0
11,lsm,f,19,r,1,(-3.163262682197613e-14, -172.20000000000002),27,3,1,yes,x,5,None,None,0,78,test1,1,1.9800926999887452,-42.0
11,lsm,f,19,r,1,(1.0544208940658713e-14, 172.20000000000002),23,7,3,yes,x,5,x,1.0199333000346087,1,79,test1,1,1.0201184999896213,-38.0
11,lsm,f,19,r,1,(172.20000000000002, 0.0),21,-5,12,yes,x,5,x,1.3169138999655843,1,80,test1,1,1.3171298999805003,-50.0
11,lsm,f,19,r,1,(-121.76378772032348, 121.76378772032349),24,7,3,yes,x,5,x,0.8005817000521347,1,81,test1,1,0.8011931000510231,-38.0
11,lsm,f,19,r,1,(121.76378772032346, -121.76378772032352),28,-7,13,no,m,6,m,0.9745748999994248,1,82,test1,1,0.9747951999888755,-38.0
11,lsm,f,19,r,1,(-172.20000000000002, 2.1088417881317425e-14),25,5,2,yes,x,5,x,0.6215479000238702,1,83,test1,1,0.6217163000255823,-40.0
11,lsm,f,19,r,1,(-121.76378772032352, -121.76378772032348),26,-7,13,no,m,6,m,1.9021512000472285,1,84,test1,1,1.9026202999521047,-40.0
11,lsm,f,19,r,1,(121.76378772032346, -121.76378772032352),28,-7,13,yes,x,5,x,0.9181744000525214,1,85,test1,1,0.918498599960003,-52.0
11,lsm,f,19,r,1,(-172.20000000000002, 2.1088417881317425e-14),25,-7,13,no,m,6,m,1.4068986999918707,1,86,test1,1,1.4070584999863058,-52.0
11,lsm,f,19,r,1,(-121.76378772032352, -121.76378772032348),26,7,3,yes,x,5,x,0.549184100003913,1,87,test1,1,0.5495847000274807,-38.0
11,lsm,f,19,r,1,(-3.163262682197613e-14, -172.20000000000002),27,5,2,no,m,6,m,1.581152300001122,1,88,test1,1,1.5815283000119962,-38.0
11,lsm,f,19,r,1,(-121.76378772032352, -121.76378772032348),26,-5,12,yes,x,5,x,0.5265843000379391,1,89,test1,1,0.5268080999958329,-50.0
11,lsm,f,19,r,1,(-121.76378772032352, -121.76378772032348),26,-25,14,yes,x,5,x,0.5043160000350326,1,90,test1,1,0.504557800013572,-70.0
11,lsm,f,19,r,1,(-3.163262682197613e-14, -172.20000000000002),27,25,4,yes,x,5,x,0.5582307000295259,1,91,test1,1,0.558328699960839,-20.0
11,lsm,f,19,r,1,(-121.76378772032348, 121.76378772032349),24,3,1,no,m,6,m,1.4931384000228718,1,92,test1,1,1.4932636999874376,-20.0
11,lsm,f,19,r,1,(1.0544208940658713e-14, 172.20000000000002),23,3,1,yes,x,5,x,0.6922472000005655,1,93,test1,1,0.6923774000024423,-42.0
11,lsm,f,19,r,1,(1.0544208940658713e-14, 172.20000000000002),23,-25,14,no,m,6,m,1.6616732000256889,1,94,test1,1,1.6619654999813065,-42.0
11,lsm,f,19,r,1,(121.76378772032349, 121.76378772032349),22,5,2,yes,x,5,x,0.7718550999998115,1,95,test1,1,0.7722032000310719,-40.0
11,lsm,f,19,r,1,(1.0544208940658713e-14, 172.20000000000002),23,-25,14,yes,x,5,x,0.5017344999941997,1,96,test1,1,0.5019624000415206,-70.0
11,lsm,f,19,r,1,(-121.76378772032352, -121.76378772032348),26,5,2,yes,x,5,x,0.7900946000008844,1,1,test2,1,0.7907264999812469,-40.0
11,lsm,f,19,r,1,(121.76378772032346, -121.76378772032352),28,-5,12,yes,x,5,x,1.2111908999504521,1,2,test2,1,1.2117232999880798,-50.0
11,lsm,f,19,r,1,(121.76378772032349, 121.76378772032349),22,7,3,yes,x,5,x,0.4597241999581456,1,3,test2,1,0.4599991000141017,-38.0
11,lsm,f,19,r,1,(172.20000000000002, 0.0),21,-5,12,no,m,6,m,1.5511767999851145,1,4,test2,1,1.551281000021845,-38.0
11,lsm,f,19,r,1,(1.0544208940658713e-14, 172.20000000000002),23,-5,12,yes,x,5,x,0.6040407000109553,1,5,test2,1,0.6046376000158489,-50.0
11,lsm,f,19,r,1,(121.76378772032346, -121.76378772032352),28,-25,14,yes,x,5,x,0.5531609000172466,1,6,test2,1,0.553409299987834,-70.0
11,lsm,f,19,r,1,(121.76378772032346, -121.76378772032352),28,3,1,no,m,6,m,0.8292847000411712,1,7,test2,1,0.8293831000337377,-70.0
11,lsm,f,19,r,1,(1.0544208940658713e-14, 172.20000000000002),23,5,2,no,m,6,m,1.1096546000335366,1,8,test2,1,1.1098069999716245,-70.0
11,lsm,f,19,r,1,(121.76378772032346, -121.76378772032352),28,-7,13,yes,x,5,x,0.5270334000233561,1,9,test2,1,0.5273610999574885,-52.0
11,lsm,f,19,r,1,(-121.76378772032352, -121.76378772032348),26,-5,12,no,m,6,m,0.6582234000088647,1,10,test2,1,0.658323899959214,-52.0
11,lsm,f,19,r,1,(-121.76378772032348, 121.76378772032349),24,3,1,yes,x,5,m,0.7953409000183456,0,11,test2,1,0.7955534000066109,-42.0
11,lsm,f,19,r,1,(-3.163262682197613e-14, -172.20000000000002),27,-7,13,no,m,6,m,0.6515479999943636,1,12,test2,1,0.6517717000097036,-42.0
11,lsm,f,19,r,1,(121.76378772032349, 121.76378772032349),22,3,1,yes,x,5,x,0.884013100003358,1,13,test2,1,0.8841379000223242,-42.0
11,lsm,f,19,r,1,(172.20000000000002, 0.0),21,3,1,yes,x,5,m,0.7938076999853365,0,14,test2,1,0.7941974999848753,-42.0
11,lsm,f,19,r,1,(121.76378772032346, -121.76378772032352),28,25,4,yes,x,5,x,0.5719474999932572,1,15,test2,1,0.5720785000012256,-20.0
11,lsm,f,19,r,1,(172.20000000000002, 0.0),21,-25,14,yes,x,5,x,0.49750760005554184,1,16,test2,1,0.4977863999665715,-70.0
11,lsm,f,19,r,1,(-172.20000000000002, 2.1088417881317425e-14),25,5,2,no,m,6,m,0.7752071999711916,1,17,test2,1,0.7758902999921702,-70.0
11,lsm,f,19,r,1,(172.20000000000002, 0.0),21,5,2,yes,x,5,x,1.0776079999632202,1,18,test2,1,1.0778317999793217,-40.0
11,lsm,f,19,r,1,(121.76378772032346, -121.76378772032352),28,-25,14,no,m,6,m,0.8417370999814011,1,19,test2,1,0.8418406000128016,-40.0
11,lsm,f,19,r,1,(121.76378772032349, 121.76378772032349),22,25,4,yes,x,5,x,0.4267346999840811,1,20,test2,1,0.42707150004571304,-20.0
11,lsm,f,19,r,1,(-121.76378772032348, 121.76378772032349),24,-25,14,no,m,6,m,0.7688331999816,1,21,test2,1,0.7689710999839008,-20.0
11,lsm,f,19,r,1,(-3.163262682197613e-14, -172.20000000000002),27,7,3,no,m,6,m,0.8893230999819934,1,22,test2,1,0.8899693000130355,-20.0
11,lsm,f,19,r,1,(-172.20000000000002, 2.1088417881317425e-14),25,-5,12,yes,x,5,x,0.6017626000102609,1,23,test2,1,0.6020704000256956,-50.0
11,lsm,f,19,r,1,(1.0544208940658713e-14, 172.20000000000002),23,-3,11,yes,x,5,x,0.8545215000049211,1,24,test2,1,0.8546442000078969,-48.0
11,lsm,f,19,r,1,(-172.20000000000002, 2.1088417881317425e-14),25,-3,11,no,m,6,m,0.7923602999653667,1,25,test2,1,0.7926332999486476,-48.0
11,lsm,f,19,r,1,(-121.76378772032348, 121.76378772032349),24,-7,13,yes,x,5,x,0.5813934000325389,1,26,test2,1,0.5814940999844112,-52.0
11,lsm,f,19,r,1,(121.76378772032349, 121.76378772032349),22,-25,14,yes,x,5,x,0.515025999979116,1,27,test2,1,0.5155483999988064,-70.0
11,lsm,f,19,r,1,(121.76378772032349, 121.76378772032349),22,7,3,no,m,6,m,0.7060127000440843,1,28,test2,1,0.7061449000029825,-70.0
11,lsm,f,19,r,1,(121.76378772032349, 121.76378772032349),22,25,4,no,m,6,x,0.6492599999764934,0,29,test2,1,0.6494294999865815,-70.0
11,lsm,f,19,r,1,(-172.20000000000002, 2.1088417881317425e-14),25,25,4,no,m,6,x,1.2607344999560155,0,30,test2,1,1.2608571999589913,-70.0
11,lsm,f,19,r,1,(-3.163262682197613e-14, -172.20000000000002),27,3,1,yes,x,5,x,1.0540611000033095,1,31,test2,1,1.0542768000159413,-42.0
11,lsm,f,19,r,1,(1.0544208940658713e-14, 172.20000000000002),23,25,4,yes,x,5,x,0.517892399977427,1,32,test2,1,0.5181867000064813,-20.0
11,lsm,f,19,r,1,(121.76378772032349, 121.76378772032349),22,-3,11,yes,x,5,x,1.2550793999689631,1,33,test2,1,1.2553112999885343,-48.0
11,lsm,f,19,r,1,(121.76378772032346, -121.76378772032352),28,-3,11,yes,x,5,m,1.011306300002616,0,34,test2,1,1.0116615000297315,-48.0
11,lsm,f,19,r,1,(172.20000000000002, 0.0),21,3,1,yes,x,5,m,1.0059285999741405,0,35,test2,1,1.0060506999725476,-42.0
11,lsm,f,19,r,1,(-121.76378772032352, -121.76378772032348),26,-5,12,yes,x,5,m,0.9950444999849424,0,36,test2,1,0.995173099974636,-50.0
11,lsm,f,19,r,1,(172.20000000000002, 0.0),21,25,4,yes,x,5,x,0.4759529000148177,1,37,test2,1,0.47612090001348406,-20.0
11,lsm,f,19,r,1,(172.20000000000002, 0.0),21,-5,12,yes,x,5,x,0.822401900019031,1,38,test2,1,0.8228172000381164,-50.0
11,lsm,f,19,r,1,(-121.76378772032348, 121.76378772032349),24,-3,11,yes,x,5,m,1.2335312000359409,0,39,test2,1,1.2336618999834172,-48.0
11,lsm,f,19,r,1,(172.20000000000002, 0.0),21,7,3,yes,x,5,x,0.4713497000047937,1,40,test2,1,0.4716900000348687,-38.0
11,lsm,f,19,r,1,(-121.76378772032348, 121.76378772032349),24,3,1,yes,x,5,x,1.0723990999977104,1,41,test2,1,1.0725282999919727,-42.0
11,lsm,f,19,r,1,(-3.163262682197613e-14, -172.20000000000002),27,7,3,yes,x,5,x,0.5745287000318058,1,42,test2,1,0.5746319000027142,-38.0
11,lsm,f,19,r,1,(121.76378772032349, 121.76378772032349),22,-3,11,no,m,6,m,1.0725239000166766,1,43,test2,1,1.0726310000172816,-38.0
11,lsm,f,19,r,1,(-3.163262682197613e-14, -172.20000000000002),27,-3,11,no,m,6,m,0.9161574000027031,1,44,test2,1,0.9166221999912523,-38.0
11,lsm,f,19,r,1,(1.0544208940658713e-14, 172.20000000000002),23,-3,11,no,m,6,m,0.8959628000156954,1,45,test2,1,0.8960614000097848,-38.0
11,lsm,f,19,r,1,(-172.20000000000002, 2.1088417881317425e-14),25,-25,14,yes,x,5,x,0.6086099999956787,1,46,test2,1,0.6090331999585032,-70.0
11,lsm,f,19,r,1,(121.76378772032346, -121.76378772032352),28,-3,11,no,m,6,m,0.7054942999966443,1,47,test2,1,0.7055917999823578,-70.0
11,lsm,f,19,r,1,(-121.76378772032352, -121.76378772032348),26,-7,13,yes,x,5,x,0.5065030999830924,1,48,test2,1,0.5068101999931969,-52.0
11,lsm,f,19,r,1,(121.76378772032346, -121.76378772032352),28,7,3,yes,x,5,x,1.2142190000158735,1,49,test2,1,1.2144389000022784,-38.0
11,lsm,f,19,r,1,(172.20000000000002, 0.0),21,7,3,no,m,6,m,0.8303984999656677,1,50,test2,1,0.830504400015343,-38.0
11,lsm,f,19,r,1,(-121.76378772032348, 121.76378772032349),24,-7,13,yes,x,5,x,0.5504326000227593,1,51,test2,1,0.5505992000107653,-52.0
11,lsm,f,19,r,1,(121.76378772032349, 121.76378772032349),22,-25,14,no,m,6,m,0.8904200000106357,1,52,test2,1,0.8907092000008561,-52.0
11,lsm,f,19,r,1,(-172.20000000000002, 2.1088417881317425e-14),25,7,3,yes,x,5,x,0.49736149999080226,1,53,test2,1,0.4974641000153497,-38.0
11,lsm,f,19,r,1,(172.20000000000002, 0.0),21,-7,13,no,m,6,x,1.12364379997598,0,54,test2,1,1.1240330000291578,-38.0
11,lsm,f,19,r,1,(-121.76378772032352, -121.76378772032348),26,-25,14,yes,x,5,x,0.47149690001970157,1,55,test2,1,0.47172349999891594,-70.0
11,lsm,f,19,r,1,(121.76378772032349, 121.76378772032349),22,7,3,yes,x,5,x,0.9179027000209317,1,56,test2,1,0.9180063999956474,-38.0
11,lsm,f,19,r,1,(121.76378772032349, 121.76378772032349),22,-5,12,yes,x,5,x,0.6199662999715656,1,57,test2,1,0.6203678000019863,-50.0
11,lsm,f,19,r,1,(172.20000000000002, 0.0),21,-3,11,yes,x,5,m,1.2399974999716505,0,58,test2,1,1.2401927000028081,-48.0
11,lsm,f,19,r,1,(-172.20000000000002, 2.1088417881317425e-14),25,-5,12,yes,x,5,x,0.8815234000212513,1,59,test2,1,0.8817485999898054,-50.0
11,lsm,f,19,r,1,(-3.163262682197613e-14, -172.20000000000002),27,5,2,yes,x,5,x,0.5676085000159219,1,60,test2,1,0.5678314999677241,-40.0
11,lsm,f,19,r,1,(-121.76378772032348, 121.76378772032349),24,5,2,yes,x,5,x,0.4852467000018805,1,61,test2,1,0.4853502999758348,-40.0
11,lsm,f,19,r,1,(-121.76378772032348, 121.76378772032349),24,-5,12,yes,x,5,x,0.8432813999825157,1,62,test2,1,0.8434569000382908,-50.0
11,lsm,f,19,r,1,(172.20000000000002, 0.0),21,-7,13,yes,x,5,x,0.5019143000245094,1,63,test2,1,0.5020342000061646,-52.0
11,lsm,f,19,r,1,(172.20000000000002, 0.0),21,5,2,yes,x,5,x,0.7479087999672629,1,64,test2,1,0.7487305999966338,-40.0
11,lsm,f,19,r,1,(-172.20000000000002, 2.1088417881317425e-14),25,7,3,no,m,6,m,0.9492987999692559,1,65,test2,1,0.9494221999775618,-40.0
11,lsm,f,19,r,1,(-3.163262682197613e-14, -172.20000000000002),27,-3,11,yes,x,5,m,1.0657912000315264,0,66,test2,1,1.0659832000383176,-48.0
11,lsm,f,19,r,1,(-121.76378772032348, 121.76378772032349),24,25,4,no,m,6,m,1.0841739000170492,1,67,test2,1,1.084492299996782,-48.0
11,lsm,f,19,r,1,(121.76378772032349, 121.76378772032349),22,-7,13,yes,x,5,x,0.536725000012666,1,68,test2,1,0.5370562000316568,-52.0
11,lsm,f,19,r,1,(-172.20000000000002, 2.1088417881317425e-14),25,-3,11,yes,x,5,x,1.3005907000042498,1,69,test2,1,1.3007074000197463,-48.0
11,lsm,f,19,r,1,(-121.76378772032348, 121.76378772032349),24,-3,11,no,m,6,m,1.258195500005968,1,70,test2,1,1.2583007999928668,-48.0
11,lsm,f,19,r,1,(-121.76378772032352, -121.76378772032348),26,25,4,no,m,6,m,1.1735793999978341,1,71,test2,1,1.1738002000492997,-48.0
11,lsm,f,19,r,1,(172.20000000000002, 0.0),21,25,4,no,m,6,m,0.98856040003011,1,72,test2,1,0.9888107999577187,-48.0
11,lsm,f,19,r,1,(1.0544208940658713e-14, 172.20000000000002),23,-5,12,yes,x,5,x,0.5534412999986671,1,73,test2,1,0.5538657999713905,-50.0
11,lsm,f,19,r,1,(-172.20000000000002, 2.1088417881317425e-14),25,3,1,no,m,6,m,0.91750579996733,1,74,test2,1,0.9179717999650165,-50.0
11,lsm,f,19,r,1,(121.76378772032346, -121.76378772032352),28,3,1,yes,x,5,m,0.9547678999952041,0,75,test2,1,0.9552561999880709,-42.0
11,lsm,f,19,r,1,(121.76378772032346, -121.76378772032352),28,7,3,yes,x,5,x,1.096760499989614,1,76,test2,1,1.0971509999944828,-38.0
11,lsm,f,19,r,1,(1.0544208940658713e-14, 172.20000000000002),23,-7,13,no,m,6,m,0.9788058999693021,1,77,test2,1,0.9789458999875933,-38.0
11,lsm,f,19,r,1,(121.76378772032346, -121.76378772032352),28,-5,12,yes,x,5,x,0.9713011999847367,1,78,test2,1,0.971401099988725,-50.0
11,lsm,f,19,r,1,(1.0544208940658713e-14, 172.20000000000002),23,7,3,yes,x,5,x,0.5144272000179626,1,79,test2,1,0.5145898999762721,-38.0
11,lsm,f,19,r,1,(-172.20000000000002, 2.1088417881317425e-14),25,5,2,yes,x,5,x,0.554478999983985,1,80,test2,1,0.5545942999888211,-40.0
11,lsm,f,19,r,1,(172.20000000000002, 0.0),21,-25,14,no,m,6,m,1.4079089000006206,1,81,test2,1,1.4082331999670714,-40.0
11,lsm,f,19,r,1,(-121.76378772032348, 121.76378772032349),24,25,4,yes,x,5,x,0.6670260000391863,1,82,test2,1,0.6673500000033528,-20.0
11,lsm,f,19,r,1,(-121.76378772032352, -121.76378772032348),26,-3,11,yes,x,5,x,1.5253949000034481,1,83,test2,1,1.5256816999753937,-48.0
11,lsm,f,19,r,1,(-3.163262682197613e-14, -172.20000000000002),27,-25,14,yes,x,5,x,0.6592702999478206,1,84,test2,1,0.6595517999958247,-70.0
11,lsm,f,19,r,1,(1.0544208940658713e-14, 172.20000000000002),23,-25,14,yes,x,5,x,0.6496477999608032,1,85,test2,1,0.6497782000224106,-70.0
11,lsm,f,19,r,1,(-3.163262682197613e-14, -172.20000000000002),27,-5,12,no,m,6,m,1.3444712000200525,1,86,test2,1,1.344945800025016,-70.0
11,lsm,f,19,r,1,(-172.20000000000002, 2.1088417881317425e-14),25,-5,12,no,m,6,m,0.925266099977307,1,87,test2,1,0.9253926000092179,-70.0
11,lsm,f,19,r,1,(-172.20000000000002, 2.1088417881317425e-14),25,25,4,yes,x,5,x,0.517611899995245,1,88,test2,1,0.5177104999893345,-20.0
11,lsm,f,19,r,1,(-3.163262682197613e-14, -172.20000000000002),27,5,2,yes,x,5,m,0.7067478999961168,0,89,test2,1,0.706920699973125,-40.0
11,lsm,f,19,r,1,(-172.20000000000002, 2.1088417881317425e-14),25,-7,13,yes,x,5,x,0.5366202000295743,1,90,test2,1,0.5367448999895714,-52.0
11,lsm,f,19,r,1,(-121.76378772032348, 121.76378772032349),24,-5,12,yes,x,5,x,0.8906992999836802,1,91,test2,1,0.8908615999971516,-50.0
11,lsm,f,19,r,1,(-121.76378772032348, 121.76378772032349),24,-25,14,yes,x,5,x,0.4220632000360638,1,92,test2,1,0.42216640000697225,-70.0
11,lsm,f,19,r,1,(-172.20000000000002, 2.1088417881317425e-14),25,-25,14,no,m,6,m,0.7157897000433877,1,93,test2,1,0.7160254000336863,-70.0
11,lsm,f,19,r,1,(-121.76378772032352, -121.76378772032348),26,-3,11,yes,x,5,m,1.5724110000301152,0,94,test2,1,1.5725597999989986,-48.0
11,lsm,f,19,r,1,(1.0544208940658713e-14, 172.20000000000002),23,-3,11,yes,x,5,x,0.9479098000447266,1,95,test2,1,0.9484030999592505,-48.0
11,lsm,f,19,r,1,(172.20000000000002, 0.0),21,3,1,no,m,6,m,1.040964099986013,1,96,test2,1,1.0411268000025302,-48.0
11,lsm,f,19,r,1,(-121.76378772032352, -121.76378772032348),26,-7,13,yes,x,5,x,0.6575937999878079,1,1,test1,2,0.6576963999541476,-52.0
11,lsm,f,19,r,1,(-121.76378772032352, -121.76378772032348),26,-25,14,no,m,6,m,0.7059995000017807,1,2,test1,2,0.7060973000479862,-52.0
11,lsm,f,19,r,1,(-121.76378772032348, 121.76378772032349),24,-25,14,yes,x,5,x,0.40527980000479147,1,3,test1,2,0.40549999999348074,-70.0
11,lsm,f,19,r,1,(121.76378772032346, -121.76378772032352),28,-3,11,yes,x,5,x,1.455764900019858,1,4,test1,2,1.4560739999869838,-48.0
11,lsm,f,19,r,1,(-172.20000000000002, 2.1088417881317425e-14),25,25,4,yes,x,5,x,0.39995659998385236,1,5,test1,2,0.4004197000176646,-20.0
11,lsm,f,19,r,1,(-172.20000000000002, 2.1088417881317425e-14),25,7,3,yes,x,5,x,0.4465774000273086,1,6,test1,2,0.44680220005102456,-38.0
11,lsm,f,19,r,1,(121.76378772032349, 121.76378772032349),22,-5,12,no,m,6,m,1.3458071000059135,1,7,test1,2,1.3459561999770813,-38.0
11,lsm,f,19,r,1,(1.0544208940658713e-14, 172.20000000000002),23,5,2,yes,x,5,x,0.588333900028374,1,8,test1,2,0.5887065000133589,-40.0
11,lsm,f,19,r,1,(-121.76378772032348, 121.76378772032349),24,7,3,yes,x,5,x,0.3530689000035636,1,9,test1,2,0.35319589998107404,-38.0
11,lsm,f,19,r,1,(1.0544208940658713e-14, 172.20000000000002),23,3,1,yes,x,5,x,0.8432056999881752,1,10,test1,2,0.8438139000209048,-42.0
11,lsm,f,19,r,1,(1.0544208940658713e-14, 172.20000000000002),23,-7,13,yes,x,5,x,0.39389080001274124,1,11,test1,2,0.39418010000372306,-52.0
11,lsm,f,19,r,1,(172.20000000000002, 0.0),21,7,3,yes,x,5,x,0.6035485999891534,1,12,test1,2,0.604164500022307,-38.0
11,lsm,f,19,r,1,(121.76378772032349, 121.76378772032349),22,-7,13,no,m,6,x,0.8474036999978125,0,13,test1,2,0.8476040000095963,-38.0
11,lsm,f,19,r,1,(172.20000000000002, 0.0),21,25,4,yes,x,5,x,0.49127679999219254,1,14,test1,2,0.49154710001312196,-20.0
11,lsm,f,19,r,1,(-121.76378772032352, -121.76378772032348),26,7,3,yes,x,5,x,0.5318346000276506,1,15,test1,2,0.5324253000435419,-38.0
11,lsm,f,19,r,1,(-3.163262682197613e-14, -172.20000000000002),27,-5,12,yes,x,5,x,0.5897870999760926,1,16,test1,2,0.5898886999930255,-50.0
11,lsm,f,19,r,1,(-172.20000000000002, 2.1088417881317425e-14),25,-3,11,yes,x,5,m,0.7850417000008747,0,17,test1,2,0.7851437000208534,-48.0
11,lsm,f,19,r,1,(-121.76378772032348, 121.76378772032349),24,-7,13,no,m,6,m,1.1182829000172205,1,18,test1,2,1.1184360000188462,-48.0
11,lsm,f,19,r,1,(121.76378772032346, -121.76378772032352),28,7,3,no,m,6,m,0.751484900014475,1,19,test1,2,0.75198309996631,-48.0
11,lsm,f,19,r,1,(-172.20000000000002, 2.1088417881317425e-14),25,3,1,yes,x,5,m,1.8941366999642923,0,20,test1,2,1.8943653999594972,-42.0
11,lsm,f,19,r,1,(-3.163262682197613e-14, -172.20000000000002),27,7,3,yes,x,5,x,0.47794419998535886,1,21,test1,2,0.47811889997683465,-38.0
11,lsm,f,19,r,1,(-3.163262682197613e-14, -172.20000000000002),27,-7,13,yes,x,5,x,0.6092972999904305,1,22,test1,2,0.6098928999854252,-52.0
11,lsm,f,19,r,1,(-3.163262682197613e-14, -172.20000000000002),27,-25,14,no,m,6,m,1.3687585999723524,1,23,test1,2,1.3690431999857537,-52.0
11,lsm,f,19,r,1,(-3.163262682197613e-14, -172.20000000000002),27,-25,14,yes,x,5,x,0.40990820003207773,1,24,test1,2,0.4104668000363745,-70.0
11,lsm,f,19,r,1,(-3.163262682197613e-14, -172.20000000000002),27,-3,11,yes,x,5,x,1.0352328000008129,1,25,test1,2,1.0354038000223227,-48.0
11,lsm,f,19,r,1,(-121.76378772032348, 121.76378772032349),24,-3,11,yes,x,5,m,1.1634409000398591,0,26,test1,2,1.1635686000226997,-48.0
11,lsm,f,19,r,1,(172.20000000000002, 0.0),21,-25,14,yes,x,5,x,0.41092649998608977,1,27,test1,2,0.4111381999682635,-70.0
11,lsm,f,19,r,1,(-121.76378772032352, -121.76378772032348),26,3,1,no,m,6,m,0.7855091000092216,1,28,test1,2,0.7861006000312045,-70.0
11,lsm,f,19,r,1,(-121.76378772032352, -121.76378772032348),26,25,4,yes,x,5,x,0.3713247000123374,1,29,test1,2,0.3717237999662757,-20.0
11,lsm,f,19,r,1,(121.76378772032349, 121.76378772032349),22,-25,14,yes,x,5,x,0.4185275000054389,1,30,test1,2,0.419162200007122,-70.0
11,lsm,f,19,r,1,(121.76378772032346, -121.76378772032352),28,-25,14,yes,x,5,x,0.3828654999961145,1,31,test1,2,0.38344130001496524,-70.0
11,lsm,f,19,r,1,(-121.76378772032352, -121.76378772032348),26,3,1,yes,x,5,m,0.7438968999776989,0,32,test1,2,0.7440660999855027,-42.0
11,lsm,f,19,r,1,(-3.163262682197613e-14, -172.20000000000002),27,25,4,no,m,6,x,0.4952239000122063,0,33,test1,2,0.4953784999670461,-42.0
11,lsm,f,19,r,1,(-121.76378772032352, -121.76378772032348),26,-3,11,no,m,6,m,1.1483896000427194,1,34,test1,2,1.1487534999614581,-42.0
11,lsm,f,19,r,1,(-121.76378772032352, -121.76378772032348),26,5,2,no,m,6,m,0.9480248000472784,1,35,test1,2,0.9483922999934293,-42.0
11,lsm,f,19,r,1,(121.76378772032346, -121.76378772032352),28,5,2,no,m,6,m,1.4113727000076324,1,36,test1,2,1.4118118000333197,-42.0
11,lsm,f,19,r,1,(-121.76378772032348, 121.76378772032349),24,25,4,yes,x,5,x,0.44480250001652166,1,37,test1,2,0.44528040004661307,-20.0
11,lsm,f,19,r,1,(-172.20000000000002, 2.1088417881317425e-14),25,-7,13,yes,x,5,x,0.7723634000285529,1,38,test1,2,0.7724922000197694,-52.0
11,lsm,f,19,r,1,(1.0544208940658713e-14, 172.20000000000002),23,25,4,no,m,6,m,0.9654298999812454,1,39,test1,2,0.965530099987518,-52.0
11,lsm,f,19,r,1,(172.20000000000002, 0.0),21,-7,13,yes,x,5,x,0.6778695000102744,1,40,test1,2,0.6784776999847963,-52.0
11,lsm,f,19,r,1,(-172.20000000000002, 2.1088417881317425e-14),25,-25,14,yes,x,5,x,0.5048271000268869,1,41,test1,2,0.5049235000042245,-70.0
11,lsm,f,19,r,1,(121.76378772032349, 121.76378772032349),22,5,2,yes,x,5,x,0.8159960999619216,1,42,test1,2,0.8164449000032619,-40.0
11,lsm,f,19,r,1,(1.0544208940658713e-14, 172.20000000000002),23,5,2,yes,x,5,x,0.5155522000277415,1,43,test1,2,0.5158377000479959,-40.0
11,lsm,f,19,r,1,(121.76378772032346, -121.76378772032352),28,25,4,yes,x,5,x,0.5487383000436239,1,44,test1,2,0.5488948000129312,-20.0
11,lsm,f,19,r,1,(-121.76378772032348, 121.76378772032349),24,5,2,no,m,6,m,1.1020812999922782,1,45,test1,2,1.1022128000040539,-20.0
11,lsm,f,19,r,1,(172.20000000000002, 0.0),21,-3,11,no,m,6,x,1.0510376999736764,0,46,test1,2,1.0512622999958694,-20.0
11,lsm,f,19,r,1,(121.76378772032349, 121.76378772032349),22,-3,11,yes,x,5,x,1.0590194999822415,1,47,test1,2,1.0593174999812618,-48.0
11,lsm,f,19,r,1,(-121.76378772032352, -121.76378772032348),26,7,3,no,m,6,m,1.220963500032667,1,48,test1,2,1.2210754999541678,-48.0
11,lsm,f,19,r,1,(121.76378772032349, 121.76378772032349),22,25,4,yes,x,5,x,0.4618938000057824,1,49,test1,2,0.4622182000312023,-20.0
11,lsm,f,19,r,1,(-121.76378772032348, 121.76378772032349),24,5,2,yes,x,5,x,0.5734503000276163,1,50,test1,2,0.5735499000293203,-40.0
11,lsm,f,19,r,1,(1.0544208940658713e-14, 172.20000000000002),23,-7,13,yes,x,5,x,0.6270545000443235,1,51,test1,2,0.6273887000279501,-52.0
11,lsm,f,19,r,1,(1.0544208940658713e-14, 172.20000000000002),23,7,3,no,m,6,m,1.2926058000302874,1,52,test1,2,1.292839300003834,-52.0
11,lsm,f,19,r,1,(-121.76378772032348, 121.76378772032349),24,-5,12,no,m,6,m,1.0868053999729455,1,53,test1,2,1.0869348000269383,-52.0
11,lsm,f,19,r,1,(-3.163262682197613e-14, -172.20000000000002),27,-7,13,yes,x,5,x,0.5082750999717973,1,54,test1,2,0.5086550999549218,-52.0
11,lsm,f,19,r,1,(-121.76378772032352, -121.76378772032348),26,3,1,yes,x,5,x,0.835924300015904,1,55,test1,2,0.836057799984701,-42.0
11,lsm,f,19,r,1,(-121.76378772032352, -121.76378772032348),26,25,4,yes,x,5,x,0.5329125999705866,1,56,test1,2,0.533043599978555,-20.0
11,lsm,f,19,r,1,(172.20000000000002, 0.0),21,-3,11,yes,x,5,m,0.7557810999569483,0,57,test1,2,0.755877599993255,-48.0
11,lsm,f,19,r,1,(121.76378772032349, 121.76378772032349),22,-7,13,yes,x,5,x,0.6391011999803595,1,58,test1,2,0.6392020999919623,-52.0
11,lsm,f,19,r,1,(-121.76378772032352, -121.76378772032348),26,5,2,yes,x,5,x,0.6082001000177115,1,59,test1,2,0.6082984000095166,-40.0
11,lsm,f,19,r,1,(-3.163262682197613e-14, -172.20000000000002),27,-5,12,yes,x,5,x,0.6759509000112303,1,60,test1,2,0.6764535999973305,-50.0
11,lsm,f,19,r,1,(121.76378772032346, -121.76378772032352),28,-5,12,no,m,6,m,1.4500705000245944,1,61,test1,2,1.4503943999879993,-50.0
11,lsm,f,19,r,1,(-3.163262682197613e-14, -172.20000000000002),27,25,4,yes,x,5,x,0.6064755999832414,1,62,test1,2,0.6065765999956056,-20.0
11,lsm,f,19,r,1,(-172.20000000000002, 2.1088417881317425e-14),25,3,1,yes,x,5,x,0.714055200049188,1,63,test1,2,0.7142167999991216,-42.0
11,lsm,f,19,r,1,(1.0544208940658713e-14, 172.20000000000002),23,25,4,yes,x,5,x,0.4218036000384018,1,64,test1,2,0.42209829995408654,-20.0
11,lsm,f,19,r,1,(121.76378772032349, 121.76378772032349),22,5,2,no,m,6,m,1.039489599992521,1,65,test1,2,1.0396160000236705,-20.0
11,lsm,f,19,r,1,(121.76378772032346, -121.76378772032352),28,3,1,yes,x,5,m,1.0363996000378393,0,66,test1,2,1.037155200028792,-42.0
11,lsm,f,19,r,1,(1.0544208940658713e-14, 172.20000000000002),23,-5,12,no,m,6,m,1.1096969000063837,1,67,test1,2,1.1099089999916032,-42.0
11,lsm,f,19,r,1,(172.20000000000002, 0.0),21,5,2,no,m,6,m,0.7791666999692097,1,68,test1,2,0.7793757999897934,-42.0
11,lsm,f,19,r,1,(1.0544208940658713e-14, 172.20000000000002),23,3,1,no,m,6,m,0.9543476000544615,1,69,test1,2,0.9544847999932244,-42.0
11,lsm,f,19,r,1,(121.76378772032349, 121.76378772032349),22,3,1,no,m,6,m,1.3511171999853104,1,70,test1,2,1.3514501000172459,-42.0
11,lsm,f,19,r,1,(-121.76378772032348, 121.76378772032349),24,7,3,no,m,6,m,1.190463000035379,1,71,test1,2,1.1907291999668814,-42.0
11,lsm,f,19,r,1,(121.76378772032346, -121.76378772032352),28,5,2,yes,x,5,m,0.8584810000029393,0,72,test1,2,0.8586086999857798,-40.0
11,lsm,f,19,r,1,(-3.163262682197613e-14, -172.20000000000002),27,3,1,no,m,6,m,1.2541169000323862,1,73,test1,2,1.2543365000165068,-40.0
11,lsm,f,19,r,1,(121.76378772032346, -121.76378772032352),28,25,4,no,m,6,m,1.067343000031542,1,74,test1,2,1.0675994000048377,-40.0
11,lsm,f,19,r,1,(121.76378772032349, 121.76378772032349),22,3,1,yes,x,5,m,0.8992013999959454,0,75,test1,2,0.8993003999930806,-42.0
11,lsm,f,19,r,1,(121.76378772032346, -121.76378772032352),28,5,2,yes,x,5,x,0.799693799985107,1,76,test1,2,0.800211199966725,-40.0
11,lsm,f,19,r,1,(121.76378772032349, 121.76378772032349),22,-5,12,yes,x,5,x,0.5957404000218958,1,77,test1,2,0.5959750000038184,-50.0
11,lsm,f,19,r,1,(-3.163262682197613e-14, -172.20000000000002),27,3,1,yes,x,5,x,1.4593168999999762,1,78,test1,2,1.4596997000044212,-42.0
11,lsm,f,19,r,1,(1.0544208940658713e-14, 172.20000000000002),23,7,3,yes,x,5,x,0.5562567999586463,1,79,test1,2,0.556492600007914,-38.0
11,lsm,f,19,r,1,(172.20000000000002, 0.0),21,-5,12,yes,x,5,x,0.8334023999632336,1,80,test1,2,0.8336280999938026,-50.0
11,lsm,f,19,r,1,(-121.76378772032348, 121.76378772032349),24,7,3,yes,x,5,x,0.4264567000209354,1,81,test1,2,0.42682669998612255,-38.0
11,lsm,f,19,r,1,(121.76378772032346, -121.76378772032352),28,-7,13,no,m,6,m,0.7617001000326127,1,82,test1,2,0.761833900003694,-38.0
11,lsm,f,19,r,1,(-172.20000000000002, 2.1088417881317425e-14),25,5,2,yes,x,5,x,0.5327690000412986,1,83,test1,2,0.5328997999895364,-40.0
11,lsm,f,19,r,1,(-121.76378772032352, -121.76378772032348),26,-7,13,no,m,6,x,1.0565518000512384,0,84,test1,2,1.056709199969191,-40.0
11,lsm,f,19,r,1,(121.76378772032346, -121.76378772032352),28,-7,13,yes,x,5,x,0.466453300032299,1,85,test1,2,0.4665582000161521,-52.0
11,lsm,f,19,r,1,(-172.20000000000002, 2.1088417881317425e-14),25,-7,13,no,m,6,m,0.7256303000031039,1,86,test1,2,0.7259363000048324,-52.0
11,lsm,f,19,r,1,(-121.76378772032352, -121.76378772032348),26,7,3,yes,x,5,x,0.5199258000357077,1,87,test1,2,0.5200815999996848,-38.0
11,lsm,f,19,r,1,(-3.163262682197613e-14, -172.20000000000002),27,5,2,no,m,6,m,0.7201532999752089,1,88,test1,2,0.7202825000276789,-38.0
11,lsm,f,19,r,1,(-121.76378772032352, -121.76378772032348),26,-5,12,yes,x,5,x,0.501607000012882,1,89,test1,2,0.5017562999855727,-50.0
11,lsm,f,19,r,1,(-121.76378772032352, -121.76378772032348),26,-25,14,yes,x,5,x,0.42829499999061227,1,90,test1,2,0.4284189000027254,-70.0
11,lsm,f,19,r,1,(-3.163262682197613e-14, -172.20000000000002),27,25,4,yes,x,5,x,0.4240677999914624,1,91,test1,2,0.4242376000038348,-20.0
11,lsm,f,19,r,1,(-121.76378772032348, 121.76378772032349),24,3,1,no,m,6,m,0.7597446999861859,1,92,test1,2,0.7599766000057571,-20.0
11,lsm,f,19,r,1,(1.0544208940658713e-14, 172.20000000000002),23,3,1,yes,x,5,m,0.8275116999866441,0,93,test1,2,0.8276533000171185,-42.0
11,lsm,f,19,r,1,(1.0544208940658713e-14, 172.20000000000002),23,-25,14,no,m,6,m,1.0317121000261977,1,94,test1,2,1.0319178000208922,-42.0
11,lsm,f,19,r,1,(121.76378772032349, 121.76378772032349),22,5,2,yes,x,5,x,0.6087043999577872,1,95,test1,2,0.6089420999633148,-40.0
11,lsm,f,19,r,1,(1.0544208940658713e-14, 172.20000000000002),23,-25,14,yes,x,5,x,0.4004566000076011,1,96,test1,2,0.40088919998379424,-70.0
11,lsm,f,19,r,1,(-121.76378772032352, -121.76378772032348),26,5,2,yes,x,5,x,0.6253063000040129,1,1,test2,2,0.6259058000287041,-40.0
11,lsm,f,19,r,1,(121.76378772032346, -121.76378772032352),28,-5,12,yes,x,5,x,0.9384261000086553,1,2,test2,2,0.9385437000310048,-50.0
11,lsm,f,19,r,1,(121.76378772032349, 121.76378772032349),22,7,3,yes,x,5,x,0.6708553999778815,1,3,test2,2,0.6709973000106402,-38.0
11,lsm,f,19,r,1,(172.20000000000002, 0.0),21,-5,12,no,m,6,m,0.7231791000231169,1,4,test2,2,0.723451700003352,-38.0
11,lsm,f,19,r,1,(1.0544208940658713e-14, 172.20000000000002),23,-5,12,yes,x,5,x,0.6946694999933243,1,5,test2,2,0.6947944000130519,-50.0
11,lsm,f,19,r,1,(121.76378772032346, -121.76378772032352),28,-25,14,yes,x,5,x,0.5041486999834888,1,6,test2,2,0.5042479999829084,-70.0
11,lsm,f,19,r,1,(121.76378772032346, -121.76378772032352),28,3,1,no,m,6,m,0.6252997000119649,1,7,test2,2,0.6254294000100344,-70.0
11,lsm,f,19,r,1,(1.0544208940658713e-14, 172.20000000000002),23,5,2,no,m,6,m,0.6837572999647819,1,8,test2,2,0.683859399985522,-70.0
11,lsm,f,19,r,1,(121.76378772032346, -121.76378772032352),28,-7,13,yes,x,5,x,0.7651826000073925,1,9,test2,2,0.7652984000160359,-52.0
11,lsm,f,19,r,1,(-121.76378772032352, -121.76378772032348),26,-5,12,no,m,6,m,0.7730428000213578,1,10,test2,2,0.7731586000300013,-52.0
11,lsm,f,19,r,1,(-121.76378772032348, 121.76378772032349),24,3,1,yes,x,5,m,0.8358058000449091,0,11,test2,2,0.8360794000327587,-42.0
11,lsm,f,19,r,1,(-3.163262682197613e-14, -172.20000000000002),27,-7,13,no,m,6,m,1.3278344999998808,1,12,test2,2,1.3282772999955341,-42.0
11,lsm,f,19,r,1,(121.76378772032349, 121.76378772032349),22,3,1,yes,x,5,m,0.7479224000126123,0,13,test2,2,0.7480362000060268,-42.0
11,lsm,f,19,r,1,(172.20000000000002, 0.0),21,3,1,yes,x,5,x,0.9271554999868385,1,14,test2,2,0.9273185000056401,-42.0
11,lsm,f,19,r,1,(121.76378772032346, -121.76378772032352),28,25,4,yes,x,5,x,0.44309610000345856,1,15,test2,2,0.44319700001506135,-20.0
11,lsm,f,19,r,1,(172.20000000000002, 0.0),21,-25,14,yes,x,5,x,0.6241969999973662,1,16,test2,2,0.6246536999824457,-70.0
11,lsm,f,19,r,1,(-172.20000000000002, 2.1088417881317425e-14),25,5,2,no,m,6,m,0.9118964999797754,1,17,test2,2,0.9122425999958068,-70.0
11,lsm,f,19,r,1,(172.20000000000002, 0.0),21,5,2,yes,x,5,x,0.5168150999816135,1,18,test2,2,0.5170200999709778,-40.0
11,lsm,f,19,r,1,(121.76378772032346, -121.76378772032352),28,-25,14,no,m,6,m,0.8076793000218458,1,19,test2,2,0.807783099997323,-40.0
11,lsm,f,19,r,1,(121.76378772032349, 121.76378772032349),22,25,4,yes,x,5,x,0.4428330999799073,1,20,test2,2,0.4429394000326283,-20.0
11,lsm,f,19,r,1,(-121.76378772032348, 121.76378772032349),24,-25,14,no,m,6,m,1.0453734999755397,1,21,test2,2,1.045810999989044,-20.0
11,lsm,f,19,r,1,(-3.163262682197613e-14, -172.20000000000002),27,7,3,no,m,6,m,0.6586089000338688,1,22,test2,2,0.658900199981872,-20.0
11,lsm,f,19,r,1,(-172.20000000000002, 2.1088417881317425e-14),25,-5,12,yes,x,5,x,0.6070598000078462,1,23,test2,2,0.607264899997972,-50.0
11,lsm,f,19,r,1,(1.0544208940658713e-14, 172.20000000000002),23,-3,11,yes,x,5,m,0.6046009999699891,0,24,test2,2,0.6047092999797314,-48.0
11,lsm,f,19,r,1,(-172.20000000000002, 2.1088417881317425e-14),25,-3,11,no,m,6,m,0.8563505000201985,1,25,test2,2,0.8569818999967538,-48.0
11,lsm,f,19,r,1,(-121.76378772032348, 121.76378772032349),24,-7,13,yes,x,5,x,0.5544999999692664,1,26,test2,2,0.5547676000278443,-52.0
11,lsm,f,19,r,1,(121.76378772032349, 121.76378772032349),22,-25,14,yes,x,5,x,0.48115710000274703,1,27,test2,2,0.4814714000094682,-70.0
11,lsm,f,19,r,1,(121.76378772032349, 121.76378772032349),22,7,3,no,m,6,m,0.7961873000022024,1,28,test2,2,0.796376499987673,-70.0
11,lsm,f,19,r,1,(121.76378772032349, 121.76378772032349),22,25,4,no,m,6,m,1.7197416999842972,1,29,test2,2,1.7198406999814324,-70.0
11,lsm,f,19,r,1,(-172.20000000000002, 2.1088417881317425e-14),25,25,4,no,m,6,None,None,0,30,test2,2,1.9800943000009283,-70.0
11,lsm,f,19,r,1,(-3.163262682197613e-14, -172.20000000000002),27,3,1,yes,x,5,x,0.507171000004746,1,31,test2,2,0.5073973999824375,-42.0
11,lsm,f,19,r,1,(1.0544208940658713e-14, 172.20000000000002),23,25,4,yes,x,5,x,0.5911067000124604,1,32,test2,2,0.5916115999571048,-20.0
11,lsm,f,19,r,1,(121.76378772032349, 121.76378772032349),22,-3,11,yes,x,5,x,0.9430734000052325,1,33,test2,2,0.9433851000503637,-48.0
11,lsm,f,19,r,1,(121.76378772032346, -121.76378772032352),28,-3,11,yes,x,5,m,1.0108585999696516,0,34,test2,2,1.011613300011959,-48.0
11,lsm,f,19,r,1,(172.20000000000002, 0.0),21,3,1,yes,x,5,m,1.0536437999689952,0,35,test2,2,1.0538060999824665,-42.0
11,lsm,f,19,r,1,(-121.76378772032352, -121.76378772032348),26,-5,12,yes,x,5,x,0.680251500045415,1,36,test2,2,0.6803733999840915,-50.0
11,lsm,f,19,r,1,(172.20000000000002, 0.0),21,25,4,yes,x,5,x,0.5276767999748699,1,37,test2,2,0.5279990999842994,-20.0
11,lsm,f,19,r,1,(172.20000000000002, 0.0),21,-5,12,yes,x,5,x,0.5014660999877378,1,38,test2,2,0.5018473000382073,-50.0
11,lsm,f,19,r,1,(-121.76378772032348, 121.76378772032349),24,-3,11,yes,x,5,x,1.093667299952358,1,39,test2,2,1.0939115000073798,-48.0
11,lsm,f,19,r,1,(172.20000000000002, 0.0),21,7,3,yes,x,5,x,0.6215490999747999,1,40,test2,2,0.6216937999706715,-38.0
11,lsm,f,19,r,1,(-121.76378772032348, 121.76378772032349),24,3,1,yes,x,5,x,0.48606899997685105,1,41,test2,2,0.4861723000067286,-42.0
11,lsm,f,19,r,1,(-3.163262682197613e-14, -172.20000000000002),27,7,3,yes,x,5,x,0.48059699998702854,1,42,test2,2,0.4811072999727912,-38.0
11,lsm,f,19,r,1,(121.76378772032349, 121.76378772032349),22,-3,11,no,m,6,x,0.38322970003355294,0,43,test2,2,0.38333119999151677,-38.0
11,lsm,f,19,r,1,(-3.163262682197613e-14, -172.20000000000002),27,-3,11,no,m,6,m,1.1436274999869056,1,44,test2,2,1.1438362000044435,-38.0
11,lsm,f,19,r,1,(1.0544208940658713e-14, 172.20000000000002),23,-3,11,no,m,6,m,1.0362207000143826,1,45,test2,2,1.0363483999972232,-38.0
11,lsm,f,19,r,1,(-172.20000000000002, 2.1088417881317425e-14),25,-25,14,yes,x,5,x,0.48278949997620657,1,46,test2,2,0.4830913000041619,-70.0
11,lsm,f,19,r,1,(121.76378772032346, -121.76378772032352),28,-3,11,no,m,6,m,0.9475558999693021,1,47,test2,2,0.9479126000078395,-70.0
11,lsm,f,19,r,1,(-121.76378772032352, -121.76378772032348),26,-7,13,yes,x,5,x,0.49750400002812967,1,48,test2,2,0.49760970001807436,-52.0
11,lsm,f,19,r,1,(121.76378772032346, -121.76378772032352),28,7,3,yes,x,5,x,0.5340034000109881,1,49,test2,2,0.5349517000140622,-38.0
11,lsm,f,19,r,1,(172.20000000000002, 0.0),21,7,3,no,m,6,m,0.9084534000139683,1,50,test2,2,0.9087846000329591,-38.0
11,lsm,f,19,r,1,(-121.76378772032348, 121.76378772032349),24,-7,13,yes,x,5,x,0.5067477999837138,1,51,test2,2,0.5068488999968395,-52.0
11,lsm,f,19,r,1,(121.76378772032349, 121.76378772032349),22,-25,14,no,m,6,m,1.2525900999899022,1,52,test2,2,1.2533822999685071,-52.0
11,lsm,f,19,r,1,(-172.20000000000002, 2.1088417881317425e-14),25,7,3,yes,x,5,x,0.6620260999770835,1,53,test2,2,0.6622774000279605,-38.0
11,lsm,f,19,r,1,(172.20000000000002, 0.0),21,-7,13,no,m,6,m,0.8936472000204958,1,54,test2,2,0.893910999991931,-38.0
11,lsm,f,19,r,1,(-121.76378772032352, -121.76378772032348),26,-25,14,yes,x,5,x,0.5020333000575192,1,55,test2,2,0.5022429000237025,-70.0
11,lsm,f,19,r,1,(121.76378772032349, 121.76378772032349),22,7,3,yes,x,5,x,0.8679408999742009,1,56,test2,2,0.8680769999627955,-38.0
11,lsm,f,19,r,1,(121.76378772032349, 121.76378772032349),22,-5,12,yes,x,5,x,0.5785211999900639,1,57,test2,2,0.5786420999793336,-50.0
11,lsm,f,19,r,1,(172.20000000000002, 0.0),21,-3,11,yes,x,5,x,1.0579733999911696,1,58,test2,2,1.0582162999780849,-48.0
11,lsm,f,19,r,1,(-172.20000000000002, 2.1088417881317425e-14),25,-5,12,yes,x,5,x,0.5359843000187539,1,59,test2,2,0.5360850000288337,-50.0
11,lsm,f,19,r,1,(-3.163262682197613e-14, -172.20000000000002),27,5,2,yes,x,5,m,0.8250751000014134,0,60,test2,2,0.8251728999894112,-40.0
11,lsm,f,19,r,1,(-121.76378772032348, 121.76378772032349),24,5,2,yes,x,5,x,0.57998579996638,1,61,test2,2,0.5802046000026166,-40.0
11,lsm,f,19,r,1,(-121.76378772032348, 121.76378772032349),24,-5,12,yes,x,5,x,0.5113872999791056,1,62,test2,2,0.5116317000356503,-50.0
11,lsm,f,19,r,1,(172.20000000000002, 0.0),21,-7,13,yes,x,5,x,0.6705589999910444,1,63,test2,2,0.6708622999722138,-52.0
11,lsm,f,19,r,1,(172.20000000000002, 0.0),21,5,2,yes,x,5,x,0.6062080999836326,1,64,test2,2,0.6065034999628551,-40.0
11,lsm,f,19,r,1,(-172.20000000000002, 2.1088417881317425e-14),25,7,3,no,m,6,x,0.7004542999784462,0,65,test2,2,0.7007200999651104,-40.0
11,lsm,f,19,r,1,(-3.163262682197613e-14, -172.20000000000002),27,-3,11,yes,x,5,m,1.3661678999778815,0,66,test2,2,1.3662688999902457,-48.0
11,lsm,f,19,r,1,(-121.76378772032348, 121.76378772032349),24,25,4,no,m,6,m,1.754599399981089,1,67,test2,2,1.7550829999963753,-48.0
11,lsm,f,19,r,1,(121.76378772032349, 121.76378772032349),22,-7,13,yes,x,5,x,0.5277831999701448,1,68,test2,2,0.5280163999996148,-52.0
11,lsm,f,19,r,1,(-172.20000000000002, 2.1088417881317425e-14),25,-3,11,yes,x,5,m,0.8848600999917835,0,69,test2,2,0.8850532999495044,-48.0
11,lsm,f,19,r,1,(-121.76378772032348, 121.76378772032349),24,-3,11,no,m,6,m,0.9902932000113651,1,70,test2,2,0.9904774000169709,-48.0
11,lsm,f,19,r,1,(-121.76378772032352, -121.76378772032348),26,25,4,no,m,6,m,1.4025628000381403,1,71,test2,2,1.4026613000314683,-48.0
11,lsm,f,19,r,1,(172.20000000000002, 0.0),21,25,4,no,m,6,m,0.760899800050538,1,72,test2,2,0.7610309000010602,-48.0
11,lsm,f,19,r,1,(1.0544208940658713e-14, 172.20000000000002),23,-5,12,yes,x,5,x,0.4993858000379987,1,73,test2,2,0.4997070000390522,-50.0
11,lsm,f,19,r,1,(-172.20000000000002, 2.1088417881317425e-14),25,3,1,no,m,6,m,0.6570082000107504,1,74,test2,2,0.6571072000078857,-50.0
11,lsm,f,19,r,1,(121.76378772032346, -121.76378772032352),28,3,1,yes,x,5,m,0.676174100022763,0,75,test2,2,0.6762868000078015,-42.0
11,lsm,f,19,r,1,(121.76378772032346, -121.76378772032352),28,7,3,yes,x,5,x,0.5854407000006177,1,76,test2,2,0.5857476000091992,-38.0
11,lsm,f,19,r,1,(1.0544208940658713e-14, 172.20000000000002),23,-7,13,no,m,6,m,0.6212625000043772,1,77,test2,2,0.6214883999782614,-38.0
11,lsm,f,19,r,1,(121.76378772032346, -121.76378772032352),28,-5,12,yes,x,5,x,0.6222845000447705,1,78,test2,2,0.6223786000045948,-50.0
11,lsm,f,19,r,1,(1.0544208940658713e-14, 172.20000000000002),23,7,3,yes,x,5,x,0.4769172000233084,1,79,test2,2,0.477148300036788,-38.0
11,lsm,f,19,r,1,(-172.20000000000002, 2.1088417881317425e-14),25,5,2,yes,x,5,x,0.5558867999934591,1,80,test2,2,0.5559851999860257,-40.0
11,lsm,f,19,r,1,(172.20000000000002, 0.0),21,-25,14,no,m,6,m,0.8054156000143848,1,81,test2,2,0.8056824000086635,-40.0
11,lsm,f,19,r,1,(-121.76378772032348, 121.76378772032349),24,25,4,yes,x,5,x,0.4772617000271566,1,82,test2,2,0.4773597000166774,-20.0
11,lsm,f,19,r,1,(-121.76378772032352, -121.76378772032348),26,-3,11,yes,x,5,x,1.2063117999932729,1,83,test2,2,1.2065393999801017,-48.0
11,lsm,f,19,r,1,(-3.163262682197613e-14, -172.20000000000002),27,-25,14,yes,x,5,x,0.5093584000132978,1,84,test2,2,0.5096481000073254,-70.0
11,lsm,f,19,r,1,(1.0544208940658713e-14, 172.20000000000002),23,-25,14,yes,x,5,x,0.6254669000045396,1,85,test2,2,0.6257897000177763,-70.0
11,lsm,f,19,r,1,(-3.163262682197613e-14, -172.20000000000002),27,-5,12,no,m,6,m,0.677605900040362,1,86,test2,2,0.6777510000392795,-70.0
11,lsm,f,19,r,1,(-172.20000000000002, 2.1088417881317425e-14),25,-5,12,no,m,6,m,0.6264773999573663,1,87,test2,2,0.6266388000221923,-70.0
11,lsm,f,19,r,1,(-172.20000000000002, 2.1088417881317425e-14),25,25,4,yes,x,5,x,0.6777501000324264,1,88,test2,2,0.6778509999858215,-20.0
11,lsm,f,19,r,1,(-3.163262682197613e-14, -172.20000000000002),27,5,2,yes,x,5,x,0.8237153000081889,1,89,test2,2,0.8238129000528716,-40.0
11,lsm,f,19,r,1,(-172.20000000000002, 2.1088417881317425e-14),25,-7,13,yes,x,5,x,0.5933840000070632,1,90,test2,2,0.5935812999960035,-52.0
11,lsm,f,19,r,1,(-121.76378772032348, 121.76378772032349),24,-5,12,yes,x,5,x,0.6761377999791875,1,91,test2,2,0.6762978999759071,-50.0
11,lsm,f,19,r,1,(-121.76378772032348, 121.76378772032349),24,-25,14,yes,x,5,x,0.4188484000042081,1,92,test2,2,0.41937689995393157,-70.0
11,lsm,f,19,r,1,(-172.20000000000002, 2.1088417881317425e-14),25,-25,14,no,m,6,m,0.8169995999778621,1,93,test2,2,0.8172215999802575,-70.0
11,lsm,f,19,r,1,(-121.76378772032352, -121.76378772032348),26,-3,11,yes,x,5,x,0.82465319999028,1,94,test2,2,0.8247775000054389,-48.0
11,lsm,f,19,r,1,(1.0544208940658713e-14, 172.20000000000002),23,-3,11,yes,x,5,x,0.6410706000169739,1,95,test2,2,0.6411703000194393,-48.0
11,lsm,f,19,r,1,(172.20000000000002, 0.0),21,3,1,no,m,6,m,1.0785706999595277,1,96,test2,2,1.0788585999980569,-48.0
11,lsm,f,19,r,1,(-121.76378772032352, -121.76378772032348),26,-7,13,yes,x,5,x,0.4977424000389874,1,1,test1,3,0.49802680005086586,-52.0
11,lsm,f,19,r,1,(-121.76378772032352, -121.76378772032348),26,-25,14,no,m,6,m,0.7077876999974251,1,2,test1,3,0.707952699973248,-52.0
11,lsm,f,19,r,1,(-121.76378772032348, 121.76378772032349),24,-25,14,yes,x,5,x,0.38218310003867373,1,3,test1,3,0.3823560999589972,-70.0
11,lsm,f,19,r,1,(121.76378772032346, -121.76378772032352),28,-3,11,yes,x,5,m,0.630219999991823,0,4,test1,3,0.6305610999697819,-48.0
11,lsm,f,19,r,1,(-172.20000000000002, 2.1088417881317425e-14),25,25,4,yes,x,5,x,0.4098447000142187,1,5,test1,3,0.41051239997614175,-20.0
11,lsm,f,19,r,1,(-172.20000000000002, 2.1088417881317425e-14),25,7,3,yes,x,5,x,0.4220204000012018,1,6,test1,3,0.42225299996789545,-38.0
11,lsm,f,19,r,1,(121.76378772032349, 121.76378772032349),22,-5,12,no,m,6,m,1.5993254999630153,1,7,test1,3,1.5995398999657482,-38.0
11,lsm,f,19,r,1,(1.0544208940658713e-14, 172.20000000000002),23,5,2,yes,x,5,x,0.4991774999652989,1,8,test1,3,0.49946349998936057,-40.0
11,lsm,f,19,r,1,(-121.76378772032348, 121.76378772032349),24,7,3,yes,x,5,x,0.3498845000285655,1,9,test1,3,0.35016640002140775,-38.0
11,lsm,f,19,r,1,(1.0544208940658713e-14, 172.20000000000002),23,3,1,yes,x,5,x,0.4646177999675274,1,10,test1,3,0.4648363000014797,-42.0
11,lsm,f,19,r,1,(1.0544208940658713e-14, 172.20000000000002),23,-7,13,yes,x,5,x,0.40908690000651404,1,11,test1,3,0.4092166999471374,-52.0
11,lsm,f,19,r,1,(172.20000000000002, 0.0),21,7,3,yes,x,5,x,0.5447088000364602,1,12,test1,3,0.5448756000259891,-38.0
11,lsm,f,19,r,1,(121.76378772032349, 121.76378772032349),22,-7,13,no,m,6,m,0.6901487000286579,1,13,test1,3,0.6902599000022747,-38.0
11,lsm,f,19,r,1,(172.20000000000002, 0.0),21,25,4,yes,x,5,x,0.36105149996001273,1,14,test1,3,0.36144020000938326,-20.0
11,lsm,f,19,r,1,(-121.76378772032352, -121.76378772032348),26,7,3,yes,x,5,x,0.4776986000360921,1,15,test1,3,0.4778288000379689,-38.0
11,lsm,f,19,r,1,(-3.163262682197613e-14, -172.20000000000002),27,-5,12,yes,x,5,x,0.5662947000237182,1,16,test1,3,0.5664742000517435,-50.0
11,lsm,f,19,r,1,(-172.20000000000002, 2.1088417881317425e-14),25,-3,11,yes,x,5,m,0.5682237999862991,0,17,test1,3,0.5685951000195928,-48.0
11,lsm,f,19,r,1,(-121.76378772032348, 121.76378772032349),24,-7,13,no,m,6,x,0.7717718000058085,0,18,test1,3,0.7719114000210539,-48.0
11,lsm,f,19,r,1,(121.76378772032346, -121.76378772032352),28,7,3,no,m,6,m,0.676928200002294,1,19,test1,3,0.6770589000079781,-48.0
11,lsm,f,19,r,1,(-172.20000000000002, 2.1088417881317425e-14),25,3,1,yes,x,5,m,0.6798373000347055,0,20,test1,3,0.6802025999641046,-42.0
11,lsm,f,19,r,1,(-3.163262682197613e-14, -172.20000000000002),27,7,3,yes,x,5,x,0.42392900004051626,1,21,test1,3,0.42414939997252077,-38.0
11,lsm,f,19,r,1,(-3.163262682197613e-14, -172.20000000000002),27,-7,13,yes,x,5,x,0.3891869999933988,1,22,test1,3,0.3893437000224367,-52.0
11,lsm,f,19,r,1,(-3.163262682197613e-14, -172.20000000000002),27,-25,14,no,m,6,m,0.5723614000016823,1,23,test1,3,0.5728703999775462,-52.0
11,lsm,f,19,r,1,(-3.163262682197613e-14, -172.20000000000002),27,-25,14,yes,x,5,x,0.37750949995825067,1,24,test1,3,0.3777504999889061,-70.0
11,lsm,f,19,r,1,(-3.163262682197613e-14, -172.20000000000002),27,-3,11,yes,x,5,m,0.5031383000314236,0,25,test1,3,0.5032664999598637,-48.0
11,lsm,f,19,r,1,(-121.76378772032348, 121.76378772032349),24,-3,11,yes,x,5,m,0.929530400026124,0,26,test1,3,0.9297073000343516,-48.0
11,lsm,f,19,r,1,(172.20000000000002, 0.0),21,-25,14,yes,x,5,x,0.42173159995581955,1,27,test1,3,0.4221846999716945,-70.0
11,lsm,f,19,r,1,(-121.76378772032352, -121.76378772032348),26,3,1,no,m,6,m,0.5814485999871977,1,28,test1,3,0.5815486999927089,-70.0
11,lsm,f,19,r,1,(-121.76378772032352, -121.76378772032348),26,25,4,yes,x,5,x,0.4854116999777034,1,29,test1,3,0.485817099979613,-20.0
11,lsm,f,19,r,1,(121.76378772032349, 121.76378772032349),22,-25,14,yes,x,5,x,0.41609780001454055,1,30,test1,3,0.41624900000169873,-70.0
11,lsm,f,19,r,1,(121.76378772032346, -121.76378772032352),28,-25,14,yes,x,5,x,0.34791200002655387,1,31,test1,3,0.3481960999779403,-70.0
11,lsm,f,19,r,1,(-121.76378772032352, -121.76378772032348),26,3,1,yes,x,5,x,0.6298595999833196,1,32,test1,3,0.6299714000197127,-42.0
11,lsm,f,19,r,1,(-3.163262682197613e-14, -172.20000000000002),27,25,4,no,m,6,m,0.5389461999875493,1,33,test1,3,0.5390855000005104,-42.0
11,lsm,f,19,r,1,(-121.76378772032352, -121.76378772032348),26,-3,11,no,m,6,m,0.7554077999666333,1,34,test1,3,0.7558646999532357,-42.0
11,lsm,f,19,r,1,(-121.76378772032352, -121.76378772032348),26,5,2,no,m,6,x,0.9202237999998033,0,35,test1,3,0.920338099997025,-42.0
11,lsm,f,19,r,1,(121.76378772032346, -121.76378772032352),28,5,2,no,m,6,m,0.560902500001248,1,36,test1,3,0.561126200016588,-42.0
11,lsm,f,19,r,1,(-121.76378772032348, 121.76378772032349),24,25,4,yes,x,5,x,0.41781009995611385,1,37,test1,3,0.4181674999999814,-20.0
11,lsm,f,19,r,1,(-172.20000000000002, 2.1088417881317425e-14),25,-7,13,yes,x,5,x,0.5064378000097349,1,38,test1,3,0.5068399999872781,-52.0
11,lsm,f,19,r,1,(1.0544208940658713e-14, 172.20000000000002),23,25,4,no,m,6,m,0.5402068999828771,1,39,test1,3,0.5403194999671541,-52.0
11,lsm,f,19,r,1,(172.20000000000002, 0.0),21,-7,13,yes,x,5,x,0.44362450001062825,1,40,test1,3,0.44385620002867654,-52.0
11,lsm,f,19,r,1,(-172.20000000000002, 2.1088417881317425e-14),25,-25,14,yes,x,5,x,0.38567390001844615,1,41,test1,3,0.38635919999796897,-70.0
11,lsm,f,19,r,1,(121.76378772032349, 121.76378772032349),22,5,2,yes,x,5,x,0.6593396000098437,1,42,test1,3,0.6594735999824479,-40.0
11,lsm,f,19,r,1,(1.0544208940658713e-14, 172.20000000000002),23,5,2,yes,x,5,x,0.5972863000351936,1,43,test1,3,0.5973900000099093,-40.0
11,lsm,f,19,r,1,(121.76378772032346, -121.76378772032352),28,25,4,yes,x,5,x,0.5180297999759205,1,44,test1,3,0.5181944000069052,-20.0
11,lsm,f,19,r,1,(-121.76378772032348, 121.76378772032349),24,5,2,no,m,6,m,0.6654484000173397,1,45,test1,3,0.6657968000508845,-20.0
11,lsm,f,19,r,1,(172.20000000000002, 0.0),21,-3,11,no,m,6,m,0.5257225000532344,1,46,test1,3,0.5262074999627657,-20.0
11,lsm,f,19,r,1,(121.76378772032349, 121.76378772032349),22,-3,11,yes,x,5,x,0.6663981000310741,1,47,test1,3,0.6665611999924295,-48.0
11,lsm,f,19,r,1,(-121.76378772032352, -121.76378772032348),26,7,3,no,m,6,m,0.5277421000064351,1,48,test1,3,0.5280324000050314,-48.0
11,lsm,f,19,r,1,(121.76378772032349, 121.76378772032349),22,25,4,yes,x,5,x,0.42311929998686537,1,49,test1,3,0.42328899999847636,-20.0
11,lsm,f,19,r,1,(-121.76378772032348, 121.76378772032349),24,5,2,yes,x,5,m,0.570099999953527,0,50,test1,3,0.5702311999630183,-40.0
11,lsm,f,19,r,1,(1.0544208940658713e-14, 172.20000000000002),23,-7,13,yes,x,5,x,0.45132910000393167,1,51,test1,3,0.4515809000004083,-52.0
11,lsm,f,19,r,1,(1.0544208940658713e-14, 172.20000000000002),23,7,3,no,m,6,m,0.5843027000082657,1,52,test1,3,0.5844812000286765,-52.0
11,lsm,f,19,r,1,(-121.76378772032348, 121.76378772032349),24,-5,12,no,m,6,m,0.6243591000093147,1,53,test1,3,0.6247598000336438,-52.0
11,lsm,f,19,r,1,(-3.163262682197613e-14, -172.20000000000002),27,-7,13,yes,x,5,x,0.6658813999965787,1,54,test1,3,0.6660032000509091,-52.0
11,lsm,f,19,r,1,(-121.76378772032352, -121.76378772032348),26,3,1,yes,x,5,m,0.6103732999763452,0,55,test1,3,0.6106915000127628,-42.0
11,lsm,f,19,r,1,(-121.76378772032352, -121.76378772032348),26,25,4,yes,x,5,x,0.39936730003682896,1,56,test1,3,0.39948060002643615,-20.0
11,lsm,f,19,r,1,(172.20000000000002, 0.0),21,-3,11,yes,x,5,m,0.5524326000013389,0,57,test1,3,0.552532900008373,-48.0
11,lsm,f,19,r,1,(121.76378772032349, 121.76378772032349),22,-7,13,yes,x,5,x,0.43323229998350143,1,58,test1,3,0.4338422999717295,-52.0
11,lsm,f,19,r,1,(-121.76378772032352, -121.76378772032348),26,5,2,yes,x,5,x,0.5251653000013903,1,59,test1,3,0.5252826999640092,-40.0
11,lsm,f,19,r,1,(-3.163262682197613e-14, -172.20000000000002),27,-5,12,yes,x,5,x,0.4138884000130929,1,60,test1,3,0.4141898999805562,-50.0
11,lsm,f,19,r,1,(121.76378772032346, -121.76378772032352),28,-5,12,no,m,6,m,0.5893847999977879,1,61,test1,3,0.5896082999533974,-50.0
11,lsm,f,19,r,1,(-3.163262682197613e-14, -172.20000000000002),27,25,4,yes,x,5,x,0.424838200036902,1,62,test1,3,0.4250037000165321,-20.0
11,lsm,f,19,r,1,(-172.20000000000002, 2.1088417881317425e-14),25,3,1,yes,x,5,x,0.817842299991753,1,63,test1,3,0.8180209000129253,-42.0
11,lsm,f,19,r,1,(1.0544208940658713e-14, 172.20000000000002),23,25,4,yes,x,5,x,0.38934030005475506,1,64,test1,3,0.3894431999651715,-20.0
11,lsm,f,19,r,1,(121.76378772032349, 121.76378772032349),22,5,2,no,m,6,m,0.5846130999852903,1,65,test1,3,0.5847746999934316,-20.0
11,lsm,f,19,r,1,(121.76378772032346, -121.76378772032352),28,3,1,yes,x,5,x,0.6426123999990523,1,66,test1,3,0.6428363000159152,-42.0
11,lsm,f,19,r,1,(1.0544208940658713e-14, 172.20000000000002),23,-5,12,no,m,6,m,0.5628345999866724,1,67,test1,3,0.5631432000081986,-42.0
11,lsm,f,19,r,1,(172.20000000000002, 0.0),21,5,2,no,m,6,m,0.6473509999923408,1,68,test1,3,0.6475209000054747,-42.0
11,lsm,f,19,r,1,(1.0544208940658713e-14, 172.20000000000002),23,3,1,no,m,6,m,0.5445973000023514,1,69,test1,3,0.5448566999984905,-42.0
11,lsm,f,19,r,1,(121.76378772032349, 121.76378772032349),22,3,1,no,m,6,m,0.5090788000379689,1,70,test1,3,0.5095679000369273,-42.0
11,lsm,f,19,r,1,(-121.76378772032348, 121.76378772032349),24,7,3,no,m,6,m,0.5149134999956004,1,71,test1,3,0.5152918000239879,-42.0
11,lsm,f,19,r,1,(121.76378772032346, -121.76378772032352),28,5,2,yes,x,5,x,0.537210300040897,1,72,test1,3,0.5374929000390694,-40.0
11,lsm,f,19,r,1,(-3.163262682197613e-14, -172.20000000000002),27,3,1,no,m,6,m,0.5800248000305146,1,73,test1,3,0.5802624999778345,-40.0
11,lsm,f,19,r,1,(121.76378772032346, -121.76378772032352),28,25,4,no,m,6,m,0.7114023999893107,1,74,test1,3,0.7115614000358619,-40.0
11,lsm,f,19,r,1,(121.76378772032349, 121.76378772032349),22,3,1,yes,x,5,m,0.5371682000113651,0,75,test1,3,0.5372979000094347,-42.0
11,lsm,f,19,r,1,(121.76378772032346, -121.76378772032352),28,5,2,yes,x,5,x,0.3930843999842182,1,76,test1,3,0.3931843999889679,-40.0
11,lsm,f,19,r,1,(121.76378772032349, 121.76378772032349),22,-5,12,yes,x,5,x,0.47250019997591153,1,77,test1,3,0.4726125000161119,-50.0
11,lsm,f,19,r,1,(-3.163262682197613e-14, -172.20000000000002),27,3,1,yes,x,5,x,0.46441989997401834,1,78,test1,3,0.46465270000044256,-42.0
11,lsm,f,19,r,1,(1.0544208940658713e-14, 172.20000000000002),23,7,3,yes,x,5,x,0.4520370000391267,1,79,test1,3,0.4523034000303596,-38.0
11,lsm,f,19,r,1,(172.20000000000002, 0.0),21,-5,12,yes,x,5,x,0.4245843999669887,1,80,test1,3,0.4246821000124328,-50.0
11,lsm,f,19,r,1,(-121.76378772032348, 121.76378772032349),24,7,3,yes,x,5,x,0.41885769995860755,1,81,test1,3,0.4189619999960996,-38.0
11,lsm,f,19,r,1,(121.76378772032346, -121.76378772032352),28,-7,13,no,m,6,x,0.683414300030563,0,82,test1,3,0.6840003000106663,-38.0
11,lsm,f,19,r,1,(-172.20000000000002, 2.1088417881317425e-14),25,5,2,yes,x,5,x,0.6341577999992296,1,83,test1,3,0.6344781999941915,-40.0
11,lsm,f,19,r,1,(-121.76378772032352, -121.76378772032348),26,-7,13,no,m,6,m,0.6279242999735288,1,84,test1,3,0.6280518000130542,-40.0
11,lsm,f,19,r,1,(121.76378772032346, -121.76378772032352),28,-7,13,yes,x,5,m,0.47494729998288676,0,85,test1,3,0.47517119999974966,-52.0
11,lsm,f,19,r,1,(-172.20000000000002, 2.1088417881317425e-14),25,-7,13,no,m,6,m,1.5013284000451677,1,86,test1,3,1.5015207000542432,-52.0
11,lsm,f,19,r,1,(-121.76378772032352, -121.76378772032348),26,7,3,yes,x,5,x,0.3943016999983229,1,87,test1,3,0.3949106000363827,-38.0
11,lsm,f,19,r,1,(-3.163262682197613e-14, -172.20000000000002),27,5,2,no,m,6,m,0.45979230001103133,1,88,test1,3,0.460286800051108,-38.0
11,lsm,f,19,r,1,(-121.76378772032352, -121.76378772032348),26,-5,12,yes,x,5,x,0.45586859999457374,1,89,test1,3,0.45622089999960735,-50.0
11,lsm,f,19,r,1,(-121.76378772032352, -121.76378772032348),26,-25,14,yes,x,5,x,0.3769538000342436,1,90,test1,3,0.377106600033585,-70.0
11,lsm,f,19,r,1,(-3.163262682197613e-14, -172.20000000000002),27,25,4,yes,x,5,x,0.47167860000627115,1,91,test1,3,0.472451200010255,-20.0
11,lsm,f,19,r,1,(-121.76378772032348, 121.76378772032349),24,3,1,no,m,6,m,0.6803118999814615,1,92,test1,3,0.6805452000116929,-20.0
11,lsm,f,19,r,1,(1.0544208940658713e-14, 172.20000000000002),23,3,1,yes,x,5,x,0.6320644000079483,1,93,test1,3,0.6323171000112779,-42.0
11,lsm,f,19,r,1,(1.0544208940658713e-14, 172.20000000000002),23,-25,14,no,m,6,m,0.6089234999963082,1,94,test1,3,0.6095334999845363,-42.0
11,lsm,f,19,r,1,(121.76378772032349, 121.76378772032349),22,5,2,yes,x,5,x,0.5186683000065386,1,95,test1,3,0.5189045000006445,-40.0
11,lsm,f,19,r,1,(1.0544208940658713e-14, 172.20000000000002),23,-25,14,yes,x,5,x,0.4343084000283852,1,96,test1,3,0.43454170000040904,-70.0
11,lsm,f,19,r,1,(-121.76378772032352, -121.76378772032348),26,5,2,yes,x,5,x,0.6212031999602914,1,1,test2,3,0.6219660000060685,-40.0
11,lsm,f,19,r,1,(121.76378772032346, -121.76378772032352),28,-5,12,yes,x,5,x,0.6261659000301734,1,2,test2,3,0.6263235000078566,-50.0
11,lsm,f,19,r,1,(121.76378772032349, 121.76378772032349),22,7,3,yes,x,5,x,0.47877489996608347,1,3,test2,3,0.4794220000039786,-38.0
11,lsm,f,19,r,1,(172.20000000000002, 0.0),21,-5,12,no,m,6,x,0.331401800038293,0,4,test2,3,0.3315182000515051,-38.0
11,lsm,f,19,r,1,(1.0544208940658713e-14, 172.20000000000002),23,-5,12,yes,x,5,x,0.5226769000291824,1,5,test2,3,0.5228989999741316,-50.0
11,lsm,f,19,r,1,(121.76378772032346, -121.76378772032352),28,-25,14,yes,x,5,x,0.38501599995652214,1,6,test2,3,0.3854204000090249,-70.0
11,lsm,f,19,r,1,(121.76378772032346, -121.76378772032352),28,3,1,no,m,6,m,0.6156319000292569,1,7,test2,3,0.6159276000107639,-70.0
11,lsm,f,19,r,1,(1.0544208940658713e-14, 172.20000000000002),23,5,2,no,m,6,x,0.648285000002943,0,8,test2,3,0.648379800026305,-70.0
11,lsm,f,19,r,1,(121.76378772032346, -121.76378772032352),28,-7,13,yes,x,5,x,0.5484268000000156,1,9,test2,3,0.5486522000283003,-52.0
11,lsm,f,19,r,1,(-121.76378772032352, -121.76378772032348),26,-5,12,no,m,6,m,0.658154399949126,1,10,test2,3,0.658258699986618,-52.0
11,lsm,f,19,r,1,(-121.76378772032348, 121.76378772032349),24,3,1,yes,x,5,x,0.5635654000216164,1,11,test2,3,0.5636675000423566,-42.0
11,lsm,f,19,r,1,(-3.163262682197613e-14, -172.20000000000002),27,-7,13,no,m,6,m,0.6863222999963909,1,12,test2,3,0.6864505000412464,-42.0
11,lsm,f,19,r,1,(121.76378772032349, 121.76378772032349),22,3,1,yes,x,5,m,0.8100945000187494,0,13,test2,3,0.8103328000288457,-42.0
11,lsm,f,19,r,1,(172.20000000000002, 0.0),21,3,1,yes,x,5,m,0.7205148000502959,0,14,test2,3,0.7206149999983609,-42.0
11,lsm,f,19,r,1,(121.76378772032346, -121.76378772032352),28,25,4,yes,x,5,x,0.4670471999561414,1,15,test2,3,0.4671707999659702,-20.0
11,lsm,f,19,r,1,(172.20000000000002, 0.0),21,-25,14,yes,x,5,x,0.45880280004348606,1,16,test2,3,0.4588998999679461,-70.0
11,lsm,f,19,r,1,(-172.20000000000002, 2.1088417881317425e-14),25,5,2,no,m,6,m,0.6375271999859251,1,17,test2,3,0.6381486000027508,-70.0
11,lsm,f,19,r,1,(172.20000000000002, 0.0),21,5,2,yes,x,5,x,0.4759319999720901,1,18,test2,3,0.47616649995325133,-40.0
11,lsm,f,19,r,1,(121.76378772032346, -121.76378772032352),28,-25,14,no,m,6,m,0.5618551000370644,1,19,test2,3,0.5622265999554656,-40.0
11,lsm,f,19,r,1,(121.76378772032349, 121.76378772032349),22,25,4,yes,x,5,x,0.4357253000489436,1,20,test2,3,0.4360063000349328,-20.0
11,lsm,f,19,r,1,(-121.76378772032348, 121.76378772032349),24,-25,14,no,m,6,m,0.5076975999982096,1,21,test2,3,0.508060900028795,-20.0
11,lsm,f,19,r,1,(-3.163262682197613e-14, -172.20000000000002),27,7,3,no,m,6,m,0.621555800025817,1,22,test2,3,0.6220998999779113,-20.0
11,lsm,f,19,r,1,(-172.20000000000002, 2.1088417881317425e-14),25,-5,12,yes,x,5,x,0.35343650000868365,1,23,test2,3,0.35354119999101385,-50.0
11,lsm,f,19,r,1,(1.0544208940658713e-14, 172.20000000000002),23,-3,11,yes,x,5,m,0.6582362000481226,0,24,test2,3,0.6583356999908574,-48.0
11,lsm,f,19,r,1,(-172.20000000000002, 2.1088417881317425e-14),25,-3,11,no,m,6,m,0.8344331000116654,1,25,test2,3,0.8345612999983132,-48.0
11,lsm,f,19,r,1,(-121.76378772032348, 121.76378772032349),24,-7,13,yes,x,5,x,0.39973130001453683,1,26,test2,3,0.39992789999814704,-52.0
11,lsm,f,19,r,1,(121.76378772032349, 121.76378772032349),22,-25,14,yes,x,5,x,0.442467899993062,1,27,test2,3,0.44275260000722483,-70.0
11,lsm,f,19,r,1,(121.76378772032349, 121.76378772032349),22,7,3,no,m,6,m,0.610428599989973,1,28,test2,3,0.6106242000241764,-70.0
11,lsm,f,19,r,1,(121.76378772032349, 121.76378772032349),22,25,4,no,m,6,m,0.5463778999983333,1,29,test2,3,0.5465041999705136,-70.0
11,lsm,f,19,r,1,(-172.20000000000002, 2.1088417881317425e-14),25,25,4,no,m,6,m,0.5820963999722153,1,30,test2,3,0.5824818999972194,-70.0
11,lsm,f,19,r,1,(-3.163262682197613e-14, -172.20000000000002),27,3,1,yes,x,5,x,0.6415486999903806,1,31,test2,3,0.6421062999870628,-42.0
11,lsm,f,19,r,1,(1.0544208940658713e-14, 172.20000000000002),23,25,4,yes,x,5,x,0.40070609998656437,1,32,test2,3,0.40094970003701746,-20.0
11,lsm,f,19,r,1,(121.76378772032349, 121.76378772032349),22,-3,11,yes,x,5,m,0.5899934000335634,0,33,test2,3,0.5904018999426626,-48.0
11,lsm,f,19,r,1,(121.76378772032346, -121.76378772032352),28,-3,11,yes,x,5,x,0.4317167000262998,1,34,test2,3,0.43181410001125187,-48.0
11,lsm,f,19,r,1,(172.20000000000002, 0.0),21,3,1,yes,x,5,x,0.867209299991373,1,35,test2,3,0.8675536999944597,-42.0
11,lsm,f,19,r,1,(-121.76378772032352, -121.76378772032348),26,-5,12,yes,x,5,x,0.5618946999893524,1,36,test2,3,0.5621033000061288,-50.0
11,lsm,f,19,r,1,(172.20000000000002, 0.0),21,25,4,yes,x,5,x,0.3955296999774873,1,37,test2,3,0.39589439996052533,-20.0
11,lsm,f,19,r,1,(172.20000000000002, 0.0),21,-5,12,yes,x,5,x,0.4450451000011526,1,38,test2,3,0.4454338999930769,-50.0
11,lsm,f,19,r,1,(-121.76378772032348, 121.76378772032349),24,-3,11,yes,x,5,m,0.7755172000033781,0,39,test2,3,0.7757358999806456,-48.0
11,lsm,f,19,r,1,(172.20000000000002, 0.0),21,7,3,yes,x,5,x,0.4565821000142023,1,40,test2,3,0.45670300000347197,-38.0
11,lsm,f,19,r,1,(-121.76378772032348, 121.76378772032349),24,3,1,yes,x,5,x,0.7026698000263423,1,41,test2,3,0.7028061000164598,-42.0
11,lsm,f,19,r,1,(-3.163262682197613e-14, -172.20000000000002),27,7,3,yes,x,5,x,0.6316823000088334,1,42,test2,3,0.6317819000105374,-38.0
11,lsm,f,19,r,1,(121.76378772032349, 121.76378772032349),22,-3,11,no,m,6,m,0.7615645999903791,1,43,test2,3,0.7617325999890454,-38.0
11,lsm,f,19,r,1,(-3.163262682197613e-14, -172.20000000000002),27,-3,11,no,m,6,x,0.5709557000081986,0,44,test2,3,0.571085800009314,-38.0
11,lsm,f,19,r,1,(1.0544208940658713e-14, 172.20000000000002),23,-3,11,no,m,6,m,0.6542385999928229,1,45,test2,3,0.6545189000316896,-38.0
11,lsm,f,19,r,1,(-172.20000000000002, 2.1088417881317425e-14),25,-25,14,yes,x,5,x,0.38595720002194867,1,46,test2,3,0.38610080000944436,-70.0
11,lsm,f,19,r,1,(121.76378772032346, -121.76378772032352),28,-3,11,no,m,6,m,0.6001021999982186,1,47,test2,3,0.6002042000181973,-70.0
11,lsm,f,19,r,1,(-121.76378772032352, -121.76378772032348),26,-7,13,yes,x,5,x,0.445945399987977,1,48,test2,3,0.44604720000643283,-52.0
11,lsm,f,19,r,1,(121.76378772032346, -121.76378772032352),28,7,3,yes,x,5,x,0.6106208999990486,1,49,test2,3,0.6110023999935947,-38.0
11,lsm,f,19,r,1,(172.20000000000002, 0.0),21,7,3,no,m,6,m,0.6166441999957897,1,50,test2,3,0.6170498999999836,-38.0
11,lsm,f,19,r,1,(-121.76378772032348, 121.76378772032349),24,-7,13,yes,x,5,x,0.3467512999777682,1,51,test2,3,0.3470478000235744,-52.0
11,lsm,f,19,r,1,(121.76378772032349, 121.76378772032349),22,-25,14,no,m,6,m,0.534328700043261,1,52,test2,3,0.5346370000042953,-52.0
11,lsm,f,19,r,1,(-172.20000000000002, 2.1088417881317425e-14),25,7,3,yes,x,5,x,0.3744079999742098,1,53,test2,3,0.3746125000179745,-38.0
11,lsm,f,19,r,1,(172.20000000000002, 0.0),21,-7,13,no,m,6,m,0.4763493000064045,1,54,test2,3,0.47666849999222904,-38.0
11,lsm,f,19,r,1,(-121.76378772032352, -121.76378772032348),26,-25,14,yes,x,5,x,0.44583959999727085,1,55,test2,3,0.4461303999996744,-70.0
11,lsm,f,19,r,1,(121.76378772032349, 121.76378772032349),22,7,3,yes,x,5,x,0.5712316000135615,1,56,test2,3,0.5715349999954924,-38.0
11,lsm,f,19,r,1,(121.76378772032349, 121.76378772032349),22,-5,12,yes,x,5,x,0.6978466999717057,1,57,test2,3,0.697975100018084,-50.0
11,lsm,f,19,r,1,(172.20000000000002, 0.0),21,-3,11,yes,x,5,m,0.5830706999986432,0,58,test2,3,0.5832888000295497,-48.0
11,lsm,f,19,r,1,(-172.20000000000002, 2.1088417881317425e-14),25,-5,12,yes,x,5,x,0.49241270002676174,1,59,test2,3,0.4925119000254199,-50.0
11,lsm,f,19,r,1,(-3.163262682197613e-14, -172.20000000000002),27,5,2,yes,x,5,x,0.6922998999943957,1,60,test2,3,0.6926189999794587,-40.0
11,lsm,f,19,r,1,(-121.76378772032348, 121.76378772032349),24,5,2,yes,x,5,x,0.4428372000111267,1,61,test2,3,0.44349390000570565,-40.0
11,lsm,f,19,r,1,(-121.76378772032348, 121.76378772032349),24,-5,12,yes,x,5,x,0.508393399999477,1,62,test2,3,0.5084957999642938,-50.0
11,lsm,f,19,r,1,(172.20000000000002, 0.0),21,-7,13,yes,x,5,x,0.8368144999840297,1,63,test2,3,0.8371441999915987,-52.0
11,lsm,f,19,r,1,(172.20000000000002, 0.0),21,5,2,yes,x,5,x,0.4849967999616638,1,64,test2,3,0.4850888999644667,-40.0
11,lsm,f,19,r,1,(-172.20000000000002, 2.1088417881317425e-14),25,7,3,no,m,6,x,0.5235620000166818,0,65,test2,3,0.523665799992159,-40.0
11,lsm,f,19,r,1,(-3.163262682197613e-14, -172.20000000000002),27,-3,11,yes,x,5,x,0.3682263999944553,1,66,test2,3,0.36838279996300116,-48.0
11,lsm,f,19,r,1,(-121.76378772032348, 121.76378772032349),24,25,4,no,m,6,x,0.40100189996883273,0,67,test2,3,0.4014681999688037,-48.0
11,lsm,f,19,r,1,(121.76378772032349, 121.76378772032349),22,-7,13,yes,x,5,x,0.4841829999932088,1,68,test2,3,0.4843160000164062,-52.0
11,lsm,f,19,r,1,(-172.20000000000002, 2.1088417881317425e-14),25,-3,11,yes,x,5,m,0.7351530999876559,0,69,test2,3,0.7353040000307374,-48.0
11,lsm,f,19,r,1,(-121.76378772032348, 121.76378772032349),24,-3,11,no,m,6,m,0.7214164999895729,1,70,test2,3,0.7217506000306457,-48.0
11,lsm,f,19,r,1,(-121.76378772032352, -121.76378772032348),26,25,4,no,m,6,m,0.653753099963069,1,71,test2,3,0.6545282999868505,-48.0
11,lsm,f,19,r,1,(172.20000000000002, 0.0),21,25,4,no,m,6,m,0.5682125999592245,1,72,test2,3,0.56870149995666,-48.0
11,lsm,f,19,r,1,(1.0544208940658713e-14, 172.20000000000002),23,-5,12,yes,x,5,m,0.5505622000200674,0,73,test2,3,0.5512010999955237,-50.0
11,lsm,f,19,r,1,(-172.20000000000002, 2.1088417881317425e-14),25,3,1,no,m,6,m,0.6272071999846958,1,74,test2,3,0.6273295999853872,-50.0
11,lsm,f,19,r,1,(121.76378772032346, -121.76378772032352),28,3,1,yes,x,5,x,0.4923793000052683,1,75,test2,3,0.492562800005544,-42.0
11,lsm,f,19,r,1,(121.76378772032346, -121.76378772032352),28,7,3,yes,x,5,x,0.40811309998389333,1,76,test2,3,0.40823210001690313,-38.0
11,lsm,f,19,r,1,(1.0544208940658713e-14, 172.20000000000002),23,-7,13,no,m,6,m,0.8237429999862798,1,77,test2,3,0.824228800018318,-38.0
11,lsm,f,19,r,1,(121.76378772032346, -121.76378772032352),28,-5,12,yes,x,5,x,1.0454856000142172,1,78,test2,3,1.045814800017979,-50.0
11,lsm,f,19,r,1,(1.0544208940658713e-14, 172.20000000000002),23,7,3,yes,x,5,x,0.44732009997824207,1,79,test2,3,0.44742340000811964,-38.0
11,lsm,f,19,r,1,(-172.20000000000002, 2.1088417881317425e-14),25,5,2,yes,x,5,x,0.6612121000071056,1,80,test2,3,0.6613138000248,-40.0
11,lsm,f,19,r,1,(172.20000000000002, 0.0),21,-25,14,no,m,6,x,0.4551763000199571,0,81,test2,3,0.45540239999536425,-40.0
11,lsm,f,19,r,1,(-121.76378772032348, 121.76378772032349),24,25,4,yes,x,5,x,0.41459220001706854,1,82,test2,3,0.4147243000334129,-20.0
11,lsm,f,19,r,1,(-121.76378772032352, -121.76378772032348),26,-3,11,yes,x,5,x,1.0823323000222445,1,83,test2,3,1.082701699982863,-48.0
11,lsm,f,19,r,1,(-3.163262682197613e-14, -172.20000000000002),27,-25,14,yes,x,5,x,0.4875268999603577,1,84,test2,3,0.4877617000020109,-70.0
11,lsm,f,19,r,1,(1.0544208940658713e-14, 172.20000000000002),23,-25,14,yes,x,5,x,0.4660487999790348,1,85,test2,3,0.46633959998143837,-70.0
11,lsm,f,19,r,1,(-3.163262682197613e-14, -172.20000000000002),27,-5,12,no,m,6,x,0.8497529000160284,0,86,test2,3,0.8499862999888137,-70.0
11,lsm,f,19,r,1,(-172.20000000000002, 2.1088417881317425e-14),25,-5,12,no,m,6,m,1.5022396999993362,1,87,test2,3,1.5025513999862596,-70.0
11,lsm,f,19,r,1,(-172.20000000000002, 2.1088417881317425e-14),25,25,4,yes,x,5,x,0.3845157999894582,1,88,test2,3,0.3846163999987766,-20.0
11,lsm,f,19,r,1,(-3.163262682197613e-14, -172.20000000000002),27,5,2,yes,x,5,x,0.5671623999951407,1,89,test2,3,0.5673592000384815,-40.0
11,lsm,f,19,r,1,(-172.20000000000002, 2.1088417881317425e-14),25,-7,13,yes,x,5,x,0.42386769998120144,1,90,test2,3,0.4242118999827653,-52.0
11,lsm,f,19,r,1,(-121.76378772032348, 121.76378772032349),24,-5,12,yes,x,5,x,0.4631294999853708,1,91,test2,3,0.4633410999667831,-50.0
11,lsm,f,19,r,1,(-121.76378772032348, 121.76378772032349),24,-25,14,yes,x,5,x,0.381418599979952,1,92,test2,3,0.3817931999801658,-70.0
11,lsm,f,19,r,1,(-172.20000000000002, 2.1088417881317425e-14),25,-25,14,no,m,6,x,0.3580767000094056,0,93,test2,3,0.3584045000025071,-70.0
11,lsm,f,19,r,1,(-121.76378772032352, -121.76378772032348),26,-3,11,yes,x,5,m,0.8569862999720499,0,94,test2,3,0.8570884999935515,-48.0
11,lsm,f,19,r,1,(1.0544208940658713e-14, 172.20000000000002),23,-3,11,yes,x,5,x,0.43737030000193045,1,95,test2,3,0.4376312000094913,-48.0
11,lsm,f,19,r,1,(172.20000000000002, 0.0),21,3,1,no,m,6,m,0.5442667999886908,1,96,test2,3,0.5444767999579199,-48.0
11,lsm,f,19,r,1,(-121.76378772032352, -121.76378772032348),26,-7,13,yes,x,5,x,0.46744560002116486,1,1,test1,4,0.4675611999700777,-52.0
11,lsm,f,19,r,1,(-121.76378772032352, -121.76378772032348),26,-25,14,no,m,6,m,0.6492983000352979,1,2,test1,4,0.6493992999894544,-52.0
11,lsm,f,19,r,1,(-121.76378772032348, 121.76378772032349),24,-25,14,yes,x,5,x,0.3896104999585077,1,3,test1,4,0.39014299999689683,-70.0
11,lsm,f,19,r,1,(121.76378772032346, -121.76378772032352),28,-3,11,yes,x,5,m,0.6533154000062495,0,4,test1,4,0.6534586999914609,-48.0
11,lsm,f,19,r,1,(-172.20000000000002, 2.1088417881317425e-14),25,25,4,yes,x,5,x,0.35790239996276796,1,5,test1,4,0.3580783000215888,-20.0
11,lsm,f,19,r,1,(-172.20000000000002, 2.1088417881317425e-14),25,7,3,yes,x,5,x,0.3917444000253454,1,6,test1,4,0.39184570003999397,-38.0
11,lsm,f,19,r,1,(121.76378772032349, 121.76378772032349),22,-5,12,no,m,6,m,0.46241510001709685,1,7,test1,4,0.462704700010363,-38.0
11,lsm,f,19,r,1,(1.0544208940658713e-14, 172.20000000000002),23,5,2,yes,x,5,x,0.45739419996971264,1,8,test1,4,0.45752060000086203,-40.0
11,lsm,f,19,r,1,(-121.76378772032348, 121.76378772032349),24,7,3,yes,x,5,x,0.44852869998430833,1,9,test1,4,0.44868230004794896,-38.0
11,lsm,f,19,r,1,(1.0544208940658713e-14, 172.20000000000002),23,3,1,yes,x,5,x,0.3541572999674827,1,10,test1,4,0.35425480001140386,-42.0
11,lsm,f,19,r,1,(1.0544208940658713e-14, 172.20000000000002),23,-7,13,yes,x,5,x,0.43297280004480854,1,11,test1,4,0.4332101000472903,-52.0
11,lsm,f,19,r,1,(172.20000000000002, 0.0),21,7,3,yes,x,5,x,0.721019399992656,1,12,test1,4,0.7212448000209406,-38.0
11,lsm,f,19,r,1,(121.76378772032349, 121.76378772032349),22,-7,13,no,m,6,x,0.5652555000269786,0,13,test1,4,0.5654196999967098,-38.0
11,lsm,f,19,r,1,(172.20000000000002, 0.0),21,25,4,yes,x,5,x,0.4292534000123851,1,14,test1,4,0.42964619997655973,-20.0
11,lsm,f,19,r,1,(-121.76378772032352, -121.76378772032348),26,7,3,yes,x,5,x,0.4995735000120476,1,15,test1,4,0.5002088999608532,-38.0
11,lsm,f,19,r,1,(-3.163262682197613e-14, -172.20000000000002),27,-5,12,yes,x,5,x,0.7342067999998108,1,16,test1,4,0.7346839999663644,-50.0
11,lsm,f,19,r,1,(-172.20000000000002, 2.1088417881317425e-14),25,-3,11,yes,x,5,x,0.7591699999757111,1,17,test1,4,0.7592861000448465,-48.0
11,lsm,f,19,r,1,(-121.76378772032348, 121.76378772032349),24,-7,13,no,m,6,x,0.8941713999956846,0,18,test1,4,0.8942688999813981,-48.0
11,lsm,f,19,r,1,(121.76378772032346, -121.76378772032352),28,7,3,no,m,6,m,0.9557655000244267,1,19,test1,4,0.9558956000255421,-48.0
11,lsm,f,19,r,1,(-172.20000000000002, 2.1088417881317425e-14),25,3,1,yes,x,5,m,1.1147398999892175,0,20,test1,4,1.1151079999981448,-42.0
11,lsm,f,19,r,1,(-3.163262682197613e-14, -172.20000000000002),27,7,3,yes,x,5,x,0.5541189999785274,1,21,test1,4,0.5542902000015602,-38.0
11,lsm,f,19,r,1,(-3.163262682197613e-14, -172.20000000000002),27,-7,13,yes,x,5,x,0.4625404999824241,1,22,test1,4,0.4627766999765299,-52.0
11,lsm,f,19,r,1,(-3.163262682197613e-14, -172.20000000000002),27,-25,14,no,m,6,m,0.6399423999828286,1,23,test1,4,0.6400680000078864,-52.0
11,lsm,f,19,r,1,(-3.163262682197613e-14, -172.20000000000002),27,-25,14,yes,x,5,x,0.3566541000036523,1,24,test1,4,0.35728420002851635,-70.0
11,lsm,f,19,r,1,(-3.163262682197613e-14, -172.20000000000002),27,-3,11,yes,x,5,x,0.40244640002492815,1,25,test1,4,0.4026657000067644,-48.0
11,lsm,f,19,r,1,(-121.76378772032348, 121.76378772032349),24,-3,11,yes,x,5,m,0.597736099967733,0,26,test1,4,0.5978613999905065,-48.0
11,lsm,f,19,r,1,(172.20000000000002, 0.0),21,-25,14,yes,x,5,m,0.39795249997405335,0,27,test1,4,0.39864379999926314,-70.0
11,lsm,f,19,r,1,(-121.76378772032352, -121.76378772032348),26,3,1,no,m,6,x,0.5096492000157014,0,28,test1,4,0.5098844000021927,-70.0
11,lsm,f,19,r,1,(-121.76378772032352, -121.76378772032348),26,25,4,yes,x,5,x,0.4590310000348836,1,29,test1,4,0.4593901000334881,-20.0
11,lsm,f,19,r,1,(121.76378772032349, 121.76378772032349),22,-25,14,yes,x,5,x,0.4920857999823056,1,30,test1,4,0.493030900019221,-70.0
11,lsm,f,19,r,1,(121.76378772032346, -121.76378772032352),28,-25,14,yes,x,5,x,0.4222606000257656,1,31,test1,4,0.42237320001004264,-70.0
11,lsm,f,19,r,1,(-121.76378772032352, -121.76378772032348),26,3,1,yes,x,5,m,0.4985348000191152,0,32,test1,4,0.4990031999768689,-42.0
11,lsm,f,19,r,1,(-3.163262682197613e-14, -172.20000000000002),27,25,4,no,m,6,m,0.8376654000021517,1,33,test1,4,0.8378874000045471,-42.0
11,lsm,f,19,r,1,(-121.76378772032352, -121.76378772032348),26,-3,11,no,m,6,m,1.4237607999821194,1,34,test1,4,1.4238613999914378,-42.0
11,lsm,f,19,r,1,(-121.76378772032352, -121.76378772032348),26,5,2,no,m,6,m,1.1547875999822281,1,35,test1,4,1.1550562999909744,-42.0
11,lsm,f,19,r,1,(121.76378772032346, -121.76378772032352),28,5,2,no,m,6,m,0.5300088999792933,1,36,test1,4,0.5302165999892168,-42.0
11,lsm,f,19,r,1,(-121.76378772032348, 121.76378772032349),24,25,4,yes,x,5,x,0.45742709998739883,1,37,test1,4,0.45778930000960827,-20.0
11,lsm,f,19,r,1,(-172.20000000000002, 2.1088417881317425e-14),25,-7,13,yes,x,5,x,0.40887450001901016,1,38,test1,4,0.4089972000219859,-52.0
11,lsm,f,19,r,1,(1.0544208940658713e-14, 172.20000000000002),23,25,4,no,m,6,m,0.5710240000043996,1,39,test1,4,0.5715469000278972,-52.0
11,lsm,f,19,r,1,(172.20000000000002, 0.0),21,-7,13,yes,x,5,x,0.5677830000058748,1,40,test1,4,0.5680206000106409,-52.0
11,lsm,f,19,r,1,(-172.20000000000002, 2.1088417881317425e-14),25,-25,14,yes,x,5,x,0.4185913000255823,1,41,test1,4,0.41886269999668,-70.0
11,lsm,f,19,r,1,(121.76378772032349, 121.76378772032349),22,5,2,yes,x,5,x,0.6960897999815643,1,42,test1,4,0.6962126999860629,-40.0
11,lsm,f,19,r,1,(1.0544208940658713e-14, 172.20000000000002),23,5,2,yes,x,5,x,0.6866240000235848,1,43,test1,4,0.6872529999818653,-40.0
11,lsm,f,19,r,1,(121.76378772032346, -121.76378772032352),28,25,4,yes,x,5,x,0.5249036999884993,1,44,test1,4,0.52549159998307,-20.0
11,lsm,f,19,r,1,(-121.76378772032348, 121.76378772032349),24,5,2,no,m,6,m,0.6472563999705017,1,45,test1,4,0.6474110999843106,-20.0
11,lsm,f,19,r,1,(172.20000000000002, 0.0),21,-3,11,no,m,6,x,0.9269701999728568,0,46,test1,4,0.9272493000025861,-20.0
11,lsm,f,19,r,1,(121.76378772032349, 121.76378772032349),22,-3,11,yes,x,5,m,0.5377825000323355,0,47,test1,4,0.5379130000364967,-48.0
11,lsm,f,19,r,1,(-121.76378772032352, -121.76378772032348),26,7,3,no,m,6,m,0.5178419000003487,1,48,test1,4,0.5179698999854736,-48.0
11,lsm,f,19,r,1,(121.76378772032349, 121.76378772032349),22,25,4,yes,x,5,x,0.4824524000287056,1,49,test1,4,0.48282680002739653,-20.0
11,lsm,f,19,r,1,(-121.76378772032348, 121.76378772032349),24,5,2,yes,x,5,x,0.4452580999932252,1,50,test1,4,0.44547849998343736,-40.0
11,lsm,f,19,r,1,(1.0544208940658713e-14, 172.20000000000002),23,-7,13,yes,x,5,x,0.4635705999680795,1,51,test1,4,0.4636953999870457,-52.0
11,lsm,f,19,r,1,(1.0544208940658713e-14, 172.20000000000002),23,7,3,no,m,6,x,0.75913139997283,0,52,test1,4,0.7594283999642357,-52.0
11,lsm,f,19,r,1,(-121.76378772032348, 121.76378772032349),24,-5,12,no,m,6,m,0.5827337999944575,1,53,test1,4,0.582979999948293,-52.0
11,lsm,f,19,r,1,(-3.163262682197613e-14, -172.20000000000002),27,-7,13,yes,x,5,x,0.4891617000102997,1,54,test1,4,0.4893603000091389,-52.0
11,lsm,f,19,r,1,(-121.76378772032352, -121.76378772032348),26,3,1,yes,x,5,m,0.6054891999810934,0,55,test1,4,0.6056912000058219,-42.0
11,lsm,f,19,r,1,(-121.76378772032352, -121.76378772032348),26,25,4,yes,x,5,x,0.3537654000101611,1,56,test1,4,0.35424960003001615,-20.0
11,lsm,f,19,r,1,(172.20000000000002, 0.0),21,-3,11,yes,x,5,m,0.584011799946893,0,57,test1,4,0.5843914999859408,-48.0
11,lsm,f,19,r,1,(121.76378772032349, 121.76378772032349),22,-7,13,yes,x,5,x,0.5016326999757439,1,58,test1,4,0.5017354000010528,-52.0
11,lsm,f,19,r,1,(-121.76378772032352, -121.76378772032348),26,5,2,yes,x,5,x,0.6132377000176348,1,59,test1,4,0.6135390000417829,-40.0
11,lsm,f,19,r,1,(-3.163262682197613e-14, -172.20000000000002),27,-5,12,yes,x,5,x,0.5308153000078164,1,60,test1,4,0.531101500033401,-50.0
11,lsm,f,19,r,1,(121.76378772032346, -121.76378772032352),28,-5,12,no,m,6,m,0.7054026999976486,1,61,test1,4,0.7057482000091113,-50.0
11,lsm,f,19,r,1,(-3.163262682197613e-14, -172.20000000000002),27,25,4,yes,x,5,x,0.4108789999736473,1,62,test1,4,0.4111174999852665,-20.0
11,lsm,f,19,r,1,(-172.20000000000002, 2.1088417881317425e-14),25,3,1,yes,x,5,m,0.7493925000308082,0,63,test1,4,0.7497182000079192,-42.0
11,lsm,f,19,r,1,(1.0544208940658713e-14, 172.20000000000002),23,25,4,yes,x,5,x,0.4729397000046447,1,64,test1,4,0.47317110002040863,-20.0
11,lsm,f,19,r,1,(121.76378772032349, 121.76378772032349),22,5,2,no,m,6,m,1.0193325000000186,1,65,test1,4,1.0199616000172682,-20.0
11,lsm,f,19,r,1,(121.76378772032346, -121.76378772032352),28,3,1,yes,x,5,x,0.9297717000008561,1,66,test1,4,0.9298670999705791,-42.0
11,lsm,f,19,r,1,(1.0544208940658713e-14, 172.20000000000002),23,-5,12,no,m,6,m,0.5225827000103891,1,67,test1,4,0.5227355000097305,-42.0
11,lsm,f,19,r,1,(172.20000000000002, 0.0),21,5,2,no,m,6,m,0.7799516000086442,1,68,test1,4,0.7801398999872617,-42.0
11,lsm,f,19,r,1,(1.0544208940658713e-14, 172.20000000000002),23,3,1,no,m,6,m,0.3602415999630466,1,69,test1,4,0.36040040000807494,-42.0
11,lsm,f,19,r,1,(121.76378772032349, 121.76378772032349),22,3,1,no,m,6,m,0.4792604999965988,1,70,test1,4,0.4795847000204958,-42.0
11,lsm,f,19,r,1,(-121.76378772032348, 121.76378772032349),24,7,3,no,m,6,m,0.48274929996114224,1,71,test1,4,0.483033099968452,-42.0
11,lsm,f,19,r,1,(121.76378772032346, -121.76378772032352),28,5,2,yes,x,5,m,0.49350199999753386,0,72,test1,4,0.4937074000481516,-40.0
11,lsm,f,19,r,1,(-3.163262682197613e-14, -172.20000000000002),27,3,1,no,m,6,m,0.9419256999972276,1,73,test1,4,0.9421462999889627,-40.0
11,lsm,f,19,r,1,(121.76378772032346, -121.76378772032352),28,25,4,no,m,6,m,0.5496232000296004,1,74,test1,4,0.5497447999659926,-40.0
11,lsm,f,19,r,1,(121.76378772032349, 121.76378772032349),22,3,1,yes,x,5,m,0.5245162000064738,0,75,test1,4,0.5257290999870747,-42.0
11,lsm,f,19,r,1,(121.76378772032346, -121.76378772032352),28,5,2,yes,x,5,x,0.8943800999550149,1,76,test1,4,0.894775299995672,-40.0
11,lsm,f,19,r,1,(121.76378772032349, 121.76378772032349),22,-5,12,yes,x,5,x,0.5344581000390463,1,77,test1,4,0.5347017000312917,-50.0
11,lsm,f,19,r,1,(-3.163262682197613e-14, -172.20000000000002),27,3,1,yes,x,5,m,0.6488782999804243,0,78,test1,4,0.6491107000038028,-42.0
11,lsm,f,19,r,1,(1.0544208940658713e-14, 172.20000000000002),23,7,3,yes,x,5,x,0.46882149996235967,1,79,test1,4,0.4689422000083141,-38.0
11,lsm,f,19,r,1,(172.20000000000002, 0.0),21,-5,12,yes,x,5,x,0.5835471000173129,1,80,test1,4,0.5836616000160575,-50.0
11,lsm,f,19,r,1,(-121.76378772032348, 121.76378772032349),24,7,3,yes,x,5,x,0.39685379998991266,1,81,test1,4,0.39698239997960627,-38.0
11,lsm,f,19,r,1,(121.76378772032346, -121.76378772032352),28,-7,13,no,m,6,m,0.5472311999765225,1,82,test1,4,0.547555299999658,-38.0
11,lsm,f,19,r,1,(-172.20000000000002, 2.1088417881317425e-14),25,5,2,yes,x,5,x,0.6668502999818884,1,83,test1,4,0.6669513999950141,-40.0
11,lsm,f,19,r,1,(-121.76378772032352, -121.76378772032348),26,-7,13,no,m,6,x,0.7039062000112608,0,84,test1,4,0.7040026999893598,-40.0
11,lsm,f,19,r,1,(121.76378772032346, -121.76378772032352),28,-7,13,yes,x,5,x,0.44145949999801815,1,85,test1,4,0.4416608000174165,-52.0
11,lsm,f,19,r,1,(-172.20000000000002, 2.1088417881317425e-14),25,-7,13,no,m,6,m,0.5706032000016421,1,86,test1,4,0.57083539996529,-52.0
11,lsm,f,19,r,1,(-121.76378772032352, -121.76378772032348),26,7,3,yes,x,5,x,0.5256572000216693,1,87,test1,4,0.5258859000168741,-38.0
11,lsm,f,19,r,1,(-3.163262682197613e-14, -172.20000000000002),27,5,2,no,m,6,m,0.5085888000321575,1,88,test1,4,0.5087167000165209,-38.0
11,lsm,f,19,r,1,(-121.76378772032352, -121.76378772032348),26,-5,12,yes,x,5,x,0.4740074999863282,1,89,test1,4,0.47436089999973774,-50.0
11,lsm,f,19,r,1,(-121.76378772032352, -121.76378772032348),26,-25,14,yes,x,5,x,0.47007390001090243,1,90,test1,4,0.4702817000215873,-70.0
11,lsm,f,19,r,1,(-3.163262682197613e-14, -172.20000000000002),27,25,4,yes,x,5,x,0.4650982999592088,1,91,test1,4,0.46560719999251887,-20.0
11,lsm,f,19,r,1,(-121.76378772032348, 121.76378772032349),24,3,1,no,m,6,m,0.5902138000237755,1,92,test1,4,0.5905153000494465,-20.0
11,lsm,f,19,r,1,(1.0544208940658713e-14, 172.20000000000002),23,3,1,yes,x,5,x,0.47458859998732805,1,93,test1,4,0.4749978999607265,-42.0
11,lsm,f,19,r,1,(1.0544208940658713e-14, 172.20000000000002),23,-25,14,no,m,6,m,0.6556284000398591,1,94,test1,4,0.6560161000234075,-42.0
11,lsm,f,19,r,1,(121.76378772032349, 121.76378772032349),22,5,2,yes,x,5,x,0.4963395000086166,1,95,test1,4,0.49645089998375624,-40.0
11,lsm,f,19,r,1,(1.0544208940658713e-14, 172.20000000000002),23,-25,14,yes,x,5,x,0.37944640003843233,1,96,test1,4,0.37995689996751025,-70.0
11,lsm,f,19,r,1,(-121.76378772032352, -121.76378772032348),26,5,2,yes,x,5,x,0.7338731000199914,1,1,test2,4,0.7341413999674842,-40.0
11,lsm,f,19,r,1,(121.76378772032346, -121.76378772032352),28,-5,12,yes,x,5,x,0.6395099000073969,1,2,test2,4,0.6396089000045322,-50.0
11,lsm,f,19,r,1,(121.76378772032349, 121.76378772032349),22,7,3,yes,x,5,x,0.7468011999735609,1,3,test2,4,0.7471729000099003,-38.0
11,lsm,f,19,r,1,(172.20000000000002, 0.0),21,-5,12,no,m,6,m,0.9390819999971427,1,4,test2,4,0.9391843000194058,-38.0
11,lsm,f,19,r,1,(1.0544208940658713e-14, 172.20000000000002),23,-5,12,yes,x,5,x,0.5014747999957763,1,5,test2,4,0.5015735999913886,-50.0
11,lsm,f,19,r,1,(121.76378772032346, -121.76378772032352),28,-25,14,yes,x,5,x,0.5341978999786079,1,6,test2,4,0.5342968000331894,-70.0
11,lsm,f,19,r,1,(121.76378772032346, -121.76378772032352),28,3,1,no,m,6,m,0.6993848999845795,1,7,test2,4,0.6996373999863863,-70.0
11,lsm,f,19,r,1,(1.0544208940658713e-14, 172.20000000000002),23,5,2,no,m,6,m,0.7401818999787793,1,8,test2,4,0.7402876000269316,-70.0
11,lsm,f,19,r,1,(121.76378772032346, -121.76378772032352),28,-7,13,yes,x,5,x,0.5093987999716774,1,9,test2,4,0.5096306999912485,-52.0
11,lsm,f,19,r,1,(-121.76378772032352, -121.76378772032348),26,-5,12,no,m,6,m,0.7704896000213921,1,10,test2,4,0.7707714000134729,-52.0
11,lsm,f,19,r,1,(-121.76378772032348, 121.76378772032349),24,3,1,yes,x,5,m,0.8893860999960452,0,11,test2,4,0.8897499999729916,-42.0
11,lsm,f,19,r,1,(-3.163262682197613e-14, -172.20000000000002),27,-7,13,no,m,6,m,0.6919704000465572,1,12,test2,4,0.6920902000274509,-42.0
11,lsm,f,19,r,1,(121.76378772032349, 121.76378772032349),22,3,1,yes,x,5,x,0.9063735000090674,1,13,test2,4,0.9064769999822602,-42.0
11,lsm,f,19,r,1,(172.20000000000002, 0.0),21,3,1,yes,x,5,m,0.6942365000140853,0,14,test2,4,0.6943431000108831,-42.0
11,lsm,f,19,r,1,(121.76378772032346, -121.76378772032352),28,25,4,yes,x,5,x,0.5146089000045322,1,15,test2,4,0.5149983000010252,-20.0
11,lsm,f,19,r,1,(172.20000000000002, 0.0),21,-25,14,yes,x,5,x,0.442268899991177,1,16,test2,4,0.4425696000107564,-70.0
11,lsm,f,19,r,1,(-172.20000000000002, 2.1088417881317425e-14),25,5,2,no,m,6,m,0.8278046000050381,1,17,test2,4,0.8279279000125825,-70.0
11,lsm,f,19,r,1,(172.20000000000002, 0.0),21,5,2,yes,x,5,x,0.5576733000343665,1,18,test2,4,0.5578301000059582,-40.0
11,lsm,f,19,r,1,(121.76378772032346, -121.76378772032352),28,-25,14,no,m,6,m,0.8678949999739416,1,19,test2,4,0.868181400001049,-40.0
11,lsm,f,19,r,1,(121.76378772032349, 121.76378772032349),22,25,4,yes,x,5,x,0.4049218999571167,1,20,test2,4,0.4052963999565691,-20.0
11,lsm,f,19,r,1,(-121.76378772032348, 121.76378772032349),24,-25,14,no,m,6,m,0.6417700999882072,1,21,test2,4,0.6419425999629311,-20.0
11,lsm,f,19,r,1,(-3.163262682197613e-14, -172.20000000000002),27,7,3,no,m,6,m,0.6926475000218488,1,22,test2,4,0.6930954000563361,-20.0
11,lsm,f,19,r,1,(-172.20000000000002, 2.1088417881317425e-14),25,-5,12,yes,x,5,x,0.4499047999852337,1,23,test2,4,0.4500199999893084,-50.0
11,lsm,f,19,r,1,(1.0544208940658713e-14, 172.20000000000002),23,-3,11,yes,x,5,m,0.6373520999914035,0,24,test2,4,0.6376334999804385,-48.0
11,lsm,f,19,r,1,(-172.20000000000002, 2.1088417881317425e-14),25,-3,11,no,m,6,m,0.7109470999566838,1,25,test2,4,0.7115182999987155,-48.0
11,lsm,f,19,r,1,(-121.76378772032348, 121.76378772032349),24,-7,13,yes,x,5,x,0.49329800001578405,1,26,test2,4,0.4935014999937266,-52.0
11,lsm,f,19,r,1,(121.76378772032349, 121.76378772032349),22,-25,14,yes,x,5,x,0.42928009998286143,1,27,test2,4,0.4294707999797538,-70.0
11,lsm,f,19,r,1,(121.76378772032349, 121.76378772032349),22,7,3,no,m,6,m,0.5709445999818854,1,28,test2,4,0.5715257999836467,-70.0
11,lsm,f,19,r,1,(121.76378772032349, 121.76378772032349),22,25,4,no,m,6,m,0.48605960002169013,1,29,test2,4,0.4863587000290863,-70.0
11,lsm,f,19,r,1,(-172.20000000000002, 2.1088417881317425e-14),25,25,4,no,m,6,m,0.43152600002940744,1,30,test2,4,0.4320315000368282,-70.0
11,lsm,f,19,r,1,(-3.163262682197613e-14, -172.20000000000002),27,3,1,yes,x,5,m,1.3827301999554038,0,31,test2,4,1.3829762999666855,-42.0
11,lsm,f,19,r,1,(1.0544208940658713e-14, 172.20000000000002),23,25,4,yes,x,5,x,0.46397500002058223,1,32,test2,4,0.46453749999636784,-20.0
11,lsm,f,19,r,1,(121.76378772032349, 121.76378772032349),22,-3,11,yes,x,5,m,0.5755841000354849,0,33,test2,4,0.5757169999997132,-48.0
11,lsm,f,19,r,1,(121.76378772032346, -121.76378772032352),28,-3,11,yes,x,5,x,0.486392299993895,1,34,test2,4,0.48660010000457987,-48.0
11,lsm,f,19,r,1,(172.20000000000002, 0.0),21,3,1,yes,x,5,x,0.9212764000403695,1,35,test2,4,0.9213790000067092,-42.0
11,lsm,f,19,r,1,(-121.76378772032352, -121.76378772032348),26,-5,12,yes,x,5,x,0.5351775999879465,1,36,test2,4,0.5352728000143543,-50.0
11,lsm,f,19,r,1,(172.20000000000002, 0.0),21,25,4,yes,x,5,x,0.46255749999545515,1,37,test2,4,0.46275110001442954,-20.0
11,lsm,f,19,r,1,(172.20000000000002, 0.0),21,-5,12,yes,x,5,x,0.895776699995622,1,38,test2,4,0.896101699967403,-50.0
11,lsm,f,19,r,1,(-121.76378772032348, 121.76378772032349),24,-3,11,yes,x,5,x,1.3314319999772124,1,39,test2,4,1.3315312000340782,-48.0
11,lsm,f,19,r,1,(172.20000000000002, 0.0),21,7,3,yes,x,5,x,0.48549290001392365,1,40,test2,4,0.4859215000178665,-38.0
11,lsm,f,19,r,1,(-121.76378772032348, 121.76378772032349),24,3,1,yes,x,5,x,1.2275875000050291,1,41,test2,4,1.2276922999881208,-42.0
11,lsm,f,19,r,1,(-3.163262682197613e-14, -172.20000000000002),27,7,3,yes,x,5,x,0.6890649999841116,1,42,test2,4,0.6893445000168867,-38.0
11,lsm,f,19,r,1,(121.76378772032349, 121.76378772032349),22,-3,11,no,m,6,m,0.9364728999789804,1,43,test2,4,0.9365747999981977,-38.0
11,lsm,f,19,r,1,(-3.163262682197613e-14, -172.20000000000002),27,-3,11,no,m,6,m,0.8609482999891043,1,44,test2,4,0.8610495000029914,-38.0
11,lsm,f,19,r,1,(1.0544208940658713e-14, 172.20000000000002),23,-3,11,no,m,6,m,0.8619167000288144,1,45,test2,4,0.8625959000200965,-38.0
11,lsm,f,19,r,1,(-172.20000000000002, 2.1088417881317425e-14),25,-25,14,yes,x,5,x,0.37817480001831427,1,46,test2,4,0.37830109999049455,-70.0
11,lsm,f,19,r,1,(121.76378772032346, -121.76378772032352),28,-3,11,no,m,6,m,0.5643109999946319,1,47,test2,4,0.5647683000424877,-70.0
11,lsm,f,19,r,1,(-121.76378772032352, -121.76378772032348),26,-7,13,yes,x,5,x,0.5260424999869429,1,48,test2,4,0.5267076999880373,-52.0
11,lsm,f,19,r,1,(121.76378772032346, -121.76378772032352),28,7,3,yes,x,5,x,0.4996125999605283,1,49,test2,4,0.49990280001657084,-38.0
11,lsm,f,19,r,1,(172.20000000000002, 0.0),21,7,3,no,m,6,m,0.8903593000140972,1,50,test2,4,0.8904604999697767,-38.0
11,lsm,f,19,r,1,(-121.76378772032348, 121.76378772032349),24,-7,13,yes,x,5,x,0.5416371000465006,1,51,test2,4,0.5419184999773279,-52.0
11,lsm,f,19,r,1,(121.76378772032349, 121.76378772032349),22,-25,14,no,m,6,m,0.7488621000084095,1,52,test2,4,0.7492331000394188,-52.0
11,lsm,f,19,r,1,(-172.20000000000002, 2.1088417881317425e-14),25,7,3,yes,x,5,x,0.5823993999511003,1,53,test2,4,0.5825228000176139,-38.0
11,lsm,f,19,r,1,(172.20000000000002, 0.0),21,-7,13,no,m,6,m,0.7367430999875069,1,54,test2,4,0.7371930999797769,-38.0
11,lsm,f,19,r,1,(-121.76378772032352, -121.76378772032348),26,-25,14,yes,x,5,x,0.5136116999783553,1,55,test2,4,0.5137314000166953,-70.0
11,lsm,f,19,r,1,(121.76378772032349, 121.76378772032349),22,7,3,yes,x,5,x,0.572636499942746,1,56,test2,4,0.5729254999896511,-38.0
11,lsm,f,19,r,1,(121.76378772032349, 121.76378772032349),22,-5,12,yes,x,5,x,0.5093623999855481,1,57,test2,4,0.5095277999644168,-50.0
11,lsm,f,19,r,1,(172.20000000000002, 0.0),21,-3,11,yes,x,5,x,1.4101167999906465,1,58,test2,4,1.4103386999922805,-48.0
