subj_id,subj_name,subj_gender ,subj_age,subj_handedness,subj_runNum,tar_l_x,tar_l_y,loc_code,tar_ori,tar_code,tar_pre ,cor_response,pre_code,subj_response,RT,correct,trial_num,type,bloc_num,dur, real_tar
12,lyt,f,21,r,2,(-3.163262682197613e-14, -172.20000000000002),27,3,1,yes,x,5,m,0.6003559000000678,0,1,test1,1,0.6013810000004014,-42.0
12,lyt,f,21,r,2,(1.0544208940658713e-14, 172.20000000000002),23,-3,11,yes,x,5,m,0.7411594000004698,0,2,test1,1,0.7413931999999477,-48.0
12,lyt,f,21,r,2,(1.0544208940658713e-14, 172.20000000000002),23,5,2,yes,x,5,x,0.759715099999994,1,3,test1,1,0.7598508000000948,-40.0
12,lyt,f,21,r,2,(-172.20000000000002, 2.1088417881317425e-14),25,3,1,yes,x,5,x,0.8330714000003354,1,4,test1,1,0.8335161999993943,-42.0
12,lyt,f,21,r,2,(172.20000000000002, 0.0),21,5,2,no,m,6,m,0.604085899999518,1,5,test1,1,0.6042100000004211,-42.0
12,lyt,f,21,r,2,(121.76378772032346, -121.76378772032352),28,-3,11,yes,x,5,m,0.7932465000003504,0,6,test1,1,0.7933688999992228,-48.0
12,lyt,f,21,r,2,(-121.76378772032352, -121.76378772032348),26,-7,13,no,m,6,m,1.0976849999997285,1,7,test1,1,1.0978941999992458,-48.0
12,lyt,f,21,r,2,(-121.76378772032348, 121.76378772032349),24,-5,12,yes,x,5,x,0.4961708999999246,1,8,test1,1,0.4968685000003461,-50.0
12,lyt,f,21,r,2,(-172.20000000000002, 2.1088417881317425e-14),25,-7,13,yes,x,5,x,0.4265328999999838,1,9,test1,1,0.4269752000000153,-52.0
12,lyt,f,21,r,2,(1.0544208940658713e-14, 172.20000000000002),23,3,1,yes,x,5,m,1.221949499999937,0,10,test1,1,1.2222498999999516,-42.0
12,lyt,f,21,r,2,(172.20000000000002, 0.0),21,-3,11,yes,x,5,m,0.7372441999996227,0,11,test1,1,0.7373452000001635,-48.0
12,lyt,f,21,r,2,(-121.76378772032352, -121.76378772032348),26,-5,12,yes,x,5,x,0.45239159999982803,1,12,test1,1,0.4526085999996212,-50.0
12,lyt,f,21,r,2,(121.76378772032349, 121.76378772032349),22,-25,14,yes,x,5,x,0.48214499999994587,1,13,test1,1,0.482264799999939,-70.0
12,lyt,f,21,r,2,(-3.163262682197613e-14, -172.20000000000002),27,-25,14,yes,x,5,x,0.44091539999953966,1,14,test1,1,0.44114920000083657,-70.0
12,lyt,f,21,r,2,(121.76378772032346, -121.76378772032352),28,-5,12,yes,x,5,m,0.6934447000003274,0,15,test1,1,0.6936202999995658,-50.0
12,lyt,f,21,r,2,(-121.76378772032348, 121.76378772032349),24,-7,13,yes,x,5,x,0.3491566000002422,1,16,test1,1,0.34925660000044445,-52.0
12,lyt,f,21,r,2,(1.0544208940658713e-14, 172.20000000000002),23,-7,13,no,m,6,m,0.7757851999995182,1,17,test1,1,0.7761626000001343,-52.0
12,lyt,f,21,r,2,(-3.163262682197613e-14, -172.20000000000002),27,-5,12,yes,x,5,x,0.48921879999943485,1,18,test1,1,0.4894291999999041,-50.0
12,lyt,f,21,r,2,(1.0544208940658713e-14, 172.20000000000002),23,25,4,no,m,6,m,0.9634206999999151,1,19,test1,1,0.9636367000002792,-50.0
12,lyt,f,21,r,2,(-121.76378772032348, 121.76378772032349),24,3,1,yes,x,5,x,0.41434250000020256,1,20,test1,1,0.41452399999980116,-42.0
12,lyt,f,21,r,2,(-3.163262682197613e-14, -172.20000000000002),27,7,3,yes,x,5,x,0.3995223000001715,1,21,test1,1,0.3996563000000606,-38.0
12,lyt,f,21,r,2,(-3.163262682197613e-14, -172.20000000000002),27,5,2,no,m,6,m,0.6389269999999669,1,22,test1,1,0.6392181999999593,-38.0
12,lyt,f,21,r,2,(-121.76378772032352, -121.76378772032348),26,-3,11,no,m,6,m,0.8457576000000699,1,23,test1,1,0.8458513000005041,-38.0
12,lyt,f,21,r,2,(-121.76378772032348, 121.76378772032349),24,-3,11,yes,x,5,x,0.5950032000000647,1,24,test1,1,0.5952166999995825,-48.0
12,lyt,f,21,r,2,(121.76378772032349, 121.76378772032349),22,-7,13,yes,x,5,x,0.512490600000092,1,25,test1,1,0.5129138000002058,-52.0
12,lyt,f,21,r,2,(121.76378772032349, 121.76378772032349),22,3,1,no,m,6,x,0.44041159999960655,0,26,test1,1,0.44063610000011977,-52.0
12,lyt,f,21,r,2,(-172.20000000000002, 2.1088417881317425e-14),25,7,3,no,m,6,x,1.0058165999998891,0,27,test1,1,1.0059199999996054,-52.0
12,lyt,f,21,r,2,(-121.76378772032348, 121.76378772032349),24,7,3,yes,x,5,x,0.47120360000008077,1,28,test1,1,0.4713283999999476,-38.0
12,lyt,f,21,r,2,(121.76378772032349, 121.76378772032349),22,5,2,no,m,6,m,0.5451287999994747,1,29,test1,1,0.5452301999994233,-38.0
12,lyt,f,21,r,2,(-3.163262682197613e-14, -172.20000000000002),27,25,4,yes,x,5,x,0.33892519999972137,1,30,test1,1,0.33915669999987585,-20.0
12,lyt,f,21,r,2,(-172.20000000000002, 2.1088417881317425e-14),25,-5,12,no,m,6,m,0.9673499000000447,1,31,test1,1,0.9674730999995518,-20.0
12,lyt,f,21,r,2,(-121.76378772032348, 121.76378772032349),24,-5,12,yes,x,5,x,0.4563456000005317,1,32,test1,1,0.4566740000000209,-50.0
12,lyt,f,21,r,2,(1.0544208940658713e-14, 172.20000000000002),23,7,3,no,m,6,m,1.1755867000001672,1,33,test1,1,1.1758262000003015,-50.0
12,lyt,f,21,r,2,(121.76378772032346, -121.76378772032352),28,-7,13,yes,x,5,x,0.9906332000000475,1,34,test1,1,0.9908666999999696,-52.0
12,lyt,f,21,r,2,(-172.20000000000002, 2.1088417881317425e-14),25,-3,11,no,m,6,m,0.835394499999893,1,35,test1,1,0.8358492999996088,-52.0
12,lyt,f,21,r,2,(-172.20000000000002, 2.1088417881317425e-14),25,-3,11,yes,x,5,m,0.7105054000003292,0,36,test1,1,0.7107372999998915,-48.0
12,lyt,f,21,r,2,(172.20000000000002, 0.0),21,-25,14,no,m,6,m,0.5964812000001984,1,37,test1,1,0.5966857000003074,-48.0
12,lyt,f,21,r,2,(121.76378772032346, -121.76378772032352),28,3,1,no,m,6,m,0.8032775000001493,1,38,test1,1,0.8034158000000389,-48.0
12,lyt,f,21,r,2,(-172.20000000000002, 2.1088417881317425e-14),25,7,3,yes,x,5,x,0.39948550000008254,1,39,test1,1,0.39963840000018536,-38.0
12,lyt,f,21,r,2,(121.76378772032346, -121.76378772032352),28,7,3,yes,x,5,x,0.7441520000002129,1,40,test1,1,0.7443554999999833,-38.0
12,lyt,f,21,r,2,(121.76378772032346, -121.76378772032352),28,-5,12,yes,x,5,x,0.6791554999999789,1,41,test1,1,0.6792715999999928,-50.0
12,lyt,f,21,r,2,(172.20000000000002, 0.0),21,25,4,yes,x,5,x,0.4412998999996489,1,42,test1,1,0.4414151999999376,-20.0
12,lyt,f,21,r,2,(-121.76378772032348, 121.76378772032349),24,-25,14,no,m,6,x,0.8406243999997969,0,43,test1,1,0.8409191999999166,-20.0
12,lyt,f,21,r,2,(121.76378772032349, 121.76378772032349),22,25,4,yes,x,5,x,0.422384399999828,1,44,test1,1,0.42281239999920217,-20.0
12,lyt,f,21,r,2,(-121.76378772032348, 121.76378772032349),24,3,1,no,m,6,m,0.911945700000615,1,45,test1,1,0.9120788999998695,-20.0
12,lyt,f,21,r,2,(121.76378772032349, 121.76378772032349),22,-3,11,yes,x,5,m,0.8283019000000422,0,46,test1,1,0.8284944999995787,-48.0
12,lyt,f,21,r,2,(172.20000000000002, 0.0),21,3,1,no,m,6,x,0.5735091000005923,0,47,test1,1,0.5737601999999242,-48.0
12,lyt,f,21,r,2,(-172.20000000000002, 2.1088417881317425e-14),25,-7,13,no,m,6,m,0.5617627999999968,1,48,test1,1,0.5621418000000631,-48.0
12,lyt,f,21,r,2,(-3.163262682197613e-14, -172.20000000000002),27,5,2,yes,x,5,x,0.5684112999997524,1,49,test1,1,0.5686487999992096,-40.0
12,lyt,f,21,r,2,(-121.76378772032352, -121.76378772032348),26,-25,14,yes,x,5,x,0.42257990000052814,1,50,test1,1,0.42274189999989176,-70.0
12,lyt,f,21,r,2,(-3.163262682197613e-14, -172.20000000000002),27,-25,14,no,m,6,m,0.8518758000000162,1,51,test1,1,0.8519769999993514,-70.0
12,lyt,f,21,r,2,(-3.163262682197613e-14, -172.20000000000002),27,-5,12,yes,x,5,x,0.3504725000002509,1,52,test1,1,0.3507722999993348,-50.0
12,lyt,f,21,r,2,(121.76378772032346, -121.76378772032352),28,5,2,yes,x,5,x,0.8139052999995329,1,53,test1,1,0.8142419999994672,-40.0
12,lyt,f,21,r,2,(-121.76378772032348, 121.76378772032349),24,25,4,yes,x,5,x,0.5148406999996951,1,54,test1,1,0.5149529999998776,-20.0
12,lyt,f,21,r,2,(-3.163262682197613e-14, -172.20000000000002),27,-3,11,yes,x,5,x,0.505316099999618,1,55,test1,1,0.5059329000005164,-48.0
12,lyt,f,21,r,2,(121.76378772032346, -121.76378772032352),28,3,1,yes,x,5,m,0.5803487999992285,0,56,test1,1,0.5804486999995788,-42.0
12,lyt,f,21,r,2,(121.76378772032349, 121.76378772032349),22,7,3,yes,x,5,x,0.47658450000017183,1,57,test1,1,0.47688949999974284,-38.0
12,lyt,f,21,r,2,(121.76378772032346, -121.76378772032352),28,3,1,yes,x,5,m,0.6795451000007233,0,58,test1,1,0.6797072999997908,-42.0
12,lyt,f,21,r,2,(121.76378772032346, -121.76378772032352),28,-7,13,yes,x,5,x,0.5140457999996215,1,59,test1,1,0.5142645999994784,-52.0
12,lyt,f,21,r,2,(172.20000000000002, 0.0),21,7,3,no,m,6,m,0.727399599999444,1,60,test1,1,0.7275018999998792,-52.0
12,lyt,f,21,r,2,(121.76378772032346, -121.76378772032352),28,25,4,yes,x,5,x,0.4110813999996026,1,61,test1,1,0.4112087999992582,-20.0
12,lyt,f,21,r,2,(-121.76378772032348, 121.76378772032349),24,5,2,yes,x,5,x,0.6199333000004117,1,62,test1,1,0.6200640999995812,-40.0
12,lyt,f,21,r,2,(-3.163262682197613e-14, -172.20000000000002),27,3,1,yes,x,5,x,0.4525493999999526,1,63,test1,1,0.45265139999992243,-42.0
12,lyt,f,21,r,2,(-3.163262682197613e-14, -172.20000000000002),27,-5,12,no,m,6,m,0.7368998000001739,1,64,test1,1,0.7370303999996395,-42.0
12,lyt,f,21,r,2,(-172.20000000000002, 2.1088417881317425e-14),25,7,3,yes,x,5,x,0.4982847999999649,1,65,test1,1,0.4985695000004853,-38.0
12,lyt,f,21,r,2,(121.76378772032349, 121.76378772032349),22,25,4,no,m,6,m,0.8767342000001008,1,66,test1,1,0.877207499999713,-38.0
12,lyt,f,21,r,2,(172.20000000000002, 0.0),21,3,1,yes,x,5,m,0.5605458999998518,0,67,test1,1,0.5607094999995752,-42.0
12,lyt,f,21,r,2,(172.20000000000002, 0.0),21,-5,12,yes,x,5,m,0.5199701000001369,0,68,test1,1,0.5200677000002543,-50.0
12,lyt,f,21,r,2,(-121.76378772032348, 121.76378772032349),24,-25,14,yes,x,5,x,0.4015075999996043,1,69,test1,1,0.4017530999999508,-70.0
12,lyt,f,21,r,2,(-121.76378772032348, 121.76378772032349),24,5,2,yes,x,5,x,0.5551694000005227,1,70,test1,1,0.5552703999992445,-40.0
12,lyt,f,21,r,2,(172.20000000000002, 0.0),21,-7,13,yes,x,5,x,0.42749750000075437,1,71,test1,1,0.42772859999968205,-52.0
12,lyt,f,21,r,2,(1.0544208940658713e-14, 172.20000000000002),23,-5,12,no,m,6,x,0.8684375000002547,0,72,test1,1,0.8686993000001166,-52.0
12,lyt,f,21,r,2,(-3.163262682197613e-14, -172.20000000000002),27,5,2,yes,x,5,x,0.5081116999999722,1,73,test1,1,0.5083463999999367,-40.0
12,lyt,f,21,r,2,(-121.76378772032352, -121.76378772032348),26,7,3,no,m,6,m,1.160700600000382,1,74,test1,1,1.1608914999997069,-40.0
12,lyt,f,21,r,2,(1.0544208940658713e-14, 172.20000000000002),23,-7,13,yes,x,5,x,0.53056209999977,1,75,test1,1,0.5307089999996606,-52.0
12,lyt,f,21,r,2,(172.20000000000002, 0.0),21,-7,13,yes,x,5,x,0.5270207000003211,1,76,test1,1,0.5271471000005477,-52.0
12,lyt,f,21,r,2,(121.76378772032349, 121.76378772032349),22,-5,12,yes,x,5,x,0.861710299999686,1,77,test1,1,0.8621410999994623,-50.0
12,lyt,f,21,r,2,(121.76378772032346, -121.76378772032352),28,25,4,no,m,6,m,0.8160476000002745,1,78,test1,1,0.8163146999995661,-50.0
12,lyt,f,21,r,2,(121.76378772032349, 121.76378772032349),22,5,2,yes,x,5,x,0.5583309000003283,1,79,test1,1,0.5585711000003357,-40.0
12,lyt,f,21,r,2,(-121.76378772032352, -121.76378772032348),26,5,2,yes,x,5,x,0.7527598000006037,1,80,test1,1,0.7529250000006869,-40.0
12,lyt,f,21,r,2,(1.0544208940658713e-14, 172.20000000000002),23,3,1,no,m,6,m,0.7634973000003811,1,81,test1,1,0.7638049000006504,-40.0
12,lyt,f,21,r,2,(-121.76378772032348, 121.76378772032349),24,25,4,yes,x,5,x,0.39784620000045834,1,82,test1,1,0.39854230000037205,-20.0
12,lyt,f,21,r,2,(-3.163262682197613e-14, -172.20000000000002),27,-3,11,no,m,6,m,0.9381199999997989,1,83,test1,1,0.938270200000261,-20.0
12,lyt,f,21,r,2,(172.20000000000002, 0.0),21,5,2,yes,x,5,x,0.9137167999997473,1,84,test1,1,0.9140115000000151,-40.0
12,lyt,f,21,r,2,(1.0544208940658713e-14, 172.20000000000002),23,-25,14,yes,x,5,x,0.4844959000001836,1,85,test1,1,0.48471750000044267,-70.0
12,lyt,f,21,r,2,(-121.76378772032352, -121.76378772032348),26,25,4,yes,x,5,x,0.5147625999998127,1,86,test1,1,0.5149841000002198,-20.0
12,lyt,f,21,r,2,(1.0544208940658713e-14, 172.20000000000002),23,3,1,yes,x,5,x,0.5336525000002439,1,87,test1,1,0.5340452000000369,-42.0
12,lyt,f,21,r,2,(172.20000000000002, 0.0),21,7,3,yes,x,5,x,0.4123948999995264,1,88,test1,1,0.4125213999996049,-38.0
12,lyt,f,21,r,2,(-172.20000000000002, 2.1088417881317425e-14),25,-7,13,yes,x,5,x,0.431232099999761,1,89,test1,1,0.43139869999959046,-52.0
12,lyt,f,21,r,2,(1.0544208940658713e-14, 172.20000000000002),23,7,3,yes,x,5,x,0.4038608999999269,1,90,test1,1,0.4039604999998119,-38.0
12,lyt,f,21,r,2,(172.20000000000002, 0.0),21,-3,11,yes,x,5,x,0.8011052000001655,1,91,test1,1,0.8015077000000019,-48.0
12,lyt,f,21,r,2,(-121.76378772032352, -121.76378772032348),26,-3,11,yes,x,5,x,1.2535404999998718,1,92,test1,1,1.2537075000000186,-48.0
12,lyt,f,21,r,2,(121.76378772032349, 121.76378772032349),22,-25,14,no,m,6,m,0.58254130000023,1,93,test1,1,0.5828105999999025,-48.0
12,lyt,f,21,r,2,(-121.76378772032352, -121.76378772032348),26,5,2,yes,x,5,x,0.751353100000415,1,94,test1,1,0.7515668000005462,-40.0
12,lyt,f,21,r,2,(121.76378772032346, -121.76378772032352),28,-25,14,no,m,6,m,0.6037096999998539,1,95,test1,1,0.6038748000000851,-40.0
12,lyt,f,21,r,2,(-172.20000000000002, 2.1088417881317425e-14),25,5,2,yes,x,5,x,0.5899582000001828,1,96,test1,1,0.5902285000001939,-40.0
12,lyt,f,21,r,2,(-121.76378772032348, 121.76378772032349),24,7,3,yes,x,5,x,0.5071934999996301,1,1,test2,1,0.5074157999997624,-38.0
12,lyt,f,21,r,2,(121.76378772032346, -121.76378772032352),28,-25,14,yes,x,5,x,0.40286980000018957,1,2,test2,1,0.4033358999995471,-70.0
12,lyt,f,21,r,2,(-172.20000000000002, 2.1088417881317425e-14),25,-5,12,yes,x,5,x,0.45164030000069033,1,3,test2,1,0.45175319999998464,-50.0
12,lyt,f,21,r,2,(121.76378772032346, -121.76378772032352),28,5,2,yes,x,5,x,0.5797297999997681,1,4,test2,1,0.5798298999998224,-40.0
12,lyt,f,21,r,2,(-121.76378772032352, -121.76378772032348),26,7,3,yes,x,5,x,0.39030370000000403,1,5,test2,1,0.3905336999996507,-38.0
12,lyt,f,21,r,2,(1.0544208940658713e-14, 172.20000000000002),23,-25,14,yes,x,5,x,0.38334349999968254,1,6,test2,1,0.3834461000005831,-70.0
12,lyt,f,21,r,2,(-121.76378772032348, 121.76378772032349),24,5,2,no,m,6,m,0.7673474000002898,1,7,test2,1,0.7677904000001945,-70.0
12,lyt,f,21,r,2,(1.0544208940658713e-14, 172.20000000000002),23,-5,12,yes,x,5,x,0.5228546000007555,1,8,test2,1,0.5229812000006859,-50.0
12,lyt,f,21,r,2,(-121.76378772032348, 121.76378772032349),24,-7,13,yes,x,5,x,0.46347920000062004,1,9,test2,1,0.46377940000002127,-52.0
12,lyt,f,21,r,2,(-121.76378772032348, 121.76378772032349),24,25,4,no,m,6,m,0.5369930999995631,1,10,test2,1,0.5371532000008301,-52.0
12,lyt,f,21,r,2,(-121.76378772032352, -121.76378772032348),26,-25,14,yes,x,5,x,0.4006546000000526,1,11,test2,1,0.4007814000005965,-70.0
12,lyt,f,21,r,2,(172.20000000000002, 0.0),21,-5,12,no,m,6,m,0.5930183000000397,1,12,test2,1,0.5931938999992781,-70.0
12,lyt,f,21,r,2,(-121.76378772032352, -121.76378772032348),26,7,3,yes,x,5,x,0.49814669999977923,1,13,test2,1,0.4984394999992219,-38.0
12,lyt,f,21,r,2,(-121.76378772032352, -121.76378772032348),26,3,1,yes,x,5,m,1.0447813000000679,0,14,test2,1,1.0450163000004977,-42.0
12,lyt,f,21,r,2,(-172.20000000000002, 2.1088417881317425e-14),25,25,4,no,m,6,m,0.5666842000000543,1,15,test2,1,0.5668198000003031,-42.0
12,lyt,f,21,r,2,(-121.76378772032348, 121.76378772032349),24,-7,13,no,m,6,m,0.6292257999994035,1,16,test2,1,0.6298503999996683,-42.0
12,lyt,f,21,r,2,(1.0544208940658713e-14, 172.20000000000002),23,25,4,yes,x,5,x,0.4107033999998748,1,17,test2,1,0.41085279999970226,-20.0
12,lyt,f,21,r,2,(-172.20000000000002, 2.1088417881317425e-14),25,-25,14,no,m,6,m,0.5803257999996276,1,18,test2,1,0.5806384999996226,-20.0
12,lyt,f,21,r,2,(172.20000000000002, 0.0),21,5,2,yes,x,5,x,0.8690693999997166,1,19,test2,1,0.869296700000632,-40.0
12,lyt,f,21,r,2,(172.20000000000002, 0.0),21,-5,12,yes,x,5,x,0.7549972999995589,1,20,test2,1,0.7552087000003667,-50.0
12,lyt,f,21,r,2,(1.0544208940658713e-14, 172.20000000000002),23,5,2,no,m,6,m,0.5507870999999795,1,21,test2,1,0.550884500000393,-50.0
12,lyt,f,21,r,2,(1.0544208940658713e-14, 172.20000000000002),23,7,3,yes,x,5,x,0.4127459999999701,1,22,test2,1,0.41287409999949887,-38.0
12,lyt,f,21,r,2,(121.76378772032349, 121.76378772032349),22,25,4,yes,x,5,x,0.42739179999989574,1,23,test2,1,0.4277073000002929,-20.0
12,lyt,f,21,r,2,(172.20000000000002, 0.0),21,-25,14,yes,x,5,x,0.4154350999997405,1,24,test2,1,0.4161188000007314,-70.0
12,lyt,f,21,r,2,(-172.20000000000002, 2.1088417881317425e-14),25,5,2,yes,x,5,x,0.782710099999349,1,25,test2,1,0.7828227999998489,-40.0
12,lyt,f,21,r,2,(121.76378772032349, 121.76378772032349),22,-7,13,yes,x,5,x,0.4676945000001069,1,26,test2,1,0.4683558999995512,-52.0
12,lyt,f,21,r,2,(-121.76378772032348, 121.76378772032349),24,-25,14,yes,x,5,x,0.43569990000014513,1,27,test2,1,0.43586620000041876,-70.0
12,lyt,f,21,r,2,(1.0544208940658713e-14, 172.20000000000002),23,-5,12,yes,x,5,x,0.7927518000005875,1,28,test2,1,0.7928490000003876,-50.0
12,lyt,f,21,r,2,(121.76378772032346, -121.76378772032352),28,-7,13,no,m,6,m,0.52911050000057,1,29,test2,1,0.5292239000000336,-50.0
12,lyt,f,21,r,2,(1.0544208940658713e-14, 172.20000000000002),23,-3,11,yes,x,5,x,0.7691070999999283,1,30,test2,1,0.7692563000000519,-48.0
12,lyt,f,21,r,2,(-172.20000000000002, 2.1088417881317425e-14),25,-3,11,yes,x,5,x,0.945183900000302,1,31,test2,1,0.9455519999992248,-48.0
12,lyt,f,21,r,2,(-3.163262682197613e-14, -172.20000000000002),27,25,4,no,m,6,m,0.7465753999995286,1,32,test2,1,0.7466843000001973,-48.0
12,lyt,f,21,r,2,(172.20000000000002, 0.0),21,-3,11,no,m,6,m,0.731443799999397,1,33,test2,1,0.7316082000006645,-48.0
12,lyt,f,21,r,2,(-172.20000000000002, 2.1088417881317425e-14),25,-25,14,yes,x,5,x,0.4063925000000381,1,34,test2,1,0.40648940000028233,-70.0
12,lyt,f,21,r,2,(-121.76378772032352, -121.76378772032348),26,25,4,no,m,6,m,0.5647103000001152,1,35,test2,1,0.565041900000324,-70.0
12,lyt,f,21,r,2,(121.76378772032346, -121.76378772032352),28,-3,11,yes,x,5,x,1.0342074999998658,1,36,test2,1,1.0344199999999546,-48.0
12,lyt,f,21,r,2,(121.76378772032349, 121.76378772032349),22,3,1,yes,x,5,m,0.6894216999999117,0,37,test2,1,0.6895402000000104,-42.0
12,lyt,f,21,r,2,(1.0544208940658713e-14, 172.20000000000002),23,5,2,yes,x,5,x,0.6436273999997866,1,38,test2,1,0.6437282000006235,-40.0
12,lyt,f,21,r,2,(-172.20000000000002, 2.1088417881317425e-14),25,3,1,no,m,6,m,0.8661013999999341,1,39,test2,1,0.8663229999992836,-40.0
12,lyt,f,21,r,2,(1.0544208940658713e-14, 172.20000000000002),23,-25,14,no,m,6,x,1.0785499000003256,0,40,test2,1,1.0790704999999434,-40.0
12,lyt,f,21,r,2,(-121.76378772032352, -121.76378772032348),26,-7,13,yes,x,5,x,0.5122021999995923,1,41,test2,1,0.5123045000000275,-52.0
12,lyt,f,21,r,2,(-3.163262682197613e-14, -172.20000000000002),27,-7,13,yes,x,5,x,0.501401800000167,1,42,test2,1,0.5019541000001482,-52.0
12,lyt,f,21,r,2,(-121.76378772032352, -121.76378772032348),26,25,4,yes,x,5,x,0.5108558000001722,1,43,test2,1,0.5110281999996005,-20.0
12,lyt,f,21,r,2,(1.0544208940658713e-14, 172.20000000000002),23,25,4,yes,x,5,x,0.45352309999998397,1,44,test2,1,0.453699300000153,-20.0
12,lyt,f,21,r,2,(-3.163262682197613e-14, -172.20000000000002),27,-7,13,no,m,6,x,0.9948001000002478,0,45,test2,1,0.9954489000001558,-20.0
12,lyt,f,21,r,2,(172.20000000000002, 0.0),21,-7,13,no,m,6,m,0.6347029999997176,1,46,test2,1,0.6348067999997511,-20.0
12,lyt,f,21,r,2,(121.76378772032349, 121.76378772032349),22,3,1,yes,x,5,x,1.0035344999996596,1,47,test2,1,1.0037740000007034,-42.0
12,lyt,f,21,r,2,(-121.76378772032352, -121.76378772032348),26,3,1,yes,x,5,x,0.7277389000000767,1,48,test2,1,0.7278368999996019,-42.0
12,lyt,f,21,r,2,(-121.76378772032352, -121.76378772032348),26,-5,12,yes,x,5,x,0.4970284000000902,1,49,test2,1,0.497158600000148,-50.0
12,lyt,f,21,r,2,(-121.76378772032352, -121.76378772032348),26,5,2,no,m,6,m,0.6685993999999482,1,50,test2,1,0.6690499999995154,-50.0
12,lyt,f,21,r,2,(172.20000000000002, 0.0),21,3,1,yes,x,5,m,0.8980738000000201,0,51,test2,1,0.898292599999877,-42.0
12,lyt,f,21,r,2,(-3.163262682197613e-14, -172.20000000000002),27,7,3,yes,x,5,x,0.5088074999994205,1,52,test2,1,0.5089630000002217,-38.0
12,lyt,f,21,r,2,(121.76378772032349, 121.76378772032349),22,5,2,yes,x,5,x,0.533752800000002,1,53,test2,1,0.5339904000002207,-40.0
12,lyt,f,21,r,2,(121.76378772032346, -121.76378772032352),28,-25,14,yes,x,5,m,0.7111116000005495,0,54,test2,1,0.7112265000005209,-70.0
12,lyt,f,21,r,2,(-121.76378772032348, 121.76378772032349),24,-3,11,no,m,6,m,1.0440625000001091,1,55,test2,1,1.0444891000006464,-70.0
12,lyt,f,21,r,2,(-172.20000000000002, 2.1088417881317425e-14),25,5,2,no,m,6,m,1.2901444999997693,1,56,test2,1,1.2904981000001499,-70.0
12,lyt,f,21,r,2,(-172.20000000000002, 2.1088417881317425e-14),25,-5,12,yes,x,5,x,0.6355775000001813,1,57,test2,1,0.6357974000002287,-50.0
12,lyt,f,21,r,2,(-3.163262682197613e-14, -172.20000000000002),27,25,4,yes,x,5,x,0.5343547000002218,1,58,test2,1,0.5344850000001315,-20.0
12,lyt,f,21,r,2,(121.76378772032349, 121.76378772032349),22,-25,14,yes,x,5,x,0.43037029999959486,1,59,test2,1,0.43061429999943357,-70.0
12,lyt,f,21,r,2,(-121.76378772032352, -121.76378772032348),26,-7,13,yes,x,5,x,0.7202652000005401,1,60,test2,1,0.720396200000323,-52.0
12,lyt,f,21,r,2,(-121.76378772032352, -121.76378772032348),26,-25,14,no,m,6,m,0.5907696000003853,1,61,test2,1,0.590896700000485,-52.0
12,lyt,f,21,r,2,(121.76378772032346, -121.76378772032352),28,5,2,no,m,6,m,0.9498053000006621,1,62,test2,1,0.9500385000001188,-52.0
12,lyt,f,21,r,2,(121.76378772032349, 121.76378772032349),22,-3,11,no,m,6,x,1.153508100000181,0,63,test2,1,1.1536089000001084,-52.0
12,lyt,f,21,r,2,(-3.163262682197613e-14, -172.20000000000002),27,7,3,no,m,6,m,0.732071200000064,1,64,test2,1,0.7324792999997953,-52.0
12,lyt,f,21,r,2,(-121.76378772032348, 121.76378772032349),24,-5,12,no,m,6,m,0.6751379999996061,1,65,test2,1,0.6752761999996437,-52.0
12,lyt,f,21,r,2,(-121.76378772032352, -121.76378772032348),26,-5,12,no,m,6,m,0.5848069000003306,1,66,test2,1,0.5850894999994125,-52.0
12,lyt,f,21,r,2,(-121.76378772032348, 121.76378772032349),24,-3,11,yes,x,5,m,0.697951600000124,0,67,test2,1,0.6980801999998221,-48.0
12,lyt,f,21,r,2,(-121.76378772032348, 121.76378772032349),24,3,1,yes,x,5,x,1.1528054000000338,1,68,test2,1,1.1532446000001073,-42.0
12,lyt,f,21,r,2,(121.76378772032349, 121.76378772032349),22,-5,12,no,m,6,m,0.7746403999999529,1,69,test2,1,0.774947500000053,-42.0
12,lyt,f,21,r,2,(121.76378772032346, -121.76378772032352),28,7,3,no,m,6,m,0.5277969999997367,1,70,test2,1,0.5280040999996345,-42.0
12,lyt,f,21,r,2,(-3.163262682197613e-14, -172.20000000000002),27,-3,11,yes,x,5,x,0.5368509999998423,1,71,test2,1,0.5370703999997204,-48.0
12,lyt,f,21,r,2,(-121.76378772032352, -121.76378772032348),26,3,1,no,m,6,m,0.842441300000246,1,72,test2,1,0.8426288000000568,-48.0
12,lyt,f,21,r,2,(121.76378772032349, 121.76378772032349),22,-5,12,yes,x,5,x,0.4481378999998924,1,73,test2,1,0.4482503999997789,-50.0
12,lyt,f,21,r,2,(-172.20000000000002, 2.1088417881317425e-14),25,25,4,yes,x,5,x,0.4413058000000092,1,74,test2,1,0.44144450000021607,-20.0
12,lyt,f,21,r,2,(1.0544208940658713e-14, 172.20000000000002),23,-3,11,no,m,6,m,0.6098220000003494,1,75,test2,1,0.6099368000004688,-20.0
12,lyt,f,21,r,2,(-3.163262682197613e-14, -172.20000000000002),27,3,1,no,m,6,m,0.6169694000000163,1,76,test2,1,0.6173883000001297,-20.0
12,lyt,f,21,r,2,(121.76378772032346, -121.76378772032352),28,-3,11,no,m,6,m,0.7038730000003852,1,77,test2,1,0.7041290000006484,-20.0
12,lyt,f,21,r,2,(121.76378772032349, 121.76378772032349),22,-7,13,no,m,6,m,0.6063536999999997,1,78,test2,1,0.6064512999992075,-20.0
12,lyt,f,21,r,2,(121.76378772032346, -121.76378772032352),28,7,3,yes,x,5,x,0.4919270999998844,1,79,test2,1,0.49232370000027004,-38.0
12,lyt,f,21,r,2,(-172.20000000000002, 2.1088417881317425e-14),25,25,4,yes,x,5,x,0.4714339000001928,1,80,test2,1,0.471568699999807,-20.0
12,lyt,f,21,r,2,(-121.76378772032352, -121.76378772032348),26,-3,11,yes,x,5,m,0.49221810000017285,0,81,test2,1,0.4923618000002534,-48.0
12,lyt,f,21,r,2,(-172.20000000000002, 2.1088417881317425e-14),25,3,1,yes,x,5,x,0.4636081999997259,1,82,test2,1,0.46382549999998446,-42.0
12,lyt,f,21,r,2,(1.0544208940658713e-14, 172.20000000000002),23,-7,13,yes,x,5,x,0.4917933999995512,1,83,test2,1,0.49207750000005035,-52.0
12,lyt,f,21,r,2,(121.76378772032346, -121.76378772032352),28,25,4,yes,x,5,x,0.4554022000002078,1,84,test2,1,0.4556370999998762,-20.0
12,lyt,f,21,r,2,(-172.20000000000002, 2.1088417881317425e-14),25,-25,14,yes,x,5,x,0.4081544999999096,1,85,test2,1,0.4086440999999468,-70.0
12,lyt,f,21,r,2,(121.76378772032349, 121.76378772032349),22,7,3,no,m,6,m,0.9591553000000204,1,86,test2,1,0.9593235000002096,-70.0
12,lyt,f,21,r,2,(121.76378772032349, 121.76378772032349),22,7,3,yes,x,5,x,0.48012780000044586,1,87,test2,1,0.48025909999978467,-38.0
12,lyt,f,21,r,2,(121.76378772032349, 121.76378772032349),22,-3,11,yes,x,5,x,1.2423705000001064,1,88,test2,1,1.2429763999998613,-48.0
12,lyt,f,21,r,2,(121.76378772032346, -121.76378772032352),28,-5,12,no,m,6,m,0.5853336000000127,1,89,test2,1,0.5854331999998976,-48.0
12,lyt,f,21,r,2,(-3.163262682197613e-14, -172.20000000000002),27,-25,14,yes,x,5,x,0.4651940999992803,1,90,test2,1,0.4652953000004345,-70.0
12,lyt,f,21,r,2,(-3.163262682197613e-14, -172.20000000000002),27,-7,13,yes,x,5,x,0.45154639999964274,1,91,test2,1,0.45198160000018106,-52.0
12,lyt,f,21,r,2,(172.20000000000002, 0.0),21,25,4,yes,x,5,x,0.5635142999999516,1,92,test2,1,0.5640769000001455,-20.0
12,lyt,f,21,r,2,(172.20000000000002, 0.0),21,25,4,no,m,6,m,0.7726398000004338,1,93,test2,1,0.7728406999995059,-20.0
12,lyt,f,21,r,2,(-121.76378772032348, 121.76378772032349),24,7,3,no,m,6,m,0.6416799999997238,1,94,test2,1,0.6418020999999499,-20.0
12,lyt,f,21,r,2,(172.20000000000002, 0.0),21,7,3,yes,x,5,x,0.4593242000000828,1,95,test2,1,0.45972359999996115,-38.0
12,lyt,f,21,r,2,(172.20000000000002, 0.0),21,-25,14,yes,x,5,x,0.46989080000003014,1,96,test2,1,0.4705734000008306,-70.0
12,lyt,f,21,r,2,(-3.163262682197613e-14, -172.20000000000002),27,3,1,yes,x,5,x,0.7575581999999486,1,1,test1,2,0.7578089999997246,-42.0
12,lyt,f,21,r,2,(1.0544208940658713e-14, 172.20000000000002),23,-3,11,yes,x,5,x,0.6540377999999691,1,2,test1,2,0.6541950000000725,-48.0
12,lyt,f,21,r,2,(1.0544208940658713e-14, 172.20000000000002),23,5,2,yes,x,5,x,0.5080644999998185,1,3,test1,2,0.5081693000001906,-40.0
12,lyt,f,21,r,2,(-172.20000000000002, 2.1088417881317425e-14),25,3,1,yes,x,5,x,0.5114681000004566,1,4,test1,2,0.5117136000008031,-42.0
12,lyt,f,21,r,2,(172.20000000000002, 0.0),21,5,2,no,m,6,m,0.6197230000007039,1,5,test1,2,0.6198201999995945,-42.0
12,lyt,f,21,r,2,(121.76378772032346, -121.76378772032352),28,-3,11,yes,x,5,m,0.8398906000002171,0,6,test1,2,0.8401235000001179,-48.0
12,lyt,f,21,r,2,(-121.76378772032352, -121.76378772032348),26,-7,13,no,m,6,m,0.6235936000002766,1,7,test1,2,0.6242412000001423,-48.0
12,lyt,f,21,r,2,(-121.76378772032348, 121.76378772032349),24,-5,12,yes,x,5,x,0.44486959999994724,1,8,test1,2,0.4451427000003605,-50.0
12,lyt,f,21,r,2,(-172.20000000000002, 2.1088417881317425e-14),25,-7,13,yes,x,5,x,0.4941684000004898,1,9,test1,2,0.4945049999996627,-52.0
12,lyt,f,21,r,2,(1.0544208940658713e-14, 172.20000000000002),23,3,1,yes,x,5,x,0.6195029000000432,1,10,test1,2,0.6195981000000756,-42.0
12,lyt,f,21,r,2,(172.20000000000002, 0.0),21,-3,11,yes,x,5,x,1.4451927000000069,1,11,test1,2,1.4454166999994413,-48.0
12,lyt,f,21,r,2,(-121.76378772032352, -121.76378772032348),26,-5,12,yes,x,5,x,0.5684688000001188,1,12,test1,2,0.5686606999997821,-50.0
12,lyt,f,21,r,2,(121.76378772032349, 121.76378772032349),22,-25,14,yes,x,5,x,0.4038332000000082,1,13,test1,2,0.40393540000059147,-70.0
12,lyt,f,21,r,2,(-3.163262682197613e-14, -172.20000000000002),27,-25,14,yes,x,5,x,0.45498920000045473,1,14,test1,2,0.4550894000003609,-70.0
12,lyt,f,21,r,2,(121.76378772032346, -121.76378772032352),28,-5,12,yes,x,5,x,0.5347770000007586,1,15,test1,2,0.5350686000001588,-50.0
12,lyt,f,21,r,2,(-121.76378772032348, 121.76378772032349),24,-7,13,yes,x,5,x,0.47399489999952493,1,16,test1,2,0.47436500000003434,-52.0
12,lyt,f,21,r,2,(1.0544208940658713e-14, 172.20000000000002),23,-7,13,no,m,6,m,0.8325997000001735,1,17,test1,2,0.832947900000363,-52.0
12,lyt,f,21,r,2,(-3.163262682197613e-14, -172.20000000000002),27,-5,12,yes,x,5,x,0.44283160000031785,1,18,test1,2,0.44299640000008367,-50.0
12,lyt,f,21,r,2,(1.0544208940658713e-14, 172.20000000000002),23,25,4,no,m,6,m,0.8126042000003508,1,19,test1,2,0.8127455000003465,-50.0
12,lyt,f,21,r,2,(-121.76378772032348, 121.76378772032349),24,3,1,yes,x,5,x,0.6915362999998251,1,20,test1,2,0.6919219999999768,-42.0
12,lyt,f,21,r,2,(-3.163262682197613e-14, -172.20000000000002),27,7,3,yes,x,5,x,0.4934997000000294,1,21,test1,2,0.49363420000008773,-38.0
12,lyt,f,21,r,2,(-3.163262682197613e-14, -172.20000000000002),27,5,2,no,m,6,m,0.671070299999883,1,22,test1,2,0.6713065000003553,-38.0
12,lyt,f,21,r,2,(-121.76378772032352, -121.76378772032348),26,-3,11,no,m,6,m,0.6627200000002631,1,23,test1,2,0.6631354000001011,-38.0
12,lyt,f,21,r,2,(-121.76378772032348, 121.76378772032349),24,-3,11,yes,x,5,x,1.267462599999817,1,24,test1,2,1.267684200000076,-48.0
12,lyt,f,21,r,2,(121.76378772032349, 121.76378772032349),22,-7,13,yes,x,5,x,1.4917935000003126,1,25,test1,2,1.492028399999981,-52.0
12,lyt,f,21,r,2,(121.76378772032349, 121.76378772032349),22,3,1,no,m,6,m,0.6129676999998992,1,26,test1,2,0.6133927999999287,-52.0
12,lyt,f,21,r,2,(-172.20000000000002, 2.1088417881317425e-14),25,7,3,no,m,6,m,0.6298858999998629,1,27,test1,2,0.630005600000004,-52.0
12,lyt,f,21,r,2,(-121.76378772032348, 121.76378772032349),24,7,3,yes,x,5,x,0.42437840000002325,1,28,test1,2,0.42457960000047024,-38.0
12,lyt,f,21,r,2,(121.76378772032349, 121.76378772032349),22,5,2,no,m,6,m,0.6893076000005749,1,29,test1,2,0.6895162999999229,-38.0
12,lyt,f,21,r,2,(-3.163262682197613e-14, -172.20000000000002),27,25,4,yes,x,5,x,0.4815504999996847,1,30,test1,2,0.48164970000016183,-20.0
12,lyt,f,21,r,2,(-172.20000000000002, 2.1088417881317425e-14),25,-5,12,no,m,6,m,0.7134735999998156,1,31,test1,2,0.7136053999993237,-20.0
12,lyt,f,21,r,2,(-121.76378772032348, 121.76378772032349),24,-5,12,yes,x,5,x,0.6124534000000494,1,32,test1,2,0.6125573999997869,-50.0
12,lyt,f,21,r,2,(1.0544208940658713e-14, 172.20000000000002),23,7,3,no,m,6,m,0.7584293999998408,1,33,test1,2,0.7586762999999337,-50.0
12,lyt,f,21,r,2,(121.76378772032346, -121.76378772032352),28,-7,13,yes,x,5,x,0.5156455000005735,1,34,test1,2,0.5158875999995871,-52.0
12,lyt,f,21,r,2,(-172.20000000000002, 2.1088417881317425e-14),25,-3,11,no,m,6,m,0.6220346999998583,1,35,test1,2,0.6224921000002723,-52.0
12,lyt,f,21,r,2,(-172.20000000000002, 2.1088417881317425e-14),25,-3,11,yes,x,5,m,0.6080265999999028,0,36,test1,2,0.6081856000000698,-48.0
12,lyt,f,21,r,2,(172.20000000000002, 0.0),21,-25,14,no,m,6,m,0.6035337000002983,1,37,test1,2,0.6038459999999759,-48.0
12,lyt,f,21,r,2,(121.76378772032346, -121.76378772032352),28,3,1,no,m,6,m,0.914472499999647,1,38,test1,2,0.9145905000004859,-48.0
12,lyt,f,21,r,2,(-172.20000000000002, 2.1088417881317425e-14),25,7,3,yes,x,5,x,0.41704699999991135,1,39,test1,2,0.41715860000022076,-38.0
12,lyt,f,21,r,2,(121.76378772032346, -121.76378772032352),28,7,3,yes,x,5,x,0.5115740000001097,1,40,test1,2,0.5118533999993815,-38.0
12,lyt,f,21,r,2,(121.76378772032346, -121.76378772032352),28,-5,12,yes,x,5,x,0.5189352999996117,1,41,test1,2,0.5190678999997544,-50.0
12,lyt,f,21,r,2,(172.20000000000002, 0.0),21,25,4,yes,x,5,x,0.4353118999997605,1,42,test1,2,0.43541000000004715,-20.0
12,lyt,f,21,r,2,(-121.76378772032348, 121.76378772032349),24,-25,14,no,m,6,m,0.6353528999998161,1,43,test1,2,0.6355548999999883,-20.0
12,lyt,f,21,r,2,(121.76378772032349, 121.76378772032349),22,25,4,yes,x,5,x,0.3720295000002807,1,44,test1,2,0.3721920999996655,-20.0
12,lyt,f,21,r,2,(-121.76378772032348, 121.76378772032349),24,3,1,no,m,6,m,0.704882600000019,1,45,test1,2,0.7050773999999365,-20.0
12,lyt,f,21,r,2,(121.76378772032349, 121.76378772032349),22,-3,11,yes,x,5,x,1.006544699999722,1,46,test1,2,1.0072215000000142,-48.0
12,lyt,f,21,r,2,(172.20000000000002, 0.0),21,3,1,no,m,6,x,0.9737712999994983,0,47,test1,2,0.9738741000001028,-48.0
12,lyt,f,21,r,2,(-172.20000000000002, 2.1088417881317425e-14),25,-7,13,no,m,6,x,1.2754270999994333,0,48,test1,2,1.2757388999998511,-48.0
12,lyt,f,21,r,2,(-3.163262682197613e-14, -172.20000000000002),27,5,2,yes,x,5,x,0.7394766999996136,1,49,test1,2,0.7395832000001974,-40.0
12,lyt,f,21,r,2,(-121.76378772032352, -121.76378772032348),26,-25,14,yes,x,5,x,0.5030205000002752,1,50,test1,2,0.5033779999994294,-70.0
12,lyt,f,21,r,2,(-3.163262682197613e-14, -172.20000000000002),27,-25,14,no,m,6,m,0.6107934999999998,1,51,test1,2,0.6110453000001144,-70.0
12,lyt,f,21,r,2,(-3.163262682197613e-14, -172.20000000000002),27,-5,12,yes,x,5,x,0.4883381999998164,1,52,test1,2,0.4887779999999111,-50.0
12,lyt,f,21,r,2,(121.76378772032346, -121.76378772032352),28,5,2,yes,x,5,x,0.5083274000007805,1,53,test1,2,0.5085970000000088,-40.0
12,lyt,f,21,r,2,(-121.76378772032348, 121.76378772032349),24,25,4,yes,x,5,x,0.39781519999996817,1,54,test1,2,0.3981155999999828,-20.0
12,lyt,f,21,r,2,(-3.163262682197613e-14, -172.20000000000002),27,-3,11,yes,x,5,x,0.7255735999997341,1,55,test1,2,0.7257423999999446,-48.0
12,lyt,f,21,r,2,(121.76378772032346, -121.76378772032352),28,3,1,yes,x,5,m,0.5709551999998439,0,56,test1,2,0.5712479000003441,-42.0
12,lyt,f,21,r,2,(121.76378772032349, 121.76378772032349),22,7,3,yes,x,5,x,0.5042874999999185,1,57,test1,2,0.504448799999409,-38.0
12,lyt,f,21,r,2,(121.76378772032346, -121.76378772032352),28,3,1,yes,x,5,x,0.6046227999995608,1,58,test1,2,0.6047839000002568,-42.0
12,lyt,f,21,r,2,(121.76378772032346, -121.76378772032352),28,-7,13,yes,x,5,x,0.41932749999978114,1,59,test1,2,0.4196210999998584,-52.0
12,lyt,f,21,r,2,(172.20000000000002, 0.0),21,7,3,no,m,6,m,0.8437229000001025,1,60,test1,2,0.8438541000004989,-52.0
12,lyt,f,21,r,2,(121.76378772032346, -121.76378772032352),28,25,4,yes,x,5,x,0.6920405000000756,1,61,test1,2,0.6922230999998646,-20.0
12,lyt,f,21,r,2,(-121.76378772032348, 121.76378772032349),24,5,2,yes,x,5,x,0.47543339999992895,1,62,test1,2,0.47560280000016064,-40.0
12,lyt,f,21,r,2,(-3.163262682197613e-14, -172.20000000000002),27,3,1,yes,x,5,x,0.705402999999933,1,63,test1,2,0.7060808999995061,-42.0
12,lyt,f,21,r,2,(-3.163262682197613e-14, -172.20000000000002),27,-5,12,no,m,6,m,0.6892637000000832,1,64,test1,2,0.6893767999999909,-42.0
12,lyt,f,21,r,2,(-172.20000000000002, 2.1088417881317425e-14),25,7,3,yes,x,5,x,0.36190669999996317,1,65,test1,2,0.36232339999969554,-38.0
12,lyt,f,21,r,2,(121.76378772032349, 121.76378772032349),22,25,4,no,m,6,m,0.6160961000005045,1,66,test1,2,0.616263699999763,-38.0
12,lyt,f,21,r,2,(172.20000000000002, 0.0),21,3,1,yes,x,5,m,0.7293438000006063,0,67,test1,2,0.7295840999995562,-42.0
12,lyt,f,21,r,2,(172.20000000000002, 0.0),21,-5,12,yes,x,5,x,0.5807653000001665,1,68,test1,2,0.5814453000002686,-50.0
12,lyt,f,21,r,2,(-121.76378772032348, 121.76378772032349),24,-25,14,yes,x,5,x,0.38439889999972365,1,69,test1,2,0.3845001999998203,-70.0
12,lyt,f,21,r,2,(-121.76378772032348, 121.76378772032349),24,5,2,yes,x,5,x,0.5156981999998607,1,70,test1,2,0.5158291000007011,-40.0
12,lyt,f,21,r,2,(172.20000000000002, 0.0),21,-7,13,yes,x,5,x,0.4677037000001292,1,71,test1,2,0.46783270000014454,-52.0
12,lyt,f,21,r,2,(1.0544208940658713e-14, 172.20000000000002),23,-5,12,no,m,6,m,0.9436452999998437,1,72,test1,2,0.9438443999997617,-52.0
12,lyt,f,21,r,2,(-3.163262682197613e-14, -172.20000000000002),27,5,2,yes,x,5,x,0.45523769999999786,1,73,test1,2,0.4554109000000608,-40.0
12,lyt,f,21,r,2,(-121.76378772032352, -121.76378772032348),26,7,3,no,m,6,m,0.8685148000004119,1,74,test1,2,0.8687986000004457,-40.0
12,lyt,f,21,r,2,(1.0544208940658713e-14, 172.20000000000002),23,-7,13,yes,x,5,x,0.5312588999995569,1,75,test1,2,0.5319211999994877,-52.0
12,lyt,f,21,r,2,(172.20000000000002, 0.0),21,-7,13,yes,x,5,x,0.5276882999996815,1,76,test1,2,0.5280408999997235,-52.0
12,lyt,f,21,r,2,(121.76378772032349, 121.76378772032349),22,-5,12,yes,x,5,x,1.00265330000002,1,77,test1,2,1.0030174999992596,-50.0
12,lyt,f,21,r,2,(121.76378772032346, -121.76378772032352),28,25,4,no,m,6,m,0.5691217000003235,1,78,test1,2,0.5694057999999131,-50.0
12,lyt,f,21,r,2,(121.76378772032349, 121.76378772032349),22,5,2,yes,x,5,x,0.6002355999999054,1,79,test1,2,0.6003514000003634,-40.0
12,lyt,f,21,r,2,(-121.76378772032352, -121.76378772032348),26,5,2,yes,x,5,x,0.9350672999999006,1,80,test1,2,0.9357432999995581,-40.0
12,lyt,f,21,r,2,(1.0544208940658713e-14, 172.20000000000002),23,3,1,no,m,6,m,0.6337563999995837,1,81,test1,2,0.6339852999999493,-40.0
12,lyt,f,21,r,2,(-121.76378772032348, 121.76378772032349),24,25,4,yes,x,5,x,0.3888059999999314,1,82,test1,2,0.3889345999996294,-20.0
12,lyt,f,21,r,2,(-3.163262682197613e-14, -172.20000000000002),27,-3,11,no,m,6,m,1.091392100000121,1,83,test1,2,1.0916699999997945,-20.0
12,lyt,f,21,r,2,(172.20000000000002, 0.0),21,5,2,yes,x,5,m,0.7404319999996005,0,84,test1,2,0.7406652999998187,-40.0
12,lyt,f,21,r,2,(1.0544208940658713e-14, 172.20000000000002),23,-25,14,yes,x,5,x,0.4350061999994068,1,85,test1,2,0.435409200000322,-70.0
12,lyt,f,21,r,2,(-121.76378772032352, -121.76378772032348),26,25,4,yes,x,5,x,0.6138543999995818,1,86,test1,2,0.6141266999993604,-20.0
12,lyt,f,21,r,2,(1.0544208940658713e-14, 172.20000000000002),23,3,1,yes,x,5,x,0.8195949999999357,1,87,test1,2,0.8196937000002436,-42.0
12,lyt,f,21,r,2,(172.20000000000002, 0.0),21,7,3,yes,x,5,x,0.5541035999995074,1,88,test1,2,0.5542024000005767,-38.0
12,lyt,f,21,r,2,(-172.20000000000002, 2.1088417881317425e-14),25,-7,13,yes,x,5,x,0.4446066000000428,1,89,test1,2,0.444703500000287,-52.0
12,lyt,f,21,r,2,(1.0544208940658713e-14, 172.20000000000002),23,7,3,yes,x,5,x,0.4166051000001971,1,90,test1,2,0.4167691000002378,-38.0
12,lyt,f,21,r,2,(172.20000000000002, 0.0),21,-3,11,yes,x,5,m,0.6738030999995317,0,91,test1,2,0.6739328999992722,-48.0
12,lyt,f,21,r,2,(-121.76378772032352, -121.76378772032348),26,-3,11,yes,x,5,x,0.7598729999999705,1,92,test1,2,0.760099000000082,-48.0
12,lyt,f,21,r,2,(121.76378772032349, 121.76378772032349),22,-25,14,no,m,6,m,0.5334087000001091,1,93,test1,2,0.5335260000001654,-48.0
12,lyt,f,21,r,2,(-121.76378772032352, -121.76378772032348),26,5,2,yes,x,5,x,0.4736281000004965,1,94,test1,2,0.47451789999922767,-40.0
12,lyt,f,21,r,2,(121.76378772032346, -121.76378772032352),28,-25,14,no,m,6,m,0.6361068000005616,1,95,test1,2,0.6365027000001646,-40.0
12,lyt,f,21,r,2,(-172.20000000000002, 2.1088417881317425e-14),25,5,2,yes,x,5,x,0.4575166000004174,1,96,test1,2,0.4576489999999467,-40.0
12,lyt,f,21,r,2,(-121.76378772032348, 121.76378772032349),24,7,3,yes,x,5,x,0.47506650000013906,1,1,test2,2,0.4753718000001754,-38.0
12,lyt,f,21,r,2,(121.76378772032346, -121.76378772032352),28,-25,14,yes,x,5,x,0.4322118000000046,1,2,test2,2,0.43238359999941167,-70.0
12,lyt,f,21,r,2,(-172.20000000000002, 2.1088417881317425e-14),25,-5,12,yes,x,5,x,0.4397812999995949,1,3,test2,2,0.4399305999995704,-50.0
12,lyt,f,21,r,2,(121.76378772032346, -121.76378772032352),28,5,2,yes,x,5,x,0.5614710999998351,1,4,test2,2,0.5617425000000367,-40.0
12,lyt,f,21,r,2,(-121.76378772032352, -121.76378772032348),26,7,3,yes,x,5,x,0.37545289999980014,1,5,test2,2,0.37557749999996304,-38.0
12,lyt,f,21,r,2,(1.0544208940658713e-14, 172.20000000000002),23,-25,14,yes,x,5,x,0.3807544000001144,1,6,test2,2,0.3809006000001318,-70.0
12,lyt,f,21,r,2,(-121.76378772032348, 121.76378772032349),24,5,2,no,m,6,m,0.6657222999992882,1,7,test2,2,0.6658651999996437,-70.0
12,lyt,f,21,r,2,(1.0544208940658713e-14, 172.20000000000002),23,-5,12,yes,x,5,x,0.6195775999995021,1,8,test2,2,0.6198667999997269,-50.0
12,lyt,f,21,r,2,(-121.76378772032348, 121.76378772032349),24,-7,13,yes,x,5,x,0.4316479999997682,1,9,test2,2,0.43174850000013976,-52.0
12,lyt,f,21,r,2,(-121.76378772032348, 121.76378772032349),24,25,4,no,m,6,m,0.7782957999997961,1,10,test2,2,0.778536300000269,-52.0
12,lyt,f,21,r,2,(-121.76378772032352, -121.76378772032348),26,-25,14,yes,x,5,x,0.4164099999998143,1,11,test2,2,0.41659859999981563,-70.0
12,lyt,f,21,r,2,(172.20000000000002, 0.0),21,-5,12,no,m,6,m,0.9186569000003146,1,12,test2,2,0.9188898000002155,-70.0
12,lyt,f,21,r,2,(-121.76378772032352, -121.76378772032348),26,7,3,yes,x,5,x,0.43898879999960627,1,13,test2,2,0.4391819000002215,-38.0
12,lyt,f,21,r,2,(-121.76378772032352, -121.76378772032348),26,3,1,yes,x,5,m,0.521227799999906,0,14,test2,2,0.5213313999993261,-42.0
12,lyt,f,21,r,2,(-172.20000000000002, 2.1088417881317425e-14),25,25,4,no,m,6,m,0.6701591999999437,1,15,test2,2,0.6704628999996203,-42.0
12,lyt,f,21,r,2,(-121.76378772032348, 121.76378772032349),24,-7,13,no,m,6,m,0.6419542000003275,1,16,test2,2,0.6423546000005445,-42.0
12,lyt,f,21,r,2,(1.0544208940658713e-14, 172.20000000000002),23,25,4,yes,x,5,x,0.6261299999996481,1,17,test2,2,0.6264811999999438,-20.0
12,lyt,f,21,r,2,(-172.20000000000002, 2.1088417881317425e-14),25,-25,14,no,m,6,m,0.9631730000000971,1,18,test2,2,0.9634704000000056,-20.0
12,lyt,f,21,r,2,(172.20000000000002, 0.0),21,5,2,yes,x,5,x,0.586404699999548,1,19,test2,2,0.5870033000001058,-40.0
12,lyt,f,21,r,2,(172.20000000000002, 0.0),21,-5,12,yes,x,5,x,0.960055999999895,1,20,test2,2,0.9603057999993325,-50.0
12,lyt,f,21,r,2,(1.0544208940658713e-14, 172.20000000000002),23,5,2,no,m,6,m,0.9126404999997249,1,21,test2,2,0.9128343000002133,-50.0
12,lyt,f,21,r,2,(1.0544208940658713e-14, 172.20000000000002),23,7,3,yes,x,5,x,0.4466712000003099,1,22,test2,2,0.44678449999992154,-38.0
12,lyt,f,21,r,2,(121.76378772032349, 121.76378772032349),22,25,4,yes,x,5,x,0.4084700999992492,1,23,test2,2,0.40913650000038615,-20.0
12,lyt,f,21,r,2,(172.20000000000002, 0.0),21,-25,14,yes,x,5,x,0.404557300000306,1,24,test2,2,0.4049977000004219,-70.0
12,lyt,f,21,r,2,(-172.20000000000002, 2.1088417881317425e-14),25,5,2,yes,x,5,x,0.9364811999994345,1,25,test2,2,0.937224199999946,-40.0
12,lyt,f,21,r,2,(121.76378772032349, 121.76378772032349),22,-7,13,yes,x,5,x,0.8596484999998211,1,26,test2,2,0.8599553000003652,-52.0
12,lyt,f,21,r,2,(-121.76378772032348, 121.76378772032349),24,-25,14,yes,x,5,x,0.41716339999948104,1,27,test2,2,0.41744959999959974,-70.0
12,lyt,f,21,r,2,(1.0544208940658713e-14, 172.20000000000002),23,-5,12,yes,x,5,x,0.4755384000000049,1,28,test2,2,0.47564369999963674,-50.0
12,lyt,f,21,r,2,(121.76378772032346, -121.76378772032352),28,-7,13,no,m,6,m,0.6380336000001989,1,29,test2,2,0.6381687000002785,-50.0
12,lyt,f,21,r,2,(1.0544208940658713e-14, 172.20000000000002),23,-3,11,yes,x,5,x,0.7440311000000293,1,30,test2,2,0.7451485000001412,-48.0
12,lyt,f,21,r,2,(-172.20000000000002, 2.1088417881317425e-14),25,-3,11,yes,x,5,x,1.0638920999999755,1,31,test2,2,1.0640443000002051,-48.0
12,lyt,f,21,r,2,(-3.163262682197613e-14, -172.20000000000002),27,25,4,no,m,6,x,0.885963200000333,0,32,test2,2,0.8861219000000347,-48.0
12,lyt,f,21,r,2,(172.20000000000002, 0.0),21,-3,11,no,m,6,m,0.8223996000006082,1,33,test2,2,0.8227077000001373,-48.0
12,lyt,f,21,r,2,(-172.20000000000002, 2.1088417881317425e-14),25,-25,14,yes,x,5,x,0.4323119000000588,1,34,test2,2,0.4324740000001839,-70.0
12,lyt,f,21,r,2,(-121.76378772032352, -121.76378772032348),26,25,4,no,m,6,x,1.3635833999996976,0,35,test2,2,1.363712100000157,-70.0
12,lyt,f,21,r,2,(121.76378772032346, -121.76378772032352),28,-3,11,yes,x,5,m,0.670566300000246,0,36,test2,2,0.6708340000004682,-48.0
12,lyt,f,21,r,2,(121.76378772032349, 121.76378772032349),22,3,1,yes,x,5,x,1.071330499999931,1,37,test2,2,1.0714421000002403,-42.0
12,lyt,f,21,r,2,(1.0544208940658713e-14, 172.20000000000002),23,5,2,yes,x,5,x,0.49487349999981234,1,38,test2,2,0.4954675999997562,-40.0
12,lyt,f,21,r,2,(-172.20000000000002, 2.1088417881317425e-14),25,3,1,no,m,6,m,0.763043099999777,1,39,test2,2,0.7633421000000453,-40.0
12,lyt,f,21,r,2,(1.0544208940658713e-14, 172.20000000000002),23,-25,14,no,m,6,x,1.1822613000003912,0,40,test2,2,1.1825700999997935,-40.0
12,lyt,f,21,r,2,(-121.76378772032352, -121.76378772032348),26,-7,13,yes,x,5,x,0.4329629000003479,1,41,test2,2,0.43319920000067214,-52.0
12,lyt,f,21,r,2,(-3.163262682197613e-14, -172.20000000000002),27,-7,13,yes,x,5,x,0.537245299999995,1,42,test2,2,0.537640200000169,-52.0
12,lyt,f,21,r,2,(-121.76378772032352, -121.76378772032348),26,25,4,yes,x,5,x,0.34495569999944564,1,43,test2,2,0.3451224000000366,-20.0
12,lyt,f,21,r,2,(1.0544208940658713e-14, 172.20000000000002),23,25,4,yes,x,5,x,0.4079559000001609,1,44,test2,2,0.4082146000000648,-20.0
12,lyt,f,21,r,2,(-3.163262682197613e-14, -172.20000000000002),27,-7,13,no,m,6,m,1.1262047000000166,1,45,test2,2,1.126580300000569,-20.0
12,lyt,f,21,r,2,(172.20000000000002, 0.0),21,-7,13,no,m,6,x,0.5815528000002814,0,46,test2,2,0.5818022999992536,-20.0
12,lyt,f,21,r,2,(121.76378772032349, 121.76378772032349),22,3,1,yes,x,5,x,0.989878200000021,1,47,test2,2,0.9902563999994527,-42.0
12,lyt,f,21,r,2,(-121.76378772032352, -121.76378772032348),26,3,1,yes,x,5,x,0.9878724999998667,1,48,test2,2,0.9881178000005093,-42.0
12,lyt,f,21,r,2,(-121.76378772032352, -121.76378772032348),26,-5,12,yes,x,5,x,0.4403886000000057,1,49,test2,2,0.4405514000000039,-50.0
12,lyt,f,21,r,2,(-121.76378772032352, -121.76378772032348),26,5,2,no,m,6,m,1.3174848000007842,1,50,test2,2,1.317613000000165,-50.0
12,lyt,f,21,r,2,(172.20000000000002, 0.0),21,3,1,yes,x,5,x,0.606429799999205,1,51,test2,2,0.6070642000004227,-42.0
12,lyt,f,21,r,2,(-3.163262682197613e-14, -172.20000000000002),27,7,3,yes,x,5,x,0.46543410000049334,1,52,test2,2,0.4656318999996074,-38.0
12,lyt,f,21,r,2,(121.76378772032349, 121.76378772032349),22,5,2,yes,x,5,x,0.6235858999998527,1,53,test2,2,0.6238382999999885,-40.0
12,lyt,f,21,r,2,(121.76378772032346, -121.76378772032352),28,-25,14,yes,x,5,x,0.5499931000003926,1,54,test2,2,0.5502215999995315,-70.0
12,lyt,f,21,r,2,(-121.76378772032348, 121.76378772032349),24,-3,11,no,m,6,m,0.8973172999994858,1,55,test2,2,0.8975172000000384,-70.0
12,lyt,f,21,r,2,(-172.20000000000002, 2.1088417881317425e-14),25,5,2,no,m,6,m,0.8709589000000051,1,56,test2,2,0.8714344999998502,-70.0
12,lyt,f,21,r,2,(-172.20000000000002, 2.1088417881317425e-14),25,-5,12,yes,x,5,x,0.5583861000004617,1,57,test2,2,0.5585480999998254,-50.0
12,lyt,f,21,r,2,(-3.163262682197613e-14, -172.20000000000002),27,25,4,yes,x,5,x,0.4338126000002376,1,58,test2,2,0.43419949999952223,-20.0
12,lyt,f,21,r,2,(121.76378772032349, 121.76378772032349),22,-25,14,yes,x,5,x,0.4734990999995716,1,59,test2,2,0.47359830000004877,-70.0
12,lyt,f,21,r,2,(-121.76378772032352, -121.76378772032348),26,-7,13,yes,x,5,x,0.5396964999999909,1,60,test2,2,0.5398537000000942,-52.0
12,lyt,f,21,r,2,(-121.76378772032352, -121.76378772032348),26,-25,14,no,m,6,m,0.7480083000000377,1,61,test2,2,0.7482020000006742,-52.0
12,lyt,f,21,r,2,(121.76378772032346, -121.76378772032352),28,5,2,no,m,6,m,0.6989074000002802,1,62,test2,2,0.6992391000003408,-52.0
12,lyt,f,21,r,2,(121.76378772032349, 121.76378772032349),22,-3,11,no,m,6,m,0.5963001000000077,1,63,test2,2,0.5965609000004406,-52.0
12,lyt,f,21,r,2,(-3.163262682197613e-14, -172.20000000000002),27,7,3,no,m,6,m,1.146839999999429,1,64,test2,2,1.147071500000493,-52.0
12,lyt,f,21,r,2,(-121.76378772032348, 121.76378772032349),24,-5,12,no,m,6,m,0.9893691999996008,1,65,test2,2,0.989644700000099,-52.0
12,lyt,f,21,r,2,(-121.76378772032352, -121.76378772032348),26,-5,12,no,m,6,m,0.8616405999991912,1,66,test2,2,0.8617682999993121,-52.0
12,lyt,f,21,r,2,(-121.76378772032348, 121.76378772032349),24,-3,11,yes,x,5,x,0.8644412000003285,1,67,test2,2,0.8646810999998706,-48.0
12,lyt,f,21,r,2,(-121.76378772032348, 121.76378772032349),24,3,1,yes,x,5,x,0.7597100000002683,1,68,test2,2,0.760015800000474,-42.0
12,lyt,f,21,r,2,(121.76378772032349, 121.76378772032349),22,-5,12,no,m,6,m,0.63505350000014,1,69,test2,2,0.6352537000002485,-42.0
12,lyt,f,21,r,2,(121.76378772032346, -121.76378772032352),28,7,3,no,m,6,m,0.9292395000002216,1,70,test2,2,0.929366299999856,-42.0
12,lyt,f,21,r,2,(-3.163262682197613e-14, -172.20000000000002),27,-3,11,yes,x,5,x,0.44769219999943743,1,71,test2,2,0.4479130999998233,-48.0
12,lyt,f,21,r,2,(-121.76378772032352, -121.76378772032348),26,3,1,no,m,6,m,1.2592892999991818,1,72,test2,2,1.2593921000006958,-48.0
12,lyt,f,21,r,2,(121.76378772032349, 121.76378772032349),22,-5,12,yes,x,5,x,0.49692309999954887,1,73,test2,2,0.49702630000047066,-50.0
12,lyt,f,21,r,2,(-172.20000000000002, 2.1088417881317425e-14),25,25,4,yes,x,5,x,0.3671178000004147,1,74,test2,2,0.36732409999967786,-20.0
12,lyt,f,21,r,2,(1.0544208940658713e-14, 172.20000000000002),23,-3,11,no,m,6,m,0.602611700000125,1,75,test2,2,0.6027358999999706,-20.0
12,lyt,f,21,r,2,(-3.163262682197613e-14, -172.20000000000002),27,3,1,no,m,6,m,0.6800039000008837,1,76,test2,2,0.6802417999997488,-20.0
12,lyt,f,21,r,2,(121.76378772032346, -121.76378772032352),28,-3,11,no,m,6,m,1.164929900000061,1,77,test2,2,1.1655049000000872,-20.0
12,lyt,f,21,r,2,(121.76378772032349, 121.76378772032349),22,-7,13,no,m,6,m,0.7603319999998348,1,78,test2,2,0.7604369999999108,-20.0
12,lyt,f,21,r,2,(121.76378772032346, -121.76378772032352),28,7,3,yes,x,5,x,0.4437041000001045,1,79,test2,2,0.44380590000037046,-38.0
12,lyt,f,21,r,2,(-172.20000000000002, 2.1088417881317425e-14),25,25,4,yes,x,5,x,0.4469981000002008,1,80,test2,2,0.44710009999926115,-20.0
12,lyt,f,21,r,2,(-121.76378772032352, -121.76378772032348),26,-3,11,yes,x,5,x,0.8979477000002589,1,81,test2,2,0.8982936000002155,-48.0
12,lyt,f,21,r,2,(-172.20000000000002, 2.1088417881317425e-14),25,3,1,yes,x,5,x,0.7682051000001593,1,82,test2,2,0.7683047999998962,-42.0
12,lyt,f,21,r,2,(1.0544208940658713e-14, 172.20000000000002),23,-7,13,yes,x,5,x,0.6706334000000425,1,83,test2,2,0.6710081999999602,-52.0
12,lyt,f,21,r,2,(121.76378772032346, -121.76378772032352),28,25,4,yes,x,5,x,0.5415012000003117,1,84,test2,2,0.5416191000003892,-20.0
12,lyt,f,21,r,2,(-172.20000000000002, 2.1088417881317425e-14),25,-25,14,yes,x,5,x,0.5230274000005011,1,85,test2,2,0.5232561000002534,-70.0
12,lyt,f,21,r,2,(121.76378772032349, 121.76378772032349),22,7,3,no,m,6,m,1.029938100000436,1,86,test2,2,1.0301001999996515,-70.0
12,lyt,f,21,r,2,(121.76378772032349, 121.76378772032349),22,7,3,yes,x,5,x,0.5680418000001737,1,87,test2,2,0.5682624000000942,-38.0
12,lyt,f,21,r,2,(121.76378772032349, 121.76378772032349),22,-3,11,yes,x,5,m,1.1237608999999793,0,88,test2,2,1.1239826999999423,-48.0
12,lyt,f,21,r,2,(121.76378772032346, -121.76378772032352),28,-5,12,no,m,6,m,0.7335743999992701,1,89,test2,2,0.733739099999184,-48.0
12,lyt,f,21,r,2,(-3.163262682197613e-14, -172.20000000000002),27,-25,14,yes,x,5,x,0.8603542000000743,1,90,test2,2,0.8606135999998514,-70.0
12,lyt,f,21,r,2,(-3.163262682197613e-14, -172.20000000000002),27,-7,13,yes,x,5,x,0.5412079999996422,1,91,test2,2,0.5418966999995973,-52.0
12,lyt,f,21,r,2,(172.20000000000002, 0.0),21,25,4,yes,x,5,x,0.47998349999943457,1,92,test2,2,0.48021020000032877,-20.0
12,lyt,f,21,r,2,(172.20000000000002, 0.0),21,25,4,no,m,6,m,0.8565691000003426,1,93,test2,2,0.8572660999998334,-20.0
12,lyt,f,21,r,2,(-121.76378772032348, 121.76378772032349),24,7,3,no,m,6,m,0.8802953000003981,1,94,test2,2,0.8805002999997669,-20.0
12,lyt,f,21,r,2,(172.20000000000002, 0.0),21,7,3,yes,x,5,x,0.48088209999968967,1,95,test2,2,0.4810448999996879,-38.0
12,lyt,f,21,r,2,(172.20000000000002, 0.0),21,-25,14,yes,x,5,x,0.4951396000005843,1,96,test2,2,0.4952769999999873,-70.0
12,lyt,f,21,r,2,(-3.163262682197613e-14, -172.20000000000002),27,3,1,yes,x,5,x,0.8165305000002263,1,1,test1,3,0.8167643999995562,-42.0
12,lyt,f,21,r,2,(1.0544208940658713e-14, 172.20000000000002),23,-3,11,yes,x,5,x,0.5638259000006656,1,2,test1,3,0.5642114000002039,-48.0
12,lyt,f,21,r,2,(1.0544208940658713e-14, 172.20000000000002),23,5,2,yes,x,5,x,0.4189969999997629,1,3,test1,3,0.41916990000027,-40.0
12,lyt,f,21,r,2,(-172.20000000000002, 2.1088417881317425e-14),25,3,1,yes,x,5,m,1.1293434000008347,0,4,test1,3,1.1295110000000932,-42.0
12,lyt,f,21,r,2,(172.20000000000002, 0.0),21,5,2,no,m,6,x,0.9166009000000486,0,5,test1,3,0.9171687000007296,-42.0
12,lyt,f,21,r,2,(121.76378772032346, -121.76378772032352),28,-3,11,yes,x,5,m,0.5794689000003928,0,6,test1,3,0.5796147000000929,-48.0
12,lyt,f,21,r,2,(-121.76378772032352, -121.76378772032348),26,-7,13,no,m,6,m,1.2995931999994355,1,7,test1,3,1.299899299999197,-48.0
12,lyt,f,21,r,2,(-121.76378772032348, 121.76378772032349),24,-5,12,yes,x,5,x,0.4654355000002397,1,8,test1,3,0.46572960000048624,-50.0
12,lyt,f,21,r,2,(-172.20000000000002, 2.1088417881317425e-14),25,-7,13,yes,x,5,x,0.5148637000002054,1,9,test1,3,0.5149598000007245,-52.0
12,lyt,f,21,r,2,(1.0544208940658713e-14, 172.20000000000002),23,3,1,yes,x,5,x,0.8564843000003748,1,10,test1,3,0.8565834999999424,-42.0
12,lyt,f,21,r,2,(172.20000000000002, 0.0),21,-3,11,yes,x,5,x,0.8038608999995631,1,11,test1,3,0.8039622999995117,-48.0
12,lyt,f,21,r,2,(-121.76378772032352, -121.76378772032348),26,-5,12,yes,x,5,x,0.8178686999999627,1,12,test1,3,0.8181583999994473,-50.0
12,lyt,f,21,r,2,(121.76378772032349, 121.76378772032349),22,-25,14,yes,x,5,x,0.4833748999999443,1,13,test1,3,0.4836603000003379,-70.0
12,lyt,f,21,r,2,(-3.163262682197613e-14, -172.20000000000002),27,-25,14,yes,x,5,m,0.8554350999993403,0,14,test1,3,0.8555622000003495,-70.0
12,lyt,f,21,r,2,(121.76378772032346, -121.76378772032352),28,-5,12,yes,x,5,x,0.8384646000004068,1,15,test1,3,0.8386108000004242,-50.0
12,lyt,f,21,r,2,(-121.76378772032348, 121.76378772032349),24,-7,13,yes,x,5,x,0.4172701000006782,1,16,test1,3,0.4176690000003873,-52.0
12,lyt,f,21,r,2,(1.0544208940658713e-14, 172.20000000000002),23,-7,13,no,m,6,m,0.6035683999998582,1,17,test1,3,0.6042588000000251,-52.0
12,lyt,f,21,r,2,(-3.163262682197613e-14, -172.20000000000002),27,-5,12,yes,x,5,x,0.5653823000002376,1,18,test1,3,0.5654865000005884,-50.0
12,lyt,f,21,r,2,(1.0544208940658713e-14, 172.20000000000002),23,25,4,no,m,6,m,0.8297124000000622,1,19,test1,3,0.8299514999998792,-50.0
12,lyt,f,21,r,2,(-121.76378772032348, 121.76378772032349),24,3,1,yes,x,5,x,0.7323176999998395,1,20,test1,3,0.7324423999998544,-42.0
12,lyt,f,21,r,2,(-3.163262682197613e-14, -172.20000000000002),27,7,3,yes,x,5,x,0.5872651999998197,1,21,test1,3,0.5878672999997434,-38.0
12,lyt,f,21,r,2,(-3.163262682197613e-14, -172.20000000000002),27,5,2,no,m,6,m,0.7519970000003013,1,22,test1,3,0.7522790999992139,-38.0
12,lyt,f,21,r,2,(-121.76378772032352, -121.76378772032348),26,-3,11,no,m,6,m,0.781352799999695,1,23,test1,3,0.781454400000257,-38.0
12,lyt,f,21,r,2,(-121.76378772032348, 121.76378772032349),24,-3,11,yes,x,5,x,0.614578600000641,1,24,test1,3,0.6150186000004396,-48.0
12,lyt,f,21,r,2,(121.76378772032349, 121.76378772032349),22,-7,13,yes,x,5,x,0.5501334000000497,1,25,test1,3,0.5505656999994244,-52.0
12,lyt,f,21,r,2,(121.76378772032349, 121.76378772032349),22,3,1,no,m,6,m,0.7090699000000313,1,26,test1,3,0.7092296999999235,-52.0
12,lyt,f,21,r,2,(-172.20000000000002, 2.1088417881317425e-14),25,7,3,no,m,6,m,0.7428311000003305,1,27,test1,3,0.7429445000007036,-52.0
12,lyt,f,21,r,2,(-121.76378772032348, 121.76378772032349),24,7,3,yes,x,5,x,0.4564215999998851,1,28,test1,3,0.45666240000082325,-38.0
12,lyt,f,21,r,2,(121.76378772032349, 121.76378772032349),22,5,2,no,m,6,m,0.6486552000005759,1,29,test1,3,0.6487535999995089,-38.0
12,lyt,f,21,r,2,(-3.163262682197613e-14, -172.20000000000002),27,25,4,yes,x,5,x,0.40823659999932715,1,30,test1,3,0.40836789999957546,-20.0
12,lyt,f,21,r,2,(-172.20000000000002, 2.1088417881317425e-14),25,-5,12,no,m,6,m,0.6500181999999768,1,31,test1,3,0.6503298999996332,-20.0
12,lyt,f,21,r,2,(-121.76378772032348, 121.76378772032349),24,-5,12,yes,x,5,x,0.4191996999998082,1,32,test1,3,0.41959379999934754,-50.0
12,lyt,f,21,r,2,(1.0544208940658713e-14, 172.20000000000002),23,7,3,no,m,6,m,0.5725922999999966,1,33,test1,3,0.5727248000002874,-50.0
12,lyt,f,21,r,2,(121.76378772032346, -121.76378772032352),28,-7,13,yes,x,5,x,0.4334754999999859,1,34,test1,3,0.433752199999617,-52.0
12,lyt,f,21,r,2,(-172.20000000000002, 2.1088417881317425e-14),25,-3,11,no,m,6,m,0.6541602000006606,1,35,test1,3,0.6543840000003911,-52.0
12,lyt,f,21,r,2,(-172.20000000000002, 2.1088417881317425e-14),25,-3,11,yes,x,5,m,0.9452861999998277,0,36,test1,3,0.9456130999997185,-48.0
12,lyt,f,21,r,2,(172.20000000000002, 0.0),21,-25,14,no,m,6,m,0.9256166000004669,1,37,test1,3,0.925776400000359,-48.0
12,lyt,f,21,r,2,(121.76378772032346, -121.76378772032352),28,3,1,no,m,6,m,0.8986335999998118,1,38,test1,3,0.898791299999175,-48.0
12,lyt,f,21,r,2,(-172.20000000000002, 2.1088417881317425e-14),25,7,3,yes,x,5,x,0.523038300000735,1,39,test1,3,0.5232489999998506,-38.0
12,lyt,f,21,r,2,(121.76378772032346, -121.76378772032352),28,7,3,yes,x,5,m,0.5305664999996225,0,40,test1,3,0.5306635000006281,-38.0
12,lyt,f,21,r,2,(121.76378772032346, -121.76378772032352),28,-5,12,yes,x,5,x,0.6385302999997293,1,41,test1,3,0.6391888999996809,-50.0
12,lyt,f,21,r,2,(172.20000000000002, 0.0),21,25,4,yes,x,5,x,0.47928219999994326,1,42,test1,3,0.47951999999986583,-20.0
12,lyt,f,21,r,2,(-121.76378772032348, 121.76378772032349),24,-25,14,no,m,6,x,0.6764635999998063,0,43,test1,3,0.6767347999993945,-20.0
12,lyt,f,21,r,2,(121.76378772032349, 121.76378772032349),22,25,4,yes,x,5,x,0.38935810000020865,1,44,test1,3,0.38946239999950194,-20.0
12,lyt,f,21,r,2,(-121.76378772032348, 121.76378772032349),24,3,1,no,m,6,x,1.0405350000000908,0,45,test1,3,1.040672799999811,-20.0
12,lyt,f,21,r,2,(121.76378772032349, 121.76378772032349),22,-3,11,yes,x,5,x,0.5106750999993892,1,46,test1,3,0.5107895000001008,-48.0
12,lyt,f,21,r,2,(172.20000000000002, 0.0),21,3,1,no,m,6,m,0.9780036000001928,1,47,test1,3,0.9781621000001905,-48.0
12,lyt,f,21,r,2,(-172.20000000000002, 2.1088417881317425e-14),25,-7,13,no,m,6,m,1.0185542999997779,1,48,test1,3,1.0186785999994754,-48.0
12,lyt,f,21,r,2,(-3.163262682197613e-14, -172.20000000000002),27,5,2,yes,x,5,x,0.4631132999993497,1,49,test1,3,0.4632752999996228,-40.0
12,lyt,f,21,r,2,(-121.76378772032352, -121.76378772032348),26,-25,14,yes,x,5,x,0.42519909999919037,1,50,test1,3,0.4254037000000608,-70.0
12,lyt,f,21,r,2,(-3.163262682197613e-14, -172.20000000000002),27,-25,14,no,m,6,m,0.6336744000000181,1,51,test1,3,0.6337883999995029,-70.0
12,lyt,f,21,r,2,(-3.163262682197613e-14, -172.20000000000002),27,-5,12,yes,x,5,x,0.4577853000000687,1,52,test1,3,0.457904700000654,-50.0
12,lyt,f,21,r,2,(121.76378772032346, -121.76378772032352),28,5,2,yes,x,5,x,0.8223640999995041,1,53,test1,3,0.8230437000001984,-40.0
12,lyt,f,21,r,2,(-121.76378772032348, 121.76378772032349),24,25,4,yes,x,5,x,0.4419722000002366,1,54,test1,3,0.4423450000003868,-20.0
12,lyt,f,21,r,2,(-3.163262682197613e-14, -172.20000000000002),27,-3,11,yes,x,5,x,1.2214739999999438,1,55,test1,3,1.2215743999995539,-48.0
12,lyt,f,21,r,2,(121.76378772032346, -121.76378772032352),28,3,1,yes,x,5,m,0.8767713999995976,0,56,test1,3,0.8770760999996128,-42.0
12,lyt,f,21,r,2,(121.76378772032349, 121.76378772032349),22,7,3,yes,x,5,x,0.5315196999999898,1,57,test1,3,0.5317501999998058,-38.0
12,lyt,f,21,r,2,(121.76378772032346, -121.76378772032352),28,3,1,yes,x,5,m,0.762203799999952,0,58,test1,3,0.7623410999995031,-42.0
12,lyt,f,21,r,2,(121.76378772032346, -121.76378772032352),28,-7,13,yes,x,5,x,0.5562916999997469,1,59,test1,3,0.5564282000004823,-52.0
12,lyt,f,21,r,2,(172.20000000000002, 0.0),21,7,3,no,m,6,m,0.7693939999999202,1,60,test1,3,0.7695684999998775,-52.0
12,lyt,f,21,r,2,(121.76378772032346, -121.76378772032352),28,25,4,yes,x,5,x,0.4478777000003902,1,61,test1,3,0.448167999999896,-20.0
12,lyt,f,21,r,2,(-121.76378772032348, 121.76378772032349),24,5,2,yes,x,5,x,0.8077617999997528,1,62,test1,3,0.8082015999998475,-40.0
12,lyt,f,21,r,2,(-3.163262682197613e-14, -172.20000000000002),27,3,1,yes,x,5,m,0.5813438999994105,0,63,test1,3,0.5814546999999948,-42.0
12,lyt,f,21,r,2,(-3.163262682197613e-14, -172.20000000000002),27,-5,12,no,m,6,m,0.9641621999999188,1,64,test1,3,0.9643815999997969,-42.0
12,lyt,f,21,r,2,(-172.20000000000002, 2.1088417881317425e-14),25,7,3,yes,x,5,x,0.46462350000001607,1,65,test1,3,0.46507500000006985,-38.0
12,lyt,f,21,r,2,(121.76378772032349, 121.76378772032349),22,25,4,no,m,6,m,0.7866243999997096,1,66,test1,3,0.7869128000002092,-38.0
12,lyt,f,21,r,2,(172.20000000000002, 0.0),21,3,1,yes,x,5,x,0.6809088999998494,1,67,test1,3,0.6810062999993534,-42.0
12,lyt,f,21,r,2,(172.20000000000002, 0.0),21,-5,12,yes,x,5,x,0.6904367999995884,1,68,test1,3,0.6905637999998362,-50.0
12,lyt,f,21,r,2,(-121.76378772032348, 121.76378772032349),24,-25,14,yes,x,5,x,0.5075039000003017,1,69,test1,3,0.5076032999995732,-70.0
12,lyt,f,21,r,2,(-121.76378772032348, 121.76378772032349),24,5,2,yes,x,5,x,0.5233370999994804,1,70,test1,3,0.5235001000000921,-40.0
12,lyt,f,21,r,2,(172.20000000000002, 0.0),21,-7,13,yes,x,5,x,0.45146699999986595,1,71,test1,3,0.4516136000002007,-52.0
12,lyt,f,21,r,2,(1.0544208940658713e-14, 172.20000000000002),23,-5,12,no,m,6,m,1.078546799999458,1,72,test1,3,1.078784899999846,-52.0
12,lyt,f,21,r,2,(-3.163262682197613e-14, -172.20000000000002),27,5,2,yes,x,5,x,0.5507782999993651,1,73,test1,3,0.5514244999994844,-40.0
12,lyt,f,21,r,2,(-121.76378772032352, -121.76378772032348),26,7,3,no,m,6,m,0.6711426000001666,1,74,test1,3,0.6713048000001436,-40.0
12,lyt,f,21,r,2,(1.0544208940658713e-14, 172.20000000000002),23,-7,13,yes,x,5,x,0.5324987999993027,1,75,test1,3,0.5326437000003352,-52.0
12,lyt,f,21,r,2,(172.20000000000002, 0.0),21,-7,13,yes,x,5,x,0.5449312999999165,1,76,test1,3,0.545030900000711,-52.0
12,lyt,f,21,r,2,(121.76378772032349, 121.76378772032349),22,-5,12,yes,x,5,x,0.511137399999825,1,77,test1,3,0.5113747000004878,-50.0
12,lyt,f,21,r,2,(121.76378772032346, -121.76378772032352),28,25,4,no,m,6,m,0.6406059999999343,1,78,test1,3,0.6408882000005178,-50.0
12,lyt,f,21,r,2,(121.76378772032349, 121.76378772032349),22,5,2,yes,x,5,x,0.5388512999998056,1,79,test1,3,0.5389553000004526,-40.0
12,lyt,f,21,r,2,(-121.76378772032352, -121.76378772032348),26,5,2,yes,x,5,x,0.5442712000003667,1,80,test1,3,0.544545200000357,-40.0
12,lyt,f,21,r,2,(1.0544208940658713e-14, 172.20000000000002),23,3,1,no,m,6,m,0.970527000000402,1,81,test1,3,0.9707172000007631,-40.0
12,lyt,f,21,r,2,(-121.76378772032348, 121.76378772032349),24,25,4,yes,x,5,x,0.35413819999939733,1,82,test1,3,0.35435490000054415,-20.0
12,lyt,f,21,r,2,(-3.163262682197613e-14, -172.20000000000002),27,-3,11,no,m,6,m,0.6695841000000655,1,83,test1,3,0.6698571999995693,-20.0
12,lyt,f,21,r,2,(172.20000000000002, 0.0),21,5,2,yes,x,5,x,0.505363700000089,1,84,test1,3,0.5055278999998336,-40.0
12,lyt,f,21,r,2,(1.0544208940658713e-14, 172.20000000000002),23,-25,14,yes,x,5,x,0.6678447000003871,1,85,test1,3,0.6679794000001493,-70.0
12,lyt,f,21,r,2,(-121.76378772032352, -121.76378772032348),26,25,4,yes,x,5,x,0.4012868999998318,1,86,test1,3,0.401453099999344,-20.0
12,lyt,f,21,r,2,(1.0544208940658713e-14, 172.20000000000002),23,3,1,yes,x,5,x,0.48049170000012964,1,87,test1,3,0.4807111999998597,-42.0
12,lyt,f,21,r,2,(172.20000000000002, 0.0),21,7,3,yes,x,5,x,0.7385334000000512,1,88,test1,3,0.7391956000001301,-38.0
12,lyt,f,21,r,2,(-172.20000000000002, 2.1088417881317425e-14),25,-7,13,yes,x,5,x,0.4818387999994229,1,89,test1,3,0.4819342000000688,-52.0
12,lyt,f,21,r,2,(1.0544208940658713e-14, 172.20000000000002),23,7,3,yes,x,5,x,0.5836774999997942,1,90,test1,3,0.5837781000000177,-38.0
12,lyt,f,21,r,2,(172.20000000000002, 0.0),21,-3,11,yes,x,5,m,1.230892199999289,0,91,test1,3,1.2309869999999137,-48.0
12,lyt,f,21,r,2,(-121.76378772032352, -121.76378772032348),26,-3,11,yes,x,5,x,1.6777376000000004,1,92,test1,3,1.6778635999999096,-48.0
12,lyt,f,21,r,2,(121.76378772032349, 121.76378772032349),22,-25,14,no,m,6,m,0.7075998000000254,1,93,test1,3,0.7079570000005333,-48.0
12,lyt,f,21,r,2,(-121.76378772032352, -121.76378772032348),26,5,2,yes,x,5,x,0.6749677999996493,1,94,test1,3,0.6750695000000633,-40.0
12,lyt,f,21,r,2,(121.76378772032346, -121.76378772032352),28,-25,14,no,m,6,m,0.8094339999997828,1,95,test1,3,0.8095639000002848,-40.0
12,lyt,f,21,r,2,(-172.20000000000002, 2.1088417881317425e-14),25,5,2,yes,x,5,x,0.47250590000021475,1,96,test1,3,0.4727318000004743,-40.0
12,lyt,f,21,r,2,(-121.76378772032348, 121.76378772032349),24,7,3,yes,x,5,x,0.5425726000003124,1,1,test2,3,0.5428338000001531,-38.0
12,lyt,f,21,r,2,(121.76378772032346, -121.76378772032352),28,-25,14,yes,x,5,x,0.5192699999997785,1,2,test2,3,0.5196344000005411,-70.0
12,lyt,f,21,r,2,(-172.20000000000002, 2.1088417881317425e-14),25,-5,12,yes,x,5,x,0.5316184000002977,1,3,test2,3,0.5318964999996751,-50.0
12,lyt,f,21,r,2,(121.76378772032346, -121.76378772032352),28,5,2,yes,x,5,x,0.8378200999995897,1,4,test2,3,0.8381687000000966,-40.0
12,lyt,f,21,r,2,(-121.76378772032352, -121.76378772032348),26,7,3,yes,x,5,x,0.4312232000002041,1,5,test2,3,0.4313713000001371,-38.0
12,lyt,f,21,r,2,(1.0544208940658713e-14, 172.20000000000002),23,-25,14,yes,x,5,x,0.4268538999995144,1,6,test2,3,0.42695720000028814,-70.0
12,lyt,f,21,r,2,(-121.76378772032348, 121.76378772032349),24,5,2,no,m,6,m,0.8297211999997671,1,7,test2,3,0.8298203000003923,-70.0
12,lyt,f,21,r,2,(1.0544208940658713e-14, 172.20000000000002),23,-5,12,yes,x,5,x,0.4947736000003715,1,8,test2,3,0.4951154000000315,-50.0
12,lyt,f,21,r,2,(-121.76378772032348, 121.76378772032349),24,-7,13,yes,x,5,x,0.509612300000299,1,9,test2,3,0.5098491000007925,-52.0
12,lyt,f,21,r,2,(-121.76378772032348, 121.76378772032349),24,25,4,no,m,6,m,0.8212260000000242,1,10,test2,3,0.8213818000003812,-52.0
12,lyt,f,21,r,2,(-121.76378772032352, -121.76378772032348),26,-25,14,yes,x,5,x,0.35157150000031834,1,11,test2,3,0.3518942999999126,-70.0
12,lyt,f,21,r,2,(172.20000000000002, 0.0),21,-5,12,no,m,6,m,1.0516304000002492,1,12,test2,3,1.0518404000004011,-70.0
12,lyt,f,21,r,2,(-121.76378772032352, -121.76378772032348),26,7,3,yes,x,5,x,0.5251189000000522,1,13,test2,3,0.5253025000001799,-38.0
12,lyt,f,21,r,2,(-121.76378772032352, -121.76378772032348),26,3,1,yes,x,5,x,0.6656669000003603,1,14,test2,3,0.6657937999998467,-42.0
12,lyt,f,21,r,2,(-172.20000000000002, 2.1088417881317425e-14),25,25,4,no,m,6,m,0.563367499999913,1,15,test2,3,0.5637171999997008,-42.0
12,lyt,f,21,r,2,(-121.76378772032348, 121.76378772032349),24,-7,13,no,m,6,m,0.7635197999998127,1,16,test2,3,0.7636333000000377,-42.0
12,lyt,f,21,r,2,(1.0544208940658713e-14, 172.20000000000002),23,25,4,yes,x,5,x,0.39782909999939875,1,17,test2,3,0.39860010000029433,-20.0
12,lyt,f,21,r,2,(-172.20000000000002, 2.1088417881317425e-14),25,-25,14,no,m,6,m,0.6210140000002866,1,18,test2,3,0.6212517000003572,-20.0
12,lyt,f,21,r,2,(172.20000000000002, 0.0),21,5,2,yes,x,5,x,0.3948781000008239,1,19,test2,3,0.39566849999937403,-40.0
12,lyt,f,21,r,2,(172.20000000000002, 0.0),21,-5,12,yes,x,5,x,0.7902727999999115,1,20,test2,3,0.7904464000002918,-50.0
12,lyt,f,21,r,2,(1.0544208940658713e-14, 172.20000000000002),23,5,2,no,m,6,m,0.9194160999995802,1,21,test2,3,0.9195474999996804,-50.0
12,lyt,f,21,r,2,(1.0544208940658713e-14, 172.20000000000002),23,7,3,yes,x,5,x,0.40268060000016703,1,22,test2,3,0.4027873000004547,-38.0
12,lyt,f,21,r,2,(121.76378772032349, 121.76378772032349),22,25,4,yes,x,5,x,0.4197753999997076,1,23,test2,3,0.42001149999941845,-20.0
12,lyt,f,21,r,2,(172.20000000000002, 0.0),21,-25,14,yes,x,5,x,0.4472440999998071,1,24,test2,3,0.4475695999999516,-70.0
12,lyt,f,21,r,2,(-172.20000000000002, 2.1088417881317425e-14),25,5,2,yes,x,5,x,0.5197797000000719,1,25,test2,3,0.5198811000000205,-40.0
12,lyt,f,21,r,2,(121.76378772032349, 121.76378772032349),22,-7,13,yes,x,5,x,0.6095476000000417,1,26,test2,3,0.6097079000001031,-52.0
12,lyt,f,21,r,2,(-121.76378772032348, 121.76378772032349),24,-25,14,yes,x,5,x,0.38514980000036303,1,27,test2,3,0.38547960000050807,-70.0
12,lyt,f,21,r,2,(1.0544208940658713e-14, 172.20000000000002),23,-5,12,yes,x,5,x,0.44940870000027644,1,28,test2,3,0.44962130000021716,-50.0
12,lyt,f,21,r,2,(121.76378772032346, -121.76378772032352),28,-7,13,no,m,6,m,0.8789020000003802,1,29,test2,3,0.879134900000281,-50.0
12,lyt,f,21,r,2,(1.0544208940658713e-14, 172.20000000000002),23,-3,11,yes,x,5,x,0.774999299999763,1,30,test2,3,0.7751675999998042,-48.0
12,lyt,f,21,r,2,(-172.20000000000002, 2.1088417881317425e-14),25,-3,11,yes,x,5,x,0.951885499999662,1,31,test2,3,0.9520201000004818,-48.0
12,lyt,f,21,r,2,(-3.163262682197613e-14, -172.20000000000002),27,25,4,no,m,6,m,0.6972271000004184,1,32,test2,3,0.697567600000184,-48.0
12,lyt,f,21,r,2,(172.20000000000002, 0.0),21,-3,11,no,m,6,m,0.6625739000000976,1,33,test2,3,0.6627163000002838,-48.0
12,lyt,f,21,r,2,(-172.20000000000002, 2.1088417881317425e-14),25,-25,14,yes,x,5,x,0.3395824999997785,1,34,test2,3,0.339861600000404,-70.0
12,lyt,f,21,r,2,(-121.76378772032352, -121.76378772032348),26,25,4,no,m,6,m,0.7309384000000136,1,35,test2,3,0.7310903000006874,-70.0
12,lyt,f,21,r,2,(121.76378772032346, -121.76378772032352),28,-3,11,yes,x,5,m,0.6517393000003722,0,36,test2,3,0.651870499999859,-48.0
12,lyt,f,21,r,2,(121.76378772032349, 121.76378772032349),22,3,1,yes,x,5,x,0.8962876999994478,1,37,test2,3,0.8967001999999411,-42.0
12,lyt,f,21,r,2,(1.0544208940658713e-14, 172.20000000000002),23,5,2,yes,x,5,x,0.6014445000000705,1,38,test2,3,0.6015475000003789,-40.0
12,lyt,f,21,r,2,(-172.20000000000002, 2.1088417881317425e-14),25,3,1,no,m,6,m,1.0897193000000698,1,39,test2,3,1.090078000000176,-40.0
12,lyt,f,21,r,2,(1.0544208940658713e-14, 172.20000000000002),23,-25,14,no,m,6,m,0.9629727999999886,1,40,test2,3,0.9630748999998104,-40.0
12,lyt,f,21,r,2,(-121.76378772032352, -121.76378772032348),26,-7,13,yes,x,5,x,0.4056094999996276,1,41,test2,3,0.4058773000006113,-52.0
12,lyt,f,21,r,2,(-3.163262682197613e-14, -172.20000000000002),27,-7,13,yes,x,5,x,0.5358489000000191,1,42,test2,3,0.5361536000000342,-52.0
12,lyt,f,21,r,2,(-121.76378772032352, -121.76378772032348),26,25,4,yes,x,5,x,0.6792077000000063,1,43,test2,3,0.679704700000002,-20.0
12,lyt,f,21,r,2,(1.0544208940658713e-14, 172.20000000000002),23,25,4,yes,x,5,x,0.5126154999998107,1,44,test2,3,0.5127170999994632,-20.0
12,lyt,f,21,r,2,(-3.163262682197613e-14, -172.20000000000002),27,-7,13,no,m,6,m,1.0600551999996242,1,45,test2,3,1.0602098999997907,-20.0
12,lyt,f,21,r,2,(172.20000000000002, 0.0),21,-7,13,no,m,6,m,1.001242600000296,1,46,test2,3,1.0013646000006702,-20.0
12,lyt,f,21,r,2,(121.76378772032349, 121.76378772032349),22,3,1,yes,x,5,x,0.6352477999998882,1,47,test2,3,0.6353476000003866,-42.0
12,lyt,f,21,r,2,(-121.76378772032352, -121.76378772032348),26,3,1,yes,x,5,x,0.7031780999996045,1,48,test2,3,0.7033074000000852,-42.0
12,lyt,f,21,r,2,(-121.76378772032352, -121.76378772032348),26,-5,12,yes,x,5,x,1.398889699999927,1,49,test2,3,1.399055999999291,-50.0
12,lyt,f,21,r,2,(-121.76378772032352, -121.76378772032348),26,5,2,no,m,6,m,1.445875100000194,1,50,test2,3,1.4460409000002983,-50.0
12,lyt,f,21,r,2,(172.20000000000002, 0.0),21,3,1,yes,x,5,x,0.5892648999997618,1,51,test2,3,0.589444100000037,-42.0
12,lyt,f,21,r,2,(-3.163262682197613e-14, -172.20000000000002),27,7,3,yes,x,5,x,0.8380546999997023,1,52,test2,3,0.8381492999997135,-38.0
12,lyt,f,21,r,2,(121.76378772032349, 121.76378772032349),22,5,2,yes,x,5,x,0.5827978000006624,1,53,test2,3,0.5829561999998987,-40.0
12,lyt,f,21,r,2,(121.76378772032346, -121.76378772032352),28,-25,14,yes,x,5,x,0.4278124000002208,1,54,test2,3,0.42832259999977396,-70.0
12,lyt,f,21,r,2,(-121.76378772032348, 121.76378772032349),24,-3,11,no,m,6,m,1.272942200000216,1,55,test2,3,1.2732880000003206,-70.0
12,lyt,f,21,r,2,(-172.20000000000002, 2.1088417881317425e-14),25,5,2,no,m,6,x,0.4442554999995991,0,56,test2,3,0.4443753999994442,-70.0
12,lyt,f,21,r,2,(-172.20000000000002, 2.1088417881317425e-14),25,-5,12,yes,x,5,x,0.5621590999999171,1,57,test2,3,0.5622905999998693,-50.0
12,lyt,f,21,r,2,(-3.163262682197613e-14, -172.20000000000002),27,25,4,yes,x,5,x,0.4524740999995629,1,58,test2,3,0.4525757999999769,-20.0
12,lyt,f,21,r,2,(121.76378772032349, 121.76378772032349),22,-25,14,yes,x,5,x,0.711006699999416,1,59,test2,3,0.7114943999995376,-70.0
12,lyt,f,21,r,2,(-121.76378772032352, -121.76378772032348),26,-7,13,yes,x,5,x,0.46173390000058134,1,60,test2,3,0.4620279999999184,-52.0
12,lyt,f,21,r,2,(-121.76378772032352, -121.76378772032348),26,-25,14,no,m,6,m,1.3139350999999806,1,61,test2,3,1.314165900000262,-52.0
12,lyt,f,21,r,2,(121.76378772032346, -121.76378772032352),28,5,2,no,m,6,m,1.068101900000329,1,62,test2,3,1.068202100000235,-52.0
12,lyt,f,21,r,2,(121.76378772032349, 121.76378772032349),22,-3,11,no,m,6,m,1.1005596000004516,1,63,test2,3,1.100658199999998,-52.0
12,lyt,f,21,r,2,(-3.163262682197613e-14, -172.20000000000002),27,7,3,no,m,6,m,0.6249219000001176,1,64,test2,3,0.6250360999993063,-52.0
12,lyt,f,21,r,2,(-121.76378772032348, 121.76378772032349),24,-5,12,no,m,6,m,1.4961991000000125,1,65,test2,3,1.4965078999994148,-52.0
12,lyt,f,21,r,2,(-121.76378772032352, -121.76378772032348),26,-5,12,no,m,6,m,0.8487132000000202,1,66,test2,3,0.8488146999998207,-52.0
12,lyt,f,21,r,2,(-121.76378772032348, 121.76378772032349),24,-3,11,yes,x,5,x,0.7556273999998666,1,67,test2,3,0.7557259000004706,-48.0
12,lyt,f,21,r,2,(-121.76378772032348, 121.76378772032349),24,3,1,yes,x,5,x,0.883429000000433,1,68,test2,3,0.8836662000003344,-42.0
12,lyt,f,21,r,2,(121.76378772032349, 121.76378772032349),22,-5,12,no,m,6,m,0.597973699999784,1,69,test2,3,0.5980789000004734,-42.0
12,lyt,f,21,r,2,(121.76378772032346, -121.76378772032352),28,7,3,no,m,6,m,0.8940210999999181,1,70,test2,3,0.8943063000006077,-42.0
12,lyt,f,21,r,2,(-3.163262682197613e-14, -172.20000000000002),27,-3,11,yes,x,5,x,0.9083725999998933,1,71,test2,3,0.909037200000057,-48.0
12,lyt,f,21,r,2,(-121.76378772032352, -121.76378772032348),26,3,1,no,m,6,m,0.6864513999998962,1,72,test2,3,0.6868371999998999,-48.0
12,lyt,f,21,r,2,(121.76378772032349, 121.76378772032349),22,-5,12,yes,x,5,x,0.5160557999997764,1,73,test2,3,0.5162537999995038,-50.0
12,lyt,f,21,r,2,(-172.20000000000002, 2.1088417881317425e-14),25,25,4,yes,x,5,x,0.42290130000037607,1,74,test2,3,0.4230016000001342,-20.0
12,lyt,f,21,r,2,(1.0544208940658713e-14, 172.20000000000002),23,-3,11,no,m,6,m,0.8945421000007627,1,75,test2,3,0.8946757000003345,-20.0
12,lyt,f,21,r,2,(-3.163262682197613e-14, -172.20000000000002),27,3,1,no,m,6,m,0.628437300000769,1,76,test2,3,0.6285504000006767,-20.0
12,lyt,f,21,r,2,(121.76378772032346, -121.76378772032352),28,-3,11,no,m,6,m,0.9198936000002504,1,77,test2,3,0.92002119999961,-20.0
12,lyt,f,21,r,2,(121.76378772032349, 121.76378772032349),22,-7,13,no,m,6,m,0.8273812999996153,1,78,test2,3,0.8275143999999273,-20.0
12,lyt,f,21,r,2,(121.76378772032346, -121.76378772032352),28,7,3,yes,x,5,x,0.46791010000015376,1,79,test2,3,0.4682781999999861,-38.0
12,lyt,f,21,r,2,(-172.20000000000002, 2.1088417881317425e-14),25,25,4,yes,x,5,x,0.5000063000006776,1,80,test2,3,0.5001041000004989,-20.0
12,lyt,f,21,r,2,(-121.76378772032352, -121.76378772032348),26,-3,11,yes,x,5,x,0.9862329999996291,1,81,test2,3,0.986387900000409,-48.0
12,lyt,f,21,r,2,(-172.20000000000002, 2.1088417881317425e-14),25,3,1,yes,x,5,x,0.45597989999987476,1,82,test2,3,0.4564323000004151,-42.0
12,lyt,f,21,r,2,(1.0544208940658713e-14, 172.20000000000002),23,-7,13,yes,x,5,x,0.49995379999927536,1,83,test2,3,0.5004210999995848,-52.0
12,lyt,f,21,r,2,(121.76378772032346, -121.76378772032352),28,25,4,yes,x,5,x,0.4948882999997295,1,84,test2,3,0.4949882000000798,-20.0
12,lyt,f,21,r,2,(-172.20000000000002, 2.1088417881317425e-14),25,-25,14,yes,x,5,x,0.45445199999994657,1,85,test2,3,0.4547352999998111,-70.0
12,lyt,f,21,r,2,(121.76378772032349, 121.76378772032349),22,7,3,no,m,6,m,0.6893614999999045,1,86,test2,3,0.6894938999994338,-70.0
12,lyt,f,21,r,2,(121.76378772032349, 121.76378772032349),22,7,3,yes,x,5,x,0.5199796000006245,1,87,test2,3,0.5201452000001154,-38.0
12,lyt,f,21,r,2,(121.76378772032349, 121.76378772032349),22,-3,11,yes,x,5,m,1.217302699999891,0,88,test2,3,1.2177297999996881,-48.0
12,lyt,f,21,r,2,(121.76378772032346, -121.76378772032352),28,-5,12,no,m,6,m,1.1233992000006765,1,89,test2,3,1.1235115999998015,-48.0
12,lyt,f,21,r,2,(-3.163262682197613e-14, -172.20000000000002),27,-25,14,yes,x,5,x,0.49163680000037857,1,90,test2,3,0.49173960000007355,-70.0
12,lyt,f,21,r,2,(-3.163262682197613e-14, -172.20000000000002),27,-7,13,yes,x,5,x,0.5215723999999682,1,91,test2,3,0.5217929999998887,-52.0
12,lyt,f,21,r,2,(172.20000000000002, 0.0),21,25,4,yes,x,5,x,0.4186632000000827,1,92,test2,3,0.4187644999992699,-20.0
12,lyt,f,21,r,2,(172.20000000000002, 0.0),21,25,4,no,m,6,m,1.0796267000005173,1,93,test2,3,1.079766699999709,-20.0
12,lyt,f,21,r,2,(-121.76378772032348, 121.76378772032349),24,7,3,no,m,6,m,0.7672374000003401,1,94,test2,3,0.7680447000002459,-20.0
12,lyt,f,21,r,2,(172.20000000000002, 0.0),21,7,3,yes,x,5,x,0.44518710000011197,1,95,test2,3,0.445506099999875,-38.0
12,lyt,f,21,r,2,(172.20000000000002, 0.0),21,-25,14,yes,x,5,x,0.44356559999960155,1,96,test2,3,0.4438011000002007,-70.0
12,lyt,f,21,r,2,(-3.163262682197613e-14, -172.20000000000002),27,3,1,yes,x,5,x,0.7102006999994046,1,1,test1,4,0.7103033000003052,-42.0
12,lyt,f,21,r,2,(1.0544208940658713e-14, 172.20000000000002),23,-3,11,yes,x,5,x,0.827201299999615,1,2,test1,4,0.8273018999998385,-48.0
12,lyt,f,21,r,2,(1.0544208940658713e-14, 172.20000000000002),23,5,2,yes,x,5,x,0.4486065000000963,1,3,test1,4,0.448725000000195,-40.0
12,lyt,f,21,r,2,(-172.20000000000002, 2.1088417881317425e-14),25,3,1,yes,x,5,x,0.5568561000000045,1,4,test1,4,0.5570196999997279,-42.0
12,lyt,f,21,r,2,(172.20000000000002, 0.0),21,5,2,no,m,6,m,0.7548024999996414,1,5,test1,4,0.755358299999898,-42.0
12,lyt,f,21,r,2,(121.76378772032346, -121.76378772032352),28,-3,11,yes,x,5,x,0.8620750000000044,1,6,test1,4,0.8623676000006526,-48.0
12,lyt,f,21,r,2,(-121.76378772032352, -121.76378772032348),26,-7,13,no,m,6,m,0.6910338999996384,1,7,test1,4,0.6912478999993255,-48.0
12,lyt,f,21,r,2,(-121.76378772032348, 121.76378772032349),24,-5,12,yes,x,5,x,0.4942025000000285,1,8,test1,4,0.4944334000001618,-50.0
12,lyt,f,21,r,2,(-172.20000000000002, 2.1088417881317425e-14),25,-7,13,yes,x,5,x,0.47727430000031745,1,9,test1,4,0.4773734999998851,-52.0
12,lyt,f,21,r,2,(1.0544208940658713e-14, 172.20000000000002),23,3,1,yes,x,5,x,0.5848642999999356,1,10,test1,4,0.5849986999992325,-42.0
12,lyt,f,21,r,2,(172.20000000000002, 0.0),21,-3,11,yes,x,5,x,0.8484464000002845,1,11,test1,4,0.848772899999858,-48.0
12,lyt,f,21,r,2,(-121.76378772032352, -121.76378772032348),26,-5,12,yes,x,5,x,0.5720504999999321,1,12,test1,4,0.5723746000003302,-50.0
12,lyt,f,21,r,2,(121.76378772032349, 121.76378772032349),22,-25,14,yes,x,5,x,0.44050089999927877,1,13,test1,4,0.4407076999996207,-70.0
12,lyt,f,21,r,2,(-3.163262682197613e-14, -172.20000000000002),27,-25,14,yes,x,5,x,0.4050115000000005,1,14,test1,4,0.40513949999967735,-70.0
12,lyt,f,21,r,2,(121.76378772032346, -121.76378772032352),28,-5,12,yes,x,5,x,0.8106452000001809,1,15,test1,4,0.8108038999998826,-50.0
12,lyt,f,21,r,2,(-121.76378772032348, 121.76378772032349),24,-7,13,yes,x,5,x,0.8621216999999888,1,16,test1,4,0.8622826999999234,-52.0
12,lyt,f,21,r,2,(1.0544208940658713e-14, 172.20000000000002),23,-7,13,no,m,6,m,0.9034497000002375,1,17,test1,4,0.903778400000192,-52.0
12,lyt,f,21,r,2,(-3.163262682197613e-14, -172.20000000000002),27,-5,12,yes,x,5,x,0.43179440000039904,1,18,test1,4,0.4319941000003382,-50.0
12,lyt,f,21,r,2,(1.0544208940658713e-14, 172.20000000000002),23,25,4,no,m,6,m,0.7013860999995813,1,19,test1,4,0.7015166999999565,-50.0
12,lyt,f,21,r,2,(-121.76378772032348, 121.76378772032349),24,3,1,yes,x,5,x,0.71352460000071,1,20,test1,4,0.7138334999999643,-42.0
12,lyt,f,21,r,2,(-3.163262682197613e-14, -172.20000000000002),27,7,3,yes,x,5,x,0.4543540999993638,1,21,test1,4,0.4544547999994393,-38.0
12,lyt,f,21,r,2,(-3.163262682197613e-14, -172.20000000000002),27,5,2,no,m,6,m,0.8174420999994254,1,22,test1,4,0.8175418000000718,-38.0
12,lyt,f,21,r,2,(-121.76378772032352, -121.76378772032348),26,-3,11,no,m,6,m,0.9345757000000958,1,23,test1,4,0.9348688999998558,-38.0
12,lyt,f,21,r,2,(-121.76378772032348, 121.76378772032349),24,-3,11,yes,x,5,x,0.768960800000059,1,24,test1,4,0.7693269999999757,-48.0
12,lyt,f,21,r,2,(121.76378772032349, 121.76378772032349),22,-7,13,yes,x,5,x,0.49796360000073037,1,25,test1,4,0.4981757999994443,-52.0
12,lyt,f,21,r,2,(121.76378772032349, 121.76378772032349),22,3,1,no,m,6,m,0.5688904999997249,1,26,test1,4,0.5692120999992767,-52.0
12,lyt,f,21,r,2,(-172.20000000000002, 2.1088417881317425e-14),25,7,3,no,m,6,m,0.7874287000004188,1,27,test1,4,0.7877555000004577,-52.0
12,lyt,f,21,r,2,(-121.76378772032348, 121.76378772032349),24,7,3,yes,x,5,x,0.5476418999996895,1,28,test1,4,0.5484484999997221,-38.0
12,lyt,f,21,r,2,(121.76378772032349, 121.76378772032349),22,5,2,no,m,6,m,0.986440899999252,1,29,test1,4,0.9866627999999764,-38.0
12,lyt,f,21,r,2,(-3.163262682197613e-14, -172.20000000000002),27,25,4,yes,x,5,x,0.6168005999998059,1,30,test1,4,0.6168990999995003,-20.0
12,lyt,f,21,r,2,(-172.20000000000002, 2.1088417881317425e-14),25,-5,12,no,m,6,m,0.8529769999995551,1,31,test1,4,0.8536752999998498,-20.0
12,lyt,f,21,r,2,(-121.76378772032348, 121.76378772032349),24,-5,12,yes,x,5,m,0.761236899999858,0,32,test1,4,0.7617806999996901,-50.0
12,lyt,f,21,r,2,(1.0544208940658713e-14, 172.20000000000002),23,7,3,no,m,6,x,1.4629033000001073,0,33,test1,4,1.463309699999627,-50.0
12,lyt,f,21,r,2,(121.76378772032346, -121.76378772032352),28,-7,13,yes,x,5,x,0.47965129999920464,1,34,test1,4,0.4798782999996547,-52.0
12,lyt,f,21,r,2,(-172.20000000000002, 2.1088417881317425e-14),25,-3,11,no,m,6,m,0.7552615000004153,1,35,test1,4,0.7553608000007443,-52.0
12,lyt,f,21,r,2,(-172.20000000000002, 2.1088417881317425e-14),25,-3,11,yes,x,5,m,0.7128222000001188,0,36,test1,4,0.7129224999998769,-48.0
12,lyt,f,21,r,2,(172.20000000000002, 0.0),21,-25,14,no,m,6,x,0.5767130000003817,0,37,test1,4,0.5769350999999006,-48.0
12,lyt,f,21,r,2,(121.76378772032346, -121.76378772032352),28,3,1,no,m,6,m,0.6394052999994528,1,38,test1,4,0.6395069000000149,-48.0
12,lyt,f,21,r,2,(-172.20000000000002, 2.1088417881317425e-14),25,7,3,yes,x,5,x,0.36164670000016486,1,39,test1,4,0.3617494000000079,-38.0
12,lyt,f,21,r,2,(121.76378772032346, -121.76378772032352),28,7,3,yes,x,5,x,0.4840078999995967,1,40,test1,4,0.48412310000003345,-38.0
12,lyt,f,21,r,2,(121.76378772032346, -121.76378772032352),28,-5,12,yes,x,5,x,0.6148499000000811,1,41,test1,4,0.6149719999993977,-50.0
12,lyt,f,21,r,2,(172.20000000000002, 0.0),21,25,4,yes,x,5,x,0.5801571000001786,1,42,test1,4,0.5803288999995857,-20.0
12,lyt,f,21,r,2,(-121.76378772032348, 121.76378772032349),24,-25,14,no,m,6,x,1.413897000000361,0,43,test1,4,1.4141234999997323,-20.0
12,lyt,f,21,r,2,(121.76378772032349, 121.76378772032349),22,25,4,yes,x,5,x,0.4509711000000607,1,44,test1,4,0.451086199999736,-20.0
12,lyt,f,21,r,2,(-121.76378772032348, 121.76378772032349),24,3,1,no,m,6,m,0.9793686000002708,1,45,test1,4,0.9794874999997774,-20.0
12,lyt,f,21,r,2,(121.76378772032349, 121.76378772032349),22,-3,11,yes,x,5,m,0.9274365000001126,0,46,test1,4,0.9276850999995077,-48.0
12,lyt,f,21,r,2,(172.20000000000002, 0.0),21,3,1,no,m,6,m,1.1661008000000948,1,47,test1,4,1.1665744000001723,-48.0
12,lyt,f,21,r,2,(-172.20000000000002, 2.1088417881317425e-14),25,-7,13,no,m,6,m,0.5851841000003333,1,48,test1,4,0.5855574000006527,-48.0
12,lyt,f,21,r,2,(-3.163262682197613e-14, -172.20000000000002),27,5,2,yes,x,5,x,0.40061729999979434,1,49,test1,4,0.4008739999999307,-40.0
12,lyt,f,21,r,2,(-121.76378772032352, -121.76378772032348),26,-25,14,yes,x,5,x,0.39956200000051467,1,50,test1,4,0.3997873999996955,-70.0
12,lyt,f,21,r,2,(-3.163262682197613e-14, -172.20000000000002),27,-25,14,no,m,6,m,0.6865237000001798,1,51,test1,4,0.6867944999994506,-70.0
12,lyt,f,21,r,2,(-3.163262682197613e-14, -172.20000000000002),27,-5,12,yes,x,5,x,0.7103258000006463,1,52,test1,4,0.7108280000002196,-50.0
12,lyt,f,21,r,2,(121.76378772032346, -121.76378772032352),28,5,2,yes,x,5,x,0.6094997000000149,1,53,test1,4,0.6097334000005503,-40.0
12,lyt,f,21,r,2,(-121.76378772032348, 121.76378772032349),24,25,4,yes,x,5,x,0.43620129999999335,1,54,test1,4,0.43651090000003023,-20.0
12,lyt,f,21,r,2,(-3.163262682197613e-14, -172.20000000000002),27,-3,11,yes,x,5,x,0.5514100999998846,1,55,test1,4,0.5518505999998524,-48.0
12,lyt,f,21,r,2,(121.76378772032346, -121.76378772032352),28,3,1,yes,x,5,x,0.7523499999997512,1,56,test1,4,0.7528233000002729,-42.0
12,lyt,f,21,r,2,(121.76378772032349, 121.76378772032349),22,7,3,yes,x,5,x,0.499997799999619,1,57,test1,4,0.500233599999774,-38.0
12,lyt,f,21,r,2,(121.76378772032346, -121.76378772032352),28,3,1,yes,x,5,x,0.5623515999996016,1,58,test1,4,0.5624647000004188,-42.0
12,lyt,f,21,r,2,(121.76378772032346, -121.76378772032352),28,-7,13,yes,x,5,x,0.47409349999998085,1,59,test1,4,0.4741983000003529,-52.0
12,lyt,f,21,r,2,(172.20000000000002, 0.0),21,7,3,no,m,6,m,0.8715126000006421,1,60,test1,4,0.8717477000000144,-52.0
12,lyt,f,21,r,2,(121.76378772032346, -121.76378772032352),28,25,4,yes,x,5,x,0.41753460000018094,1,61,test1,4,0.41784980000011274,-20.0
12,lyt,f,21,r,2,(-121.76378772032348, 121.76378772032349),24,5,2,yes,x,5,x,0.4656334000001152,1,62,test1,4,0.46580249999988155,-40.0
12,lyt,f,21,r,2,(-3.163262682197613e-14, -172.20000000000002),27,3,1,yes,x,5,x,0.405462599999737,1,63,test1,4,0.40578540000024077,-42.0
12,lyt,f,21,r,2,(-3.163262682197613e-14, -172.20000000000002),27,-5,12,no,m,6,m,1.2514129000001049,1,64,test1,4,1.2520063000001755,-42.0
12,lyt,f,21,r,2,(-172.20000000000002, 2.1088417881317425e-14),25,7,3,yes,x,5,x,0.48373220000030415,1,65,test1,4,0.48388489999979356,-38.0
12,lyt,f,21,r,2,(121.76378772032349, 121.76378772032349),22,25,4,no,m,6,m,0.6390183000003162,1,66,test1,4,0.6391340999998647,-38.0
12,lyt,f,21,r,2,(172.20000000000002, 0.0),21,3,1,yes,x,5,x,0.6727974000004906,1,67,test1,4,0.6728908000004594,-42.0
12,lyt,f,21,r,2,(172.20000000000002, 0.0),21,-5,12,yes,x,5,x,0.5869762000002083,1,68,test1,4,0.587204199999178,-50.0
12,lyt,f,21,r,2,(-121.76378772032348, 121.76378772032349),24,-25,14,yes,x,5,x,0.35258409999914875,1,69,test1,4,0.35268659999928786,-70.0
12,lyt,f,21,r,2,(-121.76378772032348, 121.76378772032349),24,5,2,yes,x,5,x,0.47098029999961,1,70,test1,4,0.47107839999989665,-40.0
12,lyt,f,21,r,2,(172.20000000000002, 0.0),21,-7,13,yes,x,5,x,0.5089311000001544,1,71,test1,4,0.5093899000003148,-52.0
12,lyt,f,21,r,2,(1.0544208940658713e-14, 172.20000000000002),23,-5,12,no,m,6,m,0.9517280999998547,1,72,test1,4,0.952010999999402,-52.0
12,lyt,f,21,r,2,(-3.163262682197613e-14, -172.20000000000002),27,5,2,yes,x,5,x,0.4116868999999497,1,73,test1,4,0.41214880000006815,-40.0
12,lyt,f,21,r,2,(-121.76378772032352, -121.76378772032348),26,7,3,no,m,6,m,0.6691985999996177,1,74,test1,4,0.6694500000003245,-40.0
12,lyt,f,21,r,2,(1.0544208940658713e-14, 172.20000000000002),23,-7,13,yes,x,5,x,0.5570900000002439,1,75,test1,4,0.5572449999999662,-52.0
12,lyt,f,21,r,2,(172.20000000000002, 0.0),21,-7,13,yes,x,5,x,0.6758819000006042,1,76,test1,4,0.6759846000004472,-52.0
12,lyt,f,21,r,2,(121.76378772032349, 121.76378772032349),22,-5,12,yes,x,5,x,0.5273424999995768,1,77,test1,4,0.527520700000423,-50.0
12,lyt,f,21,r,2,(121.76378772032346, -121.76378772032352),28,25,4,no,m,6,m,0.7661846999999398,1,78,test1,4,0.7664823000004617,-50.0
12,lyt,f,21,r,2,(121.76378772032349, 121.76378772032349),22,5,2,yes,x,5,x,0.5563031000001502,1,79,test1,4,0.5564109000006283,-40.0
12,lyt,f,21,r,2,(-121.76378772032352, -121.76378772032348),26,5,2,yes,x,5,x,0.5797692000005554,1,80,test1,4,0.5799686000000293,-40.0
12,lyt,f,21,r,2,(1.0544208940658713e-14, 172.20000000000002),23,3,1,no,m,6,m,0.5896782999998322,1,81,test1,4,0.5898886000004495,-40.0
12,lyt,f,21,r,2,(-121.76378772032348, 121.76378772032349),24,25,4,yes,x,5,x,0.3733096999994814,1,82,test1,4,0.37355440000010276,-20.0
12,lyt,f,21,r,2,(-3.163262682197613e-14, -172.20000000000002),27,-3,11,no,m,6,m,0.6356888000000254,1,83,test1,4,0.6360616000001755,-20.0
12,lyt,f,21,r,2,(172.20000000000002, 0.0),21,5,2,yes,x,5,x,0.4896647999994457,1,84,test1,4,0.4897665999997116,-40.0
12,lyt,f,21,r,2,(1.0544208940658713e-14, 172.20000000000002),23,-25,14,yes,x,5,x,0.579259699999966,1,85,test1,4,0.5793923000001087,-70.0
12,lyt,f,21,r,2,(-121.76378772032352, -121.76378772032348),26,25,4,yes,x,5,x,0.3815878999994311,1,86,test1,4,0.3818172000001141,-20.0
12,lyt,f,21,r,2,(1.0544208940658713e-14, 172.20000000000002),23,3,1,yes,x,5,x,0.5299366999997801,1,87,test1,4,0.5302550999995219,-42.0
12,lyt,f,21,r,2,(172.20000000000002, 0.0),21,7,3,yes,x,5,x,0.46335760000056325,1,88,test1,4,0.46355529999982537,-38.0
12,lyt,f,21,r,2,(-172.20000000000002, 2.1088417881317425e-14),25,-7,13,yes,x,5,x,0.4502770999997665,1,89,test1,4,0.4504059999999299,-52.0
12,lyt,f,21,r,2,(1.0544208940658713e-14, 172.20000000000002),23,7,3,yes,x,5,x,0.34014790000037465,1,90,test1,4,0.3404645000000528,-38.0
12,lyt,f,21,r,2,(172.20000000000002, 0.0),21,-3,11,yes,x,5,x,0.9655328999997437,1,91,test1,4,0.9656365000000733,-48.0
12,lyt,f,21,r,2,(-121.76378772032352, -121.76378772032348),26,-3,11,yes,x,5,x,0.7741699999996854,1,92,test1,4,0.7744343999993362,-48.0
12,lyt,f,21,r,2,(121.76378772032349, 121.76378772032349),22,-25,14,no,m,6,m,0.7121675000007599,1,93,test1,4,0.7127393000000666,-48.0
12,lyt,f,21,r,2,(-121.76378772032352, -121.76378772032348),26,5,2,yes,x,5,x,0.42756529999951454,1,94,test1,4,0.4277203000001464,-40.0
12,lyt,f,21,r,2,(121.76378772032346, -121.76378772032352),28,-25,14,no,m,6,m,0.6024311999999554,1,95,test1,4,0.6026773000003232,-40.0
12,lyt,f,21,r,2,(-172.20000000000002, 2.1088417881317425e-14),25,5,2,yes,x,5,x,0.9875629999996818,1,96,test1,4,0.9877777000001515,-40.0
12,lyt,f,21,r,2,(-121.76378772032348, 121.76378772032349),24,7,3,yes,x,5,x,0.6072202999994261,1,1,test2,4,0.607316599999649,-38.0
12,lyt,f,21,r,2,(121.76378772032346, -121.76378772032352),28,-25,14,yes,x,5,x,0.4493853999993007,1,2,test2,4,0.4497205000006943,-70.0
12,lyt,f,21,r,2,(-172.20000000000002, 2.1088417881317425e-14),25,-5,12,yes,x,5,x,0.5150076999998419,1,3,test2,4,0.5151062000004458,-50.0
12,lyt,f,21,r,2,(121.76378772032346, -121.76378772032352),28,5,2,yes,x,5,m,0.5180215000000317,0,4,test2,4,0.5181947000000946,-40.0
12,lyt,f,21,r,2,(-121.76378772032352, -121.76378772032348),26,7,3,yes,x,5,x,0.5785052000001087,1,5,test2,4,0.5786503000008452,-38.0
12,lyt,f,21,r,2,(1.0544208940658713e-14, 172.20000000000002),23,-25,14,yes,x,5,x,0.36774180000065826,1,6,test2,4,0.36825800000042364,-70.0
12,lyt,f,21,r,2,(-121.76378772032348, 121.76378772032349),24,5,2,no,m,6,m,0.6537377999993623,1,7,test2,4,0.6540478999995685,-70.0
12,lyt,f,21,r,2,(1.0544208940658713e-14, 172.20000000000002),23,-5,12,yes,x,5,x,0.570110200000272,1,8,test2,4,0.5702140000003055,-50.0
12,lyt,f,21,r,2,(-121.76378772032348, 121.76378772032349),24,-7,13,yes,x,5,x,0.4722156999996514,1,9,test2,4,0.4725275999999212,-52.0
12,lyt,f,21,r,2,(-121.76378772032348, 121.76378772032349),24,25,4,no,m,6,m,0.6111383999996178,1,10,test2,4,0.6113980999998603,-52.0
12,lyt,f,21,r,2,(-121.76378772032352, -121.76378772032348),26,-25,14,yes,x,5,x,0.38984700000037265,1,11,test2,4,0.3899467999999615,-70.0
12,lyt,f,21,r,2,(172.20000000000002, 0.0),21,-5,12,no,m,6,m,0.597270600000229,1,12,test2,4,0.5976159000001644,-70.0
12,lyt,f,21,r,2,(-121.76378772032352, -121.76378772032348),26,7,3,yes,x,5,x,0.35654470000008587,1,13,test2,4,0.35695620000024064,-38.0
12,lyt,f,21,r,2,(-121.76378772032352, -121.76378772032348),26,3,1,yes,x,5,x,0.43941350000022794,1,14,test2,4,0.4396397000000434,-42.0
12,lyt,f,21,r,2,(-172.20000000000002, 2.1088417881317425e-14),25,25,4,no,m,6,m,0.5232430999994904,1,15,test2,4,0.5233423999998195,-42.0
12,lyt,f,21,r,2,(-121.76378772032348, 121.76378772032349),24,-7,13,no,m,6,m,0.7607568000003084,1,16,test2,4,0.7608581999993476,-42.0
12,lyt,f,21,r,2,(1.0544208940658713e-14, 172.20000000000002),23,25,4,yes,x,5,x,0.3331759000002421,1,17,test2,4,0.33337679999931424,-20.0
12,lyt,f,21,r,2,(-172.20000000000002, 2.1088417881317425e-14),25,-25,14,no,m,6,m,0.5555394000002707,1,18,test2,4,0.5556801000002451,-20.0
12,lyt,f,21,r,2,(172.20000000000002, 0.0),21,5,2,yes,x,5,x,0.4581730999998399,1,19,test2,4,0.4584802999997919,-40.0
12,lyt,f,21,r,2,(172.20000000000002, 0.0),21,-5,12,yes,x,5,m,0.8340449999996054,0,20,test2,4,0.8344820000002073,-50.0
12,lyt,f,21,r,2,(1.0544208940658713e-14, 172.20000000000002),23,5,2,no,m,6,m,0.7558982999998989,1,21,test2,4,0.7560665999999401,-50.0
12,lyt,f,21,r,2,(1.0544208940658713e-14, 172.20000000000002),23,7,3,yes,x,5,x,0.42658269999992626,1,22,test2,4,0.4267994000001636,-38.0
12,lyt,f,21,r,2,(121.76378772032349, 121.76378772032349),22,25,4,yes,x,5,x,0.4793543000005229,1,23,test2,4,0.4797850000004473,-20.0
12,lyt,f,21,r,2,(172.20000000000002, 0.0),21,-25,14,yes,x,5,x,0.38964820000001055,1,24,test2,4,0.39004860000022745,-70.0
12,lyt,f,21,r,2,(-172.20000000000002, 2.1088417881317425e-14),25,5,2,yes,x,5,x,1.168286099999932,1,25,test2,4,1.1683905999998387,-40.0
12,lyt,f,21,r,2,(121.76378772032349, 121.76378772032349),22,-7,13,yes,x,5,x,0.5279193000005762,1,26,test2,4,0.5280383000008442,-52.0
12,lyt,f,21,r,2,(-121.76378772032348, 121.76378772032349),24,-25,14,yes,x,5,x,0.37088779999976396,1,27,test2,4,0.37110609999945154,-70.0
12,lyt,f,21,r,2,(1.0544208940658713e-14, 172.20000000000002),23,-5,12,yes,x,5,x,0.6356091000006927,1,28,test2,4,0.6357235000004948,-50.0
12,lyt,f,21,r,2,(121.76378772032346, -121.76378772032352),28,-7,13,no,m,6,m,0.6749936999995043,1,29,test2,4,0.6751269999995202,-50.0
12,lyt,f,21,r,2,(1.0544208940658713e-14, 172.20000000000002),23,-3,11,yes,x,5,x,0.6459741999997277,1,30,test2,4,0.6460894000001645,-48.0
12,lyt,f,21,r,2,(-172.20000000000002, 2.1088417881317425e-14),25,-3,11,yes,x,5,m,0.6249761999997645,0,31,test2,4,0.6254599000003509,-48.0
12,lyt,f,21,r,2,(-3.163262682197613e-14, -172.20000000000002),27,25,4,no,m,6,m,0.6074195999999574,1,32,test2,4,0.6076630999996269,-48.0
12,lyt,f,21,r,2,(172.20000000000002, 0.0),21,-3,11,no,m,6,m,0.7357424000001629,1,33,test2,4,0.7359057000003304,-48.0
12,lyt,f,21,r,2,(-172.20000000000002, 2.1088417881317425e-14),25,-25,14,yes,x,5,x,0.45324299999992945,1,34,test2,4,0.4533427999995183,-70.0
12,lyt,f,21,r,2,(-121.76378772032352, -121.76378772032348),26,25,4,no,m,6,m,0.49745919999986654,1,35,test2,4,0.49758680000013555,-70.0
12,lyt,f,21,r,2,(121.76378772032346, -121.76378772032352),28,-3,11,yes,x,5,x,0.8811547999994218,1,36,test2,4,0.8813747000003787,-48.0
12,lyt,f,21,r,2,(121.76378772032349, 121.76378772032349),22,3,1,yes,x,5,m,0.5611032999995587,0,37,test2,4,0.5612581000004866,-42.0
12,lyt,f,21,r,2,(1.0544208940658713e-14, 172.20000000000002),23,5,2,yes,x,5,x,0.6790723999993133,1,38,test2,4,0.6792285000001357,-40.0
12,lyt,f,21,r,2,(-172.20000000000002, 2.1088417881317425e-14),25,3,1,no,m,6,m,0.6762079999998605,1,39,test2,4,0.6764230000007956,-40.0
12,lyt,f,21,r,2,(1.0544208940658713e-14, 172.20000000000002),23,-25,14,no,m,6,m,1.0306291999995665,1,40,test2,4,1.0307286999995995,-40.0
12,lyt,f,21,r,2,(-121.76378772032352, -121.76378772032348),26,-7,13,yes,x,5,x,0.46801289999984874,1,41,test2,4,0.46835809999993216,-52.0
12,lyt,f,21,r,2,(-3.163262682197613e-14, -172.20000000000002),27,-7,13,yes,x,5,x,0.5495447000002969,1,42,test2,4,0.5497436000005109,-52.0
12,lyt,f,21,r,2,(-121.76378772032352, -121.76378772032348),26,25,4,yes,x,5,x,0.5666105999998763,1,43,test2,4,0.5667065999996339,-20.0
12,lyt,f,21,r,2,(1.0544208940658713e-14, 172.20000000000002),23,25,4,yes,x,5,x,0.6090833999996903,1,44,test2,4,0.6092662000000928,-20.0
12,lyt,f,21,r,2,(-3.163262682197613e-14, -172.20000000000002),27,-7,13,no,m,6,m,0.654589699999633,1,45,test2,4,0.6548106000000189,-20.0
12,lyt,f,21,r,2,(172.20000000000002, 0.0),21,-7,13,no,m,6,m,0.6577546999997139,1,46,test2,4,0.6580319000004238,-20.0
12,lyt,f,21,r,2,(121.76378772032349, 121.76378772032349),22,3,1,yes,x,5,x,1.4666600000000471,1,47,test2,4,1.466966400000274,-42.0
12,lyt,f,21,r,2,(-121.76378772032352, -121.76378772032348),26,3,1,yes,x,5,x,0.8804447000002256,1,48,test2,4,0.8808496999999988,-42.0
12,lyt,f,21,r,2,(-121.76378772032352, -121.76378772032348),26,-5,12,yes,x,5,x,0.46398649999991903,1,49,test2,4,0.46436679999987973,-50.0
12,lyt,f,21,r,2,(-121.76378772032352, -121.76378772032348),26,5,2,no,m,6,m,0.7143422999997711,1,50,test2,4,0.7144514999999956,-50.0
12,lyt,f,21,r,2,(172.20000000000002, 0.0),21,3,1,yes,x,5,m,0.5963368000002447,0,51,test2,4,0.5965322000001834,-42.0
12,lyt,f,21,r,2,(-3.163262682197613e-14, -172.20000000000002),27,7,3,yes,x,5,x,0.41787399999975605,1,52,test2,4,0.41798779999953695,-38.0
12,lyt,f,21,r,2,(121.76378772032349, 121.76378772032349),22,5,2,yes,x,5,x,0.6861896000000343,1,53,test2,4,0.686747299999297,-40.0
12,lyt,f,21,r,2,(121.76378772032346, -121.76378772032352),28,-25,14,yes,x,5,x,0.38280070000018895,1,54,test2,4,0.3832312999993519,-70.0
12,lyt,f,21,r,2,(-121.76378772032348, 121.76378772032349),24,-3,11,no,m,6,m,1.2040390000001935,1,55,test2,4,1.2041681999999128,-70.0
12,lyt,f,21,r,2,(-172.20000000000002, 2.1088417881317425e-14),25,5,2,no,m,6,m,0.9255001000001357,1,56,test2,4,0.9258787999997367,-70.0
12,lyt,f,21,r,2,(-172.20000000000002, 2.1088417881317425e-14),25,-5,12,yes,x,5,x,0.49737240000013117,1,57,test2,4,0.49751070000002073,-50.0
12,lyt,f,21,r,2,(-3.163262682197613e-14, -172.20000000000002),27,25,4,yes,x,5,x,0.46535229999972216,1,58,test2,4,0.4655037000002267,-20.0
12,lyt,f,21,r,2,(121.76378772032349, 121.76378772032349),22,-25,14,yes,x,5,x,0.517394599999534,1,59,test2,4,0.5176706000002014,-70.0
12,lyt,f,21,r,2,(-121.76378772032352, -121.76378772032348),26,-7,13,yes,x,5,x,0.5239520000004632,1,60,test2,4,0.5240499999999884,-52.0
12,lyt,f,21,r,2,(-121.76378772032352, -121.76378772032348),26,-25,14,no,m,6,m,0.6351392999995369,1,61,test2,4,0.6354692999993858,-52.0
12,lyt,f,21,r,2,(121.76378772032346, -121.76378772032352),28,5,2,no,m,6,m,0.6637996999997995,1,62,test2,4,0.6640330000000176,-52.0
12,lyt,f,21,r,2,(121.76378772032349, 121.76378772032349),22,-3,11,no,m,6,m,0.9932717000001503,1,63,test2,4,0.9933842000000368,-52.0
12,lyt,f,21,r,2,(-3.163262682197613e-14, -172.20000000000002),27,7,3,no,m,6,m,0.9345377999998163,1,64,test2,4,0.934776399999464,-52.0
12,lyt,f,21,r,2,(-121.76378772032348, 121.76378772032349),24,-5,12,no,m,6,m,0.6486150999999154,1,65,test2,4,0.6487439000002269,-52.0
12,lyt,f,21,r,2,(-121.76378772032352, -121.76378772032348),26,-5,12,no,m,6,m,0.8115648999992118,1,66,test2,4,0.8116731000000073,-52.0
12,lyt,f,21,r,2,(-121.76378772032348, 121.76378772032349),24,-3,11,yes,x,5,x,0.8875484000000142,1,67,test2,4,0.8876688999998805,-48.0
12,lyt,f,21,r,2,(-121.76378772032348, 121.76378772032349),24,3,1,yes,x,5,x,0.8387306999993598,1,68,test2,4,0.8388348999997106,-42.0
12,lyt,f,21,r,2,(121.76378772032349, 121.76378772032349),22,-5,12,no,m,6,m,0.6783433000000514,1,69,test2,4,0.6785644000001412,-42.0
12,lyt,f,21,r,2,(121.76378772032346, -121.76378772032352),28,7,3,no,m,6,m,0.6015487999993638,1,70,test2,4,0.6018868000001021,-42.0
12,lyt,f,21,r,2,(-3.163262682197613e-14, -172.20000000000002),27,-3,11,yes,x,5,x,0.8143322000005355,1,71,test2,4,0.8144341999995959,-48.0
12,lyt,f,21,r,2,(-121.76378772032352, -121.76378772032348),26,3,1,no,m,6,m,1.0572924999996758,1,72,test2,4,1.0576049000001149,-48.0
12,lyt,f,21,r,2,(121.76378772032349, 121.76378772032349),22,-5,12,yes,x,5,x,0.9600249000004624,1,73,test2,4,0.9602983999993739,-50.0
12,lyt,f,21,r,2,(-172.20000000000002, 2.1088417881317425e-14),25,25,4,yes,x,5,x,0.5071140999998534,1,74,test2,4,0.5072149999996327,-20.0
12,lyt,f,21,r,2,(1.0544208940658713e-14, 172.20000000000002),23,-3,11,no,m,6,m,0.7315824999996039,1,75,test2,4,0.7318085000006249,-20.0
12,lyt,f,21,r,2,(-3.163262682197613e-14, -172.20000000000002),27,3,1,no,m,6,m,0.6562967999998364,1,76,test2,4,0.6570951000003333,-20.0
