subj_id,subj_name,subj_gender ,subj_age,subj_handedness,subj_runNum,tar_l_x,tar_l_y,loc_code,tar_ori,tar_code,tar_pre ,cor_response,pre_code,subj_response,RT,correct,trial_num,type,bloc_num,dur, real_tar
12,lyt,f,21,r,1,(121.76378772032349, 121.76378772032349),22,-25,14,yes,x,5,x,1.0593509999998787,1,1,prac,0,1.0595941000001403,-70.0
12,lyt,f,21,r,1,(-121.76378772032348, 121.76378772032349),24,-3,11,yes,x,5,m,0.8874970999995639,0,2,prac,0,0.8877153000003091,-48.0
12,lyt,f,21,r,1,(-3.163262682197613e-14, -172.20000000000002),27,7,3,yes,x,5,x,0.6788940000005823,1,3,prac,0,0.6790786999999909,-38.0
12,lyt,f,21,r,1,(121.76378772032349, 121.76378772032349),22,3,1,yes,x,5,m,0.9540440000000672,0,4,prac,0,0.9548165999995035,-42.0
12,lyt,f,21,r,1,(-172.20000000000002, 2.1088417881317425e-14),25,-5,12,no,m,6,x,0.9406840000001466,0,5,prac,0,0.9408587999996598,-42.0
12,lyt,f,21,r,1,(1.0544208940658713e-14, 172.20000000000002),23,-25,14,yes,x,5,x,0.5254033999999592,1,6,prac,0,0.5256770000005417,-70.0
12,lyt,f,21,r,1,(-172.20000000000002, 2.1088417881317425e-14),25,5,2,yes,x,5,x,0.6905271999994511,1,7,prac,0,0.6906287000001612,-40.0
12,lyt,f,21,r,1,(-121.76378772032348, 121.76378772032349),24,3,1,yes,x,5,m,0.8197962999993251,0,8,prac,0,0.8199186000001646,-42.0
12,lyt,f,21,r,1,(121.76378772032349, 121.76378772032349),22,-5,12,yes,x,5,x,0.660928100000092,1,9,prac,0,0.661027500000273,-50.0
12,lyt,f,21,r,1,(-172.20000000000002, 2.1088417881317425e-14),25,-25,14,yes,x,5,x,0.5433542000000671,1,10,prac,0,0.5436370000006718,-70.0
12,lyt,f,21,r,1,(172.20000000000002, 0.0),21,5,2,yes,x,5,x,1.168717600000491,1,11,prac,0,1.1689430999995238,-40.0
12,lyt,f,21,r,1,(172.20000000000002, 0.0),21,-5,12,no,m,6,x,0.8358492999996088,0,12,prac,0,0.8360896000003777,-40.0
12,lyt,f,21,r,1,(172.20000000000002, 0.0),21,-7,13,yes,x,5,x,0.6666131000001769,1,13,prac,0,0.6668318000001818,-52.0
12,lyt,f,21,r,1,(-121.76378772032348, 121.76378772032349),24,-5,12,yes,x,5,m,0.8643534000002546,0,14,prac,0,0.8647239000001719,-50.0
12,lyt,f,21,r,1,(121.76378772032346, -121.76378772032352),28,3,1,yes,x,5,x,1.1172797000008359,1,15,prac,0,1.117566099999749,-42.0
12,lyt,f,21,r,1,(121.76378772032349, 121.76378772032349),22,-25,14,no,m,6,m,1.1279037000003882,1,16,prac,0,1.1280733000003238,-42.0
12,lyt,f,21,r,1,(-121.76378772032352, -121.76378772032348),26,7,3,yes,x,5,x,1.0483456000001752,1,17,prac,0,1.0484550000001036,-38.0
12,lyt,f,21,r,1,(172.20000000000002, 0.0),21,-7,13,no,m,6,m,1.1295036999999866,1,18,prac,0,1.1296033999997235,-38.0
12,lyt,f,21,r,1,(172.20000000000002, 0.0),21,-3,11,yes,x,5,m,1.6081464000008054,0,19,prac,0,1.6082463000002463,-48.0
12,lyt,f,21,r,1,(-121.76378772032352, -121.76378772032348),26,-5,12,yes,x,5,x,0.7434288999993441,1,20,prac,0,0.743669200000113,-50.0
12,lyt,f,21,r,1,(1.0544208940658713e-14, 172.20000000000002),23,-7,13,yes,x,5,x,0.6338025000004563,1,1,test1,1,0.6338965000004464,-52.0
12,lyt,f,21,r,1,(121.76378772032349, 121.76378772032349),22,-7,13,yes,x,5,x,0.5268492000004699,1,2,test1,1,0.527001499999642,-52.0
12,lyt,f,21,r,1,(172.20000000000002, 0.0),21,-25,14,no,m,6,x,0.5621002999996563,0,3,test1,1,0.5623868000002403,-52.0
12,lyt,f,21,r,1,(1.0544208940658713e-14, 172.20000000000002),23,25,4,yes,x,5,x,0.46887580000020534,1,4,test1,1,0.4691683999999441,-20.0
12,lyt,f,21,r,1,(1.0544208940658713e-14, 172.20000000000002),23,5,2,no,m,6,x,1.0827242999994269,0,5,test1,1,1.0829637999995612,-20.0
12,lyt,f,21,r,1,(-172.20000000000002, 2.1088417881317425e-14),25,-7,13,yes,x,5,x,0.6003234999998313,1,6,test1,1,0.6005334999999832,-52.0
12,lyt,f,21,r,1,(121.76378772032346, -121.76378772032352),28,5,2,yes,x,5,m,0.9318099000001894,0,7,test1,1,0.9319435000006706,-40.0
12,lyt,f,21,r,1,(121.76378772032346, -121.76378772032352),28,-7,13,yes,x,5,m,0.9427765000000363,0,8,test1,1,0.9430479000002379,-52.0
12,lyt,f,21,r,1,(121.76378772032349, 121.76378772032349),22,5,2,no,m,6,x,1.045150800000556,0,9,test1,1,1.0454560000007405,-52.0
12,lyt,f,21,r,1,(-172.20000000000002, 2.1088417881317425e-14),25,5,2,yes,x,5,x,0.5697860999998738,1,10,test1,1,0.5699304999998276,-40.0
12,lyt,f,21,r,1,(172.20000000000002, 0.0),21,-7,13,no,m,6,m,0.7433487999996942,1,11,test1,1,0.7434873000001971,-40.0
12,lyt,f,21,r,1,(1.0544208940658713e-14, 172.20000000000002),23,5,2,yes,x,5,m,0.9381405000003724,0,12,test1,1,0.9386708000001818,-40.0
12,lyt,f,21,r,1,(1.0544208940658713e-14, 172.20000000000002),23,-7,13,yes,x,5,x,0.5522390000005544,1,13,test1,1,0.5526786000000357,-52.0
12,lyt,f,21,r,1,(-121.76378772032352, -121.76378772032348),26,-7,13,no,m,6,x,1.128367199999957,0,14,test1,1,1.1284997000002477,-52.0
12,lyt,f,21,r,1,(121.76378772032346, -121.76378772032352),28,-25,14,no,m,6,m,1.5170271999995748,1,15,test1,1,1.5173581000008198,-52.0
12,lyt,f,21,r,1,(-3.163262682197613e-14, -172.20000000000002),27,25,4,no,m,6,m,1.894362000000001,1,16,test1,1,1.8948238000002675,-52.0
12,lyt,f,21,r,1,(-121.76378772032348, 121.76378772032349),24,7,3,no,m,6,m,1.9472672000001694,1,17,test1,1,1.9474832000005335,-52.0
12,lyt,f,21,r,1,(172.20000000000002, 0.0),21,25,4,yes,x,5,x,0.5046057000008659,1,18,test1,1,0.504752499999995,-20.0
12,lyt,f,21,r,1,(121.76378772032346, -121.76378772032352),28,-25,14,yes,x,5,x,0.5250673000000461,1,19,test1,1,0.5256339999996271,-70.0
12,lyt,f,21,r,1,(121.76378772032346, -121.76378772032352),28,25,4,yes,x,5,x,0.48355480000009265,1,20,test1,1,0.48378970000067056,-20.0
12,lyt,f,21,r,1,(-172.20000000000002, 2.1088417881317425e-14),25,-5,12,no,m,6,m,1.4994104999996125,1,21,test1,1,1.4995773000000554,-20.0
12,lyt,f,21,r,1,(-121.76378772032352, -121.76378772032348),26,3,1,yes,x,5,m,1.1242271000000983,0,22,test1,1,1.1243394000002809,-42.0
12,lyt,f,21,r,1,(-3.163262682197613e-14, -172.20000000000002),27,7,3,yes,x,5,x,0.5352578000001813,1,23,test1,1,0.5355518999995184,-38.0
12,lyt,f,21,r,1,(172.20000000000002, 0.0),21,-25,14,yes,x,5,x,0.4746016999997664,1,24,test1,1,0.47489299999961077,-70.0
12,lyt,f,21,r,1,(-121.76378772032352, -121.76378772032348),26,-5,12,yes,x,5,m,1.0194087999998374,0,25,test1,1,1.019509000000653,-50.0
12,lyt,f,21,r,1,(121.76378772032349, 121.76378772032349),22,5,2,yes,x,5,m,1.163690499999575,0,26,test1,1,1.164438799999516,-40.0
12,lyt,f,21,r,1,(121.76378772032346, -121.76378772032352),28,3,1,no,m,6,x,1.3658579000002646,0,27,test1,1,1.3668993999999657,-40.0
12,lyt,f,21,r,1,(-121.76378772032348, 121.76378772032349),24,3,1,yes,x,5,m,0.8956451000003653,0,28,test1,1,0.895792999999685,-42.0
12,lyt,f,21,r,1,(-121.76378772032352, -121.76378772032348),26,25,4,yes,x,5,x,0.4139701000003697,1,29,test1,1,0.4140693999997893,-20.0
12,lyt,f,21,r,1,(121.76378772032349, 121.76378772032349),22,7,3,yes,x,5,x,0.5235790999995515,1,30,test1,1,0.5239655999994284,-38.0
12,lyt,f,21,r,1,(1.0544208940658713e-14, 172.20000000000002),23,-5,12,yes,x,5,x,0.6831442000002426,1,31,test1,1,0.6833862000003137,-50.0
12,lyt,f,21,r,1,(-3.163262682197613e-14, -172.20000000000002),27,25,4,yes,x,5,x,0.45917499999995925,1,32,test1,1,0.4594495999999708,-20.0
12,lyt,f,21,r,1,(-172.20000000000002, 2.1088417881317425e-14),25,-3,11,yes,x,5,x,1.4942746999995506,1,33,test1,1,1.4944267999999283,-48.0
12,lyt,f,21,r,1,(172.20000000000002, 0.0),21,5,2,yes,x,5,x,0.6634225000007063,1,34,test1,1,0.6638567999998486,-40.0
12,lyt,f,21,r,1,(121.76378772032346, -121.76378772032352),28,3,1,yes,x,5,x,1.267299500000263,1,35,test1,1,1.2675236999994013,-42.0
12,lyt,f,21,r,1,(-172.20000000000002, 2.1088417881317425e-14),25,3,1,no,m,6,m,1.5105300000004718,1,36,test1,1,1.5106305000008433,-42.0
12,lyt,f,21,r,1,(-121.76378772032348, 121.76378772032349),24,-7,13,yes,x,5,x,1.083701800000199,1,37,test1,1,1.0838284999999814,-52.0
12,lyt,f,21,r,1,(-3.163262682197613e-14, -172.20000000000002),27,3,1,no,m,6,m,1.8054584000001341,1,38,test1,1,1.8056559000006018,-52.0
12,lyt,f,21,r,1,(-3.163262682197613e-14, -172.20000000000002),27,3,1,yes,x,5,None,None,0,39,test1,1,1.980088700000124,-42.0
12,lyt,f,21,r,1,(-3.163262682197613e-14, -172.20000000000002),27,-3,11,yes,x,5,x,1.1361735999998928,1,40,test1,1,1.1364027999998143,-48.0
12,lyt,f,21,r,1,(121.76378772032349, 121.76378772032349),22,-3,11,no,m,6,m,1.5798344000004363,1,41,test1,1,1.57993660000011,-48.0
12,lyt,f,21,r,1,(121.76378772032349, 121.76378772032349),22,-25,14,yes,x,5,x,0.5374911999997494,1,42,test1,1,0.5379001000001153,-70.0
12,lyt,f,21,r,1,(-172.20000000000002, 2.1088417881317425e-14),25,-25,14,no,m,6,m,1.676726100000451,1,43,test1,1,1.6771884999998292,-70.0
12,lyt,f,21,r,1,(121.76378772032346, -121.76378772032352),28,25,4,no,m,6,x,1.4092933000001722,0,44,test1,1,1.409515599999395,-70.0
12,lyt,f,21,r,1,(121.76378772032346, -121.76378772032352),28,3,1,yes,x,5,m,1.754248799999914,0,45,test1,1,1.7546557000005123,-42.0
12,lyt,f,21,r,1,(-3.163262682197613e-14, -172.20000000000002),27,3,1,yes,x,5,x,1.1539126000006945,1,46,test1,1,1.1542939999999362,-42.0
12,lyt,f,21,r,1,(121.76378772032346, -121.76378772032352),28,-5,12,yes,x,5,x,1.8384870999998384,1,47,test1,1,1.8388230999998996,-50.0
12,lyt,f,21,r,1,(121.76378772032349, 121.76378772032349),22,-3,11,yes,x,5,x,0.8583582000001115,1,48,test1,1,0.8584722000005058,-48.0
12,lyt,f,21,r,1,(1.0544208940658713e-14, 172.20000000000002),23,-3,11,yes,x,5,x,1.3053270000000339,1,49,test1,1,1.3054314000000886,-48.0
12,lyt,f,21,r,1,(121.76378772032349, 121.76378772032349),22,-25,14,no,m,6,m,1.7518627999997989,1,50,test1,1,1.7521058000002085,-48.0
12,lyt,f,21,r,1,(-121.76378772032352, -121.76378772032348),26,-25,14,yes,x,5,x,0.5099817000000257,1,51,test1,1,0.5101544999997714,-70.0
12,lyt,f,21,r,1,(-172.20000000000002, 2.1088417881317425e-14),25,25,4,no,m,6,m,0.8007620000007591,1,52,test1,1,0.800861800000348,-70.0
12,lyt,f,21,r,1,(-172.20000000000002, 2.1088417881317425e-14),25,7,3,yes,x,5,x,0.4846196999997119,1,53,test1,1,0.4851010000002134,-38.0
12,lyt,f,21,r,1,(172.20000000000002, 0.0),21,25,4,yes,x,5,x,0.5184922000007646,1,54,test1,1,0.5187765000000581,-20.0
12,lyt,f,21,r,1,(172.20000000000002, 0.0),21,7,3,yes,x,5,x,0.5005750999998781,1,55,test1,1,0.5006754000005458,-38.0
12,lyt,f,21,r,1,(-121.76378772032348, 121.76378772032349),24,-7,13,no,m,6,x,1.2054494000003615,0,56,test1,1,1.20565280000028,-38.0
12,lyt,f,21,r,1,(-121.76378772032348, 121.76378772032349),24,-7,13,yes,x,5,x,0.49171039999964705,1,57,test1,1,0.4918234000006123,-52.0
12,lyt,f,21,r,1,(-3.163262682197613e-14, -172.20000000000002),27,7,3,no,m,6,m,0.813546999999744,1,58,test1,1,0.8136506999999256,-52.0
12,lyt,f,21,r,1,(1.0544208940658713e-14, 172.20000000000002),23,-25,14,yes,x,5,x,0.44612659999984317,1,59,test1,1,0.4462844999998197,-70.0
12,lyt,f,21,r,1,(172.20000000000002, 0.0),21,3,1,yes,x,5,m,1.341508800000156,0,60,test1,1,1.3417807000005268,-42.0
12,lyt,f,21,r,1,(-3.163262682197613e-14, -172.20000000000002),27,-25,14,yes,x,5,x,0.39278939999985596,1,61,test1,1,0.3929183999998713,-70.0
12,lyt,f,21,r,1,(-121.76378772032352, -121.76378772032348),26,3,1,yes,x,5,m,1.579718099999809,0,62,test1,1,1.5802300000004834,-42.0
12,lyt,f,21,r,1,(1.0544208940658713e-14, 172.20000000000002),23,-7,13,no,m,6,x,1.5916876999999658,0,63,test1,1,1.5921431999995548,-42.0
12,lyt,f,21,r,1,(1.0544208940658713e-14, 172.20000000000002),23,3,1,yes,x,5,x,1.283005399999638,1,64,test1,1,1.2831249999999272,-42.0
12,lyt,f,21,r,1,(-121.76378772032348, 121.76378772032349),24,5,2,no,m,6,x,1.2621318999999858,0,65,test1,1,1.2626721999995425,-42.0
12,lyt,f,21,r,1,(-172.20000000000002, 2.1088417881317425e-14),25,5,2,yes,x,5,x,0.6256985999998506,1,66,test1,1,0.6259268000003431,-40.0
12,lyt,f,21,r,1,(-121.76378772032348, 121.76378772032349),24,7,3,yes,x,5,x,0.5964303999999174,1,67,test1,1,0.5965579000003345,-38.0
12,lyt,f,21,r,1,(121.76378772032349, 121.76378772032349),22,-7,13,yes,x,5,x,0.4851816999998846,1,68,test1,1,0.4852967999995599,-52.0
12,lyt,f,21,r,1,(-121.76378772032352, -121.76378772032348),26,5,2,no,m,6,m,1.616574099999525,1,69,test1,1,1.6170503999992434,-52.0
12,lyt,f,21,r,1,(-121.76378772032352, -121.76378772032348),26,5,2,yes,x,5,x,1.3203984000001583,1,70,test1,1,1.320626099999572,-40.0
12,lyt,f,21,r,1,(-121.76378772032352, -121.76378772032348),26,25,4,no,m,6,m,0.5899912000004406,1,71,test1,1,0.5900959000000512,-40.0
12,lyt,f,21,r,1,(-121.76378772032352, -121.76378772032348),26,-7,13,yes,x,5,x,0.447658500000216,1,72,test1,1,0.44796390000010433,-52.0
12,lyt,f,21,r,1,(-172.20000000000002, 2.1088417881317425e-14),25,-5,12,yes,x,5,x,0.4491269000000102,1,73,test1,1,0.4492219000003388,-50.0
12,lyt,f,21,r,1,(172.20000000000002, 0.0),21,3,1,yes,x,5,m,0.6643183000005592,0,74,test1,1,0.6645076000004337,-42.0
12,lyt,f,21,r,1,(-3.163262682197613e-14, -172.20000000000002),27,-5,12,yes,x,5,x,0.4944855000003372,1,75,test1,1,0.4947175999996034,-50.0
12,lyt,f,21,r,1,(121.76378772032349, 121.76378772032349),22,-5,12,yes,x,5,x,1.421599000000242,1,76,test1,1,1.4217544999992242,-50.0
12,lyt,f,21,r,1,(1.0544208940658713e-14, 172.20000000000002),23,25,4,no,m,6,m,1.3372855999996318,1,77,test1,1,1.3374862999999095,-50.0
12,lyt,f,21,r,1,(-121.76378772032352, -121.76378772032348),26,3,1,no,m,6,m,1.6476063000000067,1,78,test1,1,1.648040399999445,-50.0
12,lyt,f,21,r,1,(121.76378772032349, 121.76378772032349),22,3,1,yes,x,5,x,1.2847915000002104,1,79,test1,1,1.284927300000163,-42.0
12,lyt,f,21,r,1,(-172.20000000000002, 2.1088417881317425e-14),25,5,2,no,m,6,None,None,0,80,test1,1,1.9800844999999754,-42.0
12,lyt,f,21,r,1,(172.20000000000002, 0.0),21,-25,14,yes,x,5,x,0.5330057000001034,1,81,test1,1,0.5331624000000375,-70.0
12,lyt,f,21,r,1,(-3.163262682197613e-14, -172.20000000000002),27,-5,12,yes,x,5,m,0.8762116999996579,0,82,test1,1,0.8763373000001593,-50.0
12,lyt,f,21,r,1,(-172.20000000000002, 2.1088417881317425e-14),25,25,4,yes,x,5,x,0.39513799999986077,1,83,test1,1,0.3952991000005568,-20.0
12,lyt,f,21,r,1,(-172.20000000000002, 2.1088417881317425e-14),25,-25,14,yes,x,5,x,0.3584085000002233,1,84,test1,1,0.3586912000000666,-70.0
12,lyt,f,21,r,1,(172.20000000000002, 0.0),21,-5,12,yes,x,5,x,0.46712850000039907,1,85,test1,1,0.46738160000040807,-50.0
12,lyt,f,21,r,1,(1.0544208940658713e-14, 172.20000000000002),23,3,1,yes,x,5,x,0.7664507999998023,1,86,test1,1,0.7665621999994983,-42.0
12,lyt,f,21,r,1,(1.0544208940658713e-14, 172.20000000000002),23,7,3,yes,x,5,x,0.8256861999998364,1,87,test1,1,0.8259459999999308,-38.0
12,lyt,f,21,r,1,(-121.76378772032348, 121.76378772032349),24,-5,12,yes,x,5,None,None,0,88,test1,1,1.9800822999995944,-50.0
12,lyt,f,21,r,1,(-3.163262682197613e-14, -172.20000000000002),27,5,2,yes,x,5,x,0.5758396999999604,1,89,test1,1,0.5762176999996882,-40.0
12,lyt,f,21,r,1,(-121.76378772032348, 121.76378772032349),24,7,3,yes,x,5,x,0.5036202999999659,1,90,test1,1,0.5040496999999959,-38.0
12,lyt,f,21,r,1,(-121.76378772032348, 121.76378772032349),24,3,1,no,m,6,m,1.273381199999676,1,91,test1,1,1.273591099999976,-38.0
12,lyt,f,21,r,1,(121.76378772032346, -121.76378772032352),28,7,3,yes,x,5,x,0.8371128000007957,1,92,test1,1,0.83744839999963,-38.0
12,lyt,f,21,r,1,(-121.76378772032348, 121.76378772032349),24,-3,11,yes,x,5,x,1.2760471999999936,1,93,test1,1,1.276232600000185,-48.0
12,lyt,f,21,r,1,(172.20000000000002, 0.0),21,5,2,yes,x,5,x,0.7501193999996758,1,94,test1,1,0.7503182000000379,-40.0
12,lyt,f,21,r,1,(1.0544208940658713e-14, 172.20000000000002),23,-5,12,yes,x,5,x,0.8853331999998773,1,95,test1,1,0.8859225000005608,-50.0
12,lyt,f,21,r,1,(121.76378772032346, -121.76378772032352),28,-5,12,yes,x,5,m,1.0629213000001982,0,96,test1,1,1.063048600000002,-50.0
12,lyt,f,21,r,1,(-3.163262682197613e-14, -172.20000000000002),27,-3,11,no,m,6,x,1.1061067999999068,0,1,test2,1,1.1062390999995841,-50.0
12,lyt,f,21,r,1,(-172.20000000000002, 2.1088417881317425e-14),25,-3,11,yes,x,5,m,0.8857374999997774,0,2,test2,1,0.8860862999999881,-48.0
12,lyt,f,21,r,1,(121.76378772032349, 121.76378772032349),22,25,4,no,m,6,x,1.301431899999443,0,3,test2,1,1.3017581000003702,-48.0
12,lyt,f,21,r,1,(172.20000000000002, 0.0),21,-5,12,no,m,6,x,0.7958007000006546,0,4,test2,1,0.7960549999997966,-48.0
12,lyt,f,21,r,1,(-121.76378772032352, -121.76378772032348),26,5,2,yes,x,5,m,1.4210466999993514,0,5,test2,1,1.4217658999996274,-40.0
12,lyt,f,21,r,1,(121.76378772032346, -121.76378772032352),28,-7,13,no,m,6,m,1.0847764999998617,1,6,test2,1,1.0848902000007001,-40.0
12,lyt,f,21,r,1,(-3.163262682197613e-14, -172.20000000000002),27,7,3,yes,x,5,x,0.469252900000356,1,7,test2,1,0.46938310000041383,-38.0
12,lyt,f,21,r,1,(121.76378772032346, -121.76378772032352),28,-3,11,no,m,6,m,0.934195699999691,1,8,test2,1,0.9343868999994811,-38.0
12,lyt,f,21,r,1,(-121.76378772032348, 121.76378772032349),24,5,2,yes,x,5,x,0.8814752999996927,1,9,test2,1,0.8816981999998461,-40.0
12,lyt,f,21,r,1,(1.0544208940658713e-14, 172.20000000000002),23,-3,11,no,m,6,x,0.5690844999999172,0,10,test2,1,0.5693053000004511,-40.0
12,lyt,f,21,r,1,(-121.76378772032352, -121.76378772032348),26,-7,13,yes,x,5,x,0.7723912999999811,1,11,test2,1,0.7725035000003118,-52.0
12,lyt,f,21,r,1,(121.76378772032349, 121.76378772032349),22,-25,14,yes,x,5,x,0.5088201000007757,1,12,test2,1,0.5089404000000286,-70.0
12,lyt,f,21,r,1,(121.76378772032349, 121.76378772032349),22,3,1,no,m,6,m,1.2272163999996337,1,13,test2,1,1.2273397999997542,-70.0
12,lyt,f,21,r,1,(-121.76378772032352, -121.76378772032348),26,-5,12,yes,x,5,x,0.4706231999998636,1,14,test2,1,0.47072599999955855,-50.0
12,lyt,f,21,r,1,(121.76378772032346, -121.76378772032352),28,5,2,no,m,6,x,0.5222783999997773,0,15,test2,1,0.5223939999996219,-50.0
12,lyt,f,21,r,1,(121.76378772032349, 121.76378772032349),22,7,3,no,m,6,m,1.024273799999719,1,16,test2,1,1.024430299999949,-50.0
12,lyt,f,21,r,1,(-172.20000000000002, 2.1088417881317425e-14),25,3,1,yes,x,5,x,1.09682630000043,1,17,test2,1,1.0969933000005767,-42.0
12,lyt,f,21,r,1,(121.76378772032346, -121.76378772032352),28,-3,11,yes,x,5,m,1.3263427000001684,0,18,test2,1,1.326673500000652,-48.0
12,lyt,f,21,r,1,(-172.20000000000002, 2.1088417881317425e-14),25,25,4,yes,x,5,x,0.43939099999988684,1,19,test2,1,0.439487999999983,-20.0
12,lyt,f,21,r,1,(121.76378772032346, -121.76378772032352),28,7,3,no,m,6,m,0.8887782000001607,1,20,test2,1,0.8888905000003433,-20.0
12,lyt,f,21,r,1,(121.76378772032346, -121.76378772032352),28,5,2,yes,x,5,x,0.8699015000001964,1,21,test2,1,0.8701596000000791,-40.0
12,lyt,f,21,r,1,(-121.76378772032348, 121.76378772032349),24,-3,11,no,m,6,m,1.0229317000002993,1,22,test2,1,1.0233714999994845,-40.0
12,lyt,f,21,r,1,(121.76378772032346, -121.76378772032352),28,-3,11,yes,x,5,m,0.8845331000002261,0,23,test2,1,0.8847728000000643,-48.0
12,lyt,f,21,r,1,(-121.76378772032348, 121.76378772032349),24,-25,14,yes,x,5,x,0.4296925000007832,1,24,test2,1,0.42980360000001383,-70.0
12,lyt,f,21,r,1,(172.20000000000002, 0.0),21,7,3,no,m,6,x,0.7449863000001642,0,25,test2,1,0.7451184999999896,-70.0
12,lyt,f,21,r,1,(121.76378772032349, 121.76378772032349),22,-3,11,yes,x,5,m,0.724554999999782,0,26,test2,1,0.7247627000006105,-48.0
12,lyt,f,21,r,1,(121.76378772032349, 121.76378772032349),22,-7,13,no,m,6,x,0.6507288000002518,0,27,test2,1,0.6508264000003692,-48.0
12,lyt,f,21,r,1,(121.76378772032346, -121.76378772032352),28,-25,14,yes,x,5,x,0.5107919000001857,1,28,test2,1,0.5110208000005514,-70.0
12,lyt,f,21,r,1,(-121.76378772032352, -121.76378772032348),26,7,3,yes,x,5,x,1.286369100000229,1,29,test2,1,1.2865290999998251,-38.0
12,lyt,f,21,r,1,(172.20000000000002, 0.0),21,-3,11,no,m,6,m,0.7520276000004742,1,30,test2,1,0.7522794999995313,-38.0
12,lyt,f,21,r,1,(-172.20000000000002, 2.1088417881317425e-14),25,-7,13,yes,x,5,x,0.5951611000000412,1,31,test2,1,0.5952737000006891,-52.0
12,lyt,f,21,r,1,(-121.76378772032352, -121.76378772032348),26,-5,12,no,m,6,x,1.3025873000005959,0,32,test2,1,1.3027595000003203,-52.0
12,lyt,f,21,r,1,(-3.163262682197613e-14, -172.20000000000002),27,5,2,yes,x,5,x,0.4776015000006737,1,33,test2,1,0.4777017000005799,-40.0
12,lyt,f,21,r,1,(1.0544208940658713e-14, 172.20000000000002),23,3,1,no,m,6,m,0.8214045000004262,1,34,test2,1,0.8216394999999466,-40.0
12,lyt,f,21,r,1,(-121.76378772032348, 121.76378772032349),24,-5,12,yes,x,5,x,0.5243259999997463,1,35,test2,1,0.5247152000001734,-50.0
12,lyt,f,21,r,1,(-3.163262682197613e-14, -172.20000000000002),27,-7,13,no,m,6,x,0.7391230000002906,0,36,test2,1,0.7393427999995765,-50.0
12,lyt,f,21,r,1,(-121.76378772032348, 121.76378772032349),24,-25,14,no,m,6,x,0.5038306999995257,0,37,test2,1,0.5040546999998696,-50.0
12,lyt,f,21,r,1,(-3.163262682197613e-14, -172.20000000000002),27,-25,14,yes,x,5,x,0.4503737999993973,1,38,test2,1,0.4506035999993401,-70.0
12,lyt,f,21,r,1,(121.76378772032346, -121.76378772032352),28,7,3,yes,x,5,x,1.0267951999994693,1,39,test2,1,1.027032799999688,-38.0
12,lyt,f,21,r,1,(172.20000000000002, 0.0),21,-7,13,yes,x,5,x,0.6775238999998692,1,40,test2,1,0.6776244000002407,-52.0
12,lyt,f,21,r,1,(172.20000000000002, 0.0),21,-7,13,yes,x,5,x,0.7127606000003652,1,41,test2,1,0.7128591999999117,-52.0
12,lyt,f,21,r,1,(-172.20000000000002, 2.1088417881317425e-14),25,3,1,yes,x,5,x,1.0505198999999266,1,42,test2,1,1.0507257999997819,-42.0
12,lyt,f,21,r,1,(172.20000000000002, 0.0),21,-5,12,yes,x,5,x,0.5074807999999393,1,43,test2,1,0.5075794000003953,-50.0
12,lyt,f,21,r,1,(-121.76378772032352, -121.76378772032348),26,-25,14,no,m,6,m,0.6907492000000275,1,44,test2,1,0.6908765999996831,-50.0
12,lyt,f,21,r,1,(-3.163262682197613e-14, -172.20000000000002),27,-5,12,no,m,6,m,0.8801990000001751,1,45,test2,1,0.8804389999995692,-50.0
12,lyt,f,21,r,1,(-172.20000000000002, 2.1088417881317425e-14),25,-25,14,yes,x,5,x,0.4871819999998479,1,46,test2,1,0.4874590999997963,-70.0
12,lyt,f,21,r,1,(1.0544208940658713e-14, 172.20000000000002),23,7,3,yes,x,5,x,0.4348146000002089,1,47,test2,1,0.4349350000002232,-38.0
12,lyt,f,21,r,1,(-121.76378772032352, -121.76378772032348),26,-25,14,yes,x,5,x,0.4218215999999302,1,48,test2,1,0.42192030000023806,-70.0
12,lyt,f,21,r,1,(1.0544208940658713e-14, 172.20000000000002),23,5,2,yes,x,5,x,0.7992322000000058,1,49,test2,1,0.7997268999997686,-40.0
12,lyt,f,21,r,1,(1.0544208940658713e-14, 172.20000000000002),23,-3,11,yes,x,5,x,0.5230910999998741,1,50,test2,1,0.5232053999998243,-48.0
12,lyt,f,21,r,1,(-172.20000000000002, 2.1088417881317425e-14),25,-3,11,no,m,6,m,0.5949715999995533,1,51,test2,1,0.5951478000006318,-48.0
12,lyt,f,21,r,1,(-121.76378772032348, 121.76378772032349),24,-5,12,no,m,6,m,0.6056201000001238,1,52,test2,1,0.6058432999998331,-48.0
12,lyt,f,21,r,1,(121.76378772032349, 121.76378772032349),22,25,4,yes,x,5,x,0.41395789999933186,1,53,test2,1,0.41405269999995653,-20.0
12,lyt,f,21,r,1,(-172.20000000000002, 2.1088417881317425e-14),25,-5,12,yes,x,5,x,0.4555028000004313,1,54,test2,1,0.45562559999962104,-50.0
12,lyt,f,21,r,1,(-121.76378772032352, -121.76378772032348),26,-3,11,no,m,6,m,0.6699176000001899,1,55,test2,1,0.670356300000094,-50.0
12,lyt,f,21,r,1,(172.20000000000002, 0.0),21,3,1,no,m,6,m,0.7966323000000557,1,56,test2,1,0.797057799999493,-50.0
12,lyt,f,21,r,1,(-121.76378772032352, -121.76378772032348),26,-3,11,yes,x,5,x,0.5289922000001752,1,57,test2,1,0.5293847000002643,-48.0
12,lyt,f,21,r,1,(1.0544208940658713e-14, 172.20000000000002),23,-25,14,no,m,6,m,0.6767600000002858,1,58,test2,1,0.6768617000006998,-48.0
12,lyt,f,21,r,1,(172.20000000000002, 0.0),21,25,4,no,m,6,m,0.6194335000000137,1,59,test2,1,0.6195558999997957,-48.0
12,lyt,f,21,r,1,(1.0544208940658713e-14, 172.20000000000002),23,25,4,yes,x,5,x,0.5050117000000682,1,60,test2,1,0.5051747999996223,-20.0
12,lyt,f,21,r,1,(121.76378772032349, 121.76378772032349),22,25,4,yes,x,5,x,0.44914950000020326,1,61,test2,1,0.44939849999991566,-20.0
12,lyt,f,21,r,1,(-121.76378772032348, 121.76378772032349),24,25,4,yes,x,5,x,0.3720843999999488,1,62,test2,1,0.37237809999987803,-20.0
12,lyt,f,21,r,1,(-121.76378772032348, 121.76378772032349),24,25,4,no,m,6,m,0.8527725000003556,1,63,test2,1,0.8529213000001619,-20.0
12,lyt,f,21,r,1,(1.0544208940658713e-14, 172.20000000000002),23,7,3,no,m,6,m,0.847657799999979,1,64,test2,1,0.8478671000002578,-20.0
12,lyt,f,21,r,1,(-121.76378772032348, 121.76378772032349),24,5,2,yes,x,5,m,0.5422925999992003,0,65,test2,1,0.5427080999997997,-40.0
12,lyt,f,21,r,1,(-3.163262682197613e-14, -172.20000000000002),27,-3,11,yes,x,5,m,0.8239624999996522,0,66,test2,1,0.8240866999994978,-48.0
12,lyt,f,21,r,1,(172.20000000000002, 0.0),21,-3,11,yes,x,5,x,0.8929107000003569,1,67,test2,1,0.8930085000001782,-48.0
12,lyt,f,21,r,1,(-3.163262682197613e-14, -172.20000000000002),27,-7,13,yes,x,5,x,0.5154413000000204,1,68,test2,1,0.5157637000002069,-52.0
12,lyt,f,21,r,1,(-121.76378772032348, 121.76378772032349),24,25,4,yes,x,5,x,0.37517790000038076,1,69,test2,1,0.37531659999967815,-20.0
12,lyt,f,21,r,1,(121.76378772032349, 121.76378772032349),22,-5,12,no,m,6,m,1.0783656000003248,1,70,test2,1,1.0786726000005729,-20.0
12,lyt,f,21,r,1,(-121.76378772032352, -121.76378772032348),26,7,3,no,m,6,x,0.8337770999996792,0,71,test2,1,0.8339024999995672,-20.0
12,lyt,f,21,r,1,(172.20000000000002, 0.0),21,-3,11,yes,x,5,x,0.8328403000004982,1,72,test2,1,0.8329896000004737,-48.0
12,lyt,f,21,r,1,(-3.163262682197613e-14, -172.20000000000002),27,-7,13,yes,x,5,x,0.4730704000003243,1,73,test2,1,0.47318580000046495,-52.0
12,lyt,f,21,r,1,(121.76378772032349, 121.76378772032349),22,7,3,yes,x,5,x,0.4690152000002854,1,74,test2,1,0.4692358000002059,-38.0
12,lyt,f,21,r,1,(121.76378772032349, 121.76378772032349),22,-5,12,yes,x,5,x,0.4002724000001763,1,75,test2,1,0.4004821999997148,-50.0
12,lyt,f,21,r,1,(-121.76378772032352, -121.76378772032348),26,25,4,yes,x,5,x,0.43154039999990346,1,76,test2,1,0.4318309999998746,-20.0
12,lyt,f,21,r,1,(-172.20000000000002, 2.1088417881317425e-14),25,7,3,yes,x,5,x,0.4088418000001184,1,77,test2,1,0.4090185000004567,-38.0
12,lyt,f,21,r,1,(-3.163262682197613e-14, -172.20000000000002),27,25,4,yes,x,5,x,0.3895496999994066,1,78,test2,1,0.3898629000004803,-20.0
12,lyt,f,21,r,1,(1.0544208940658713e-14, 172.20000000000002),23,-25,14,yes,x,5,x,0.387613799999599,1,79,test2,1,0.3877433999996356,-70.0
12,lyt,f,21,r,1,(-121.76378772032348, 121.76378772032349),24,-3,11,yes,x,5,m,0.6947761999999784,0,80,test2,1,0.6950082000003022,-48.0
12,lyt,f,21,r,1,(-3.163262682197613e-14, -172.20000000000002),27,5,2,no,m,6,x,1.0111217000003307,0,81,test2,1,1.0112220000000889,-48.0
12,lyt,f,21,r,1,(121.76378772032346, -121.76378772032352),28,-7,13,yes,x,5,x,0.7387489000002461,1,82,test2,1,0.7393926000004285,-52.0
12,lyt,f,21,r,1,(121.76378772032349, 121.76378772032349),22,5,2,yes,x,5,x,0.48265429999992193,1,83,test2,1,0.4827962999997908,-40.0
12,lyt,f,21,r,1,(121.76378772032349, 121.76378772032349),22,3,1,yes,x,5,m,0.8349926999999298,0,84,test2,1,0.8350926000002801,-42.0
12,lyt,f,21,r,1,(-121.76378772032348, 121.76378772032349),24,3,1,yes,x,5,x,0.6802352000004248,1,85,test2,1,0.680356999999276,-42.0
12,lyt,f,21,r,1,(1.0544208940658713e-14, 172.20000000000002),23,-5,12,no,m,6,x,1.1230299999997442,0,86,test2,1,1.123133200000666,-42.0
12,lyt,f,21,r,1,(-172.20000000000002, 2.1088417881317425e-14),25,-7,13,no,m,6,x,0.7545845000004192,0,87,test2,1,0.7548013000005085,-42.0
12,lyt,f,21,r,1,(172.20000000000002, 0.0),21,7,3,yes,x,5,x,0.5843970999994781,1,88,test2,1,0.5846222999998645,-38.0
12,lyt,f,21,r,1,(-172.20000000000002, 2.1088417881317425e-14),25,7,3,no,m,6,x,0.9512716999997792,0,89,test2,1,0.9514986999993198,-38.0
12,lyt,f,21,r,1,(-121.76378772032348, 121.76378772032349),24,-25,14,yes,x,5,x,0.4480438000000504,1,90,test2,1,0.44820200000049226,-70.0
12,lyt,f,21,r,1,(-3.163262682197613e-14, -172.20000000000002),27,-25,14,no,m,6,x,0.9208006999997451,0,91,test2,1,0.9209953999998106,-70.0
12,lyt,f,21,r,1,(121.76378772032346, -121.76378772032352),28,25,4,yes,x,5,m,0.5062426000004052,0,92,test2,1,0.5063577000000805,-20.0
12,lyt,f,21,r,1,(172.20000000000002, 0.0),21,5,2,no,m,6,x,0.8402106000003187,0,93,test2,1,0.8404288000001543,-20.0
12,lyt,f,21,r,1,(-121.76378772032352, -121.76378772032348),26,-3,11,yes,x,5,x,1.0263586999999461,1,94,test2,1,1.0264739999993253,-48.0
12,lyt,f,21,r,1,(121.76378772032346, -121.76378772032352),28,-5,12,no,m,6,m,0.7529849000002287,1,95,test2,1,0.7535572999995566,-48.0
12,lyt,f,21,r,1,(-121.76378772032352, -121.76378772032348),26,7,3,yes,x,5,x,0.8448787999996057,1,96,test2,1,0.8449814999994487,-38.0
12,lyt,f,21,r,1,(1.0544208940658713e-14, 172.20000000000002),23,-7,13,yes,x,5,x,0.5475766999998086,1,1,test1,2,0.5478130999999848,-52.0
12,lyt,f,21,r,1,(121.76378772032349, 121.76378772032349),22,-7,13,yes,x,5,x,0.4428968000001987,1,2,test1,2,0.4430027999997037,-52.0
12,lyt,f,21,r,1,(172.20000000000002, 0.0),21,-25,14,no,m,6,m,0.7818672999992486,1,3,test1,2,0.7820934999999736,-52.0
12,lyt,f,21,r,1,(1.0544208940658713e-14, 172.20000000000002),23,25,4,yes,x,5,x,0.4088670999999522,1,4,test1,2,0.4091023999999379,-20.0
12,lyt,f,21,r,1,(1.0544208940658713e-14, 172.20000000000002),23,5,2,no,m,6,x,0.867560699999558,0,5,test1,2,0.8676654000000781,-20.0
12,lyt,f,21,r,1,(-172.20000000000002, 2.1088417881317425e-14),25,-7,13,yes,x,5,x,0.5577025000002322,1,6,test1,2,0.5578323000008822,-52.0
12,lyt,f,21,r,1,(121.76378772032346, -121.76378772032352),28,5,2,yes,x,5,x,0.5464412999999695,1,7,test1,2,0.5465669000004709,-40.0
12,lyt,f,21,r,1,(121.76378772032346, -121.76378772032352),28,-7,13,yes,x,5,x,0.5713956999998118,1,8,test1,2,0.5716965000001437,-52.0
12,lyt,f,21,r,1,(121.76378772032349, 121.76378772032349),22,5,2,no,m,6,m,1.183306800000537,1,9,test1,2,1.1837014000002455,-52.0
12,lyt,f,21,r,1,(-172.20000000000002, 2.1088417881317425e-14),25,5,2,yes,x,5,x,0.4840632999994341,1,10,test1,2,0.48419170000033773,-40.0
12,lyt,f,21,r,1,(172.20000000000002, 0.0),21,-7,13,no,m,6,m,0.657680899999832,1,11,test1,2,0.6580106999999771,-40.0
12,lyt,f,21,r,1,(1.0544208940658713e-14, 172.20000000000002),23,5,2,yes,x,5,x,0.6834515000000465,1,12,test1,2,0.6841023000006317,-40.0
12,lyt,f,21,r,1,(1.0544208940658713e-14, 172.20000000000002),23,-7,13,yes,x,5,x,0.46717119999993884,1,13,test1,2,0.4674491999994643,-52.0
12,lyt,f,21,r,1,(-121.76378772032352, -121.76378772032348),26,-7,13,no,m,6,m,0.6620339000000968,1,14,test1,2,0.6625081000001956,-52.0
12,lyt,f,21,r,1,(121.76378772032346, -121.76378772032352),28,-25,14,no,m,6,m,0.7569258999992599,1,15,test1,2,0.7572625000002517,-52.0
12,lyt,f,21,r,1,(-3.163262682197613e-14, -172.20000000000002),27,25,4,no,m,6,m,0.7260430999995151,1,16,test1,2,0.7264226999996026,-52.0
12,lyt,f,21,r,1,(-121.76378772032348, 121.76378772032349),24,7,3,no,m,6,m,0.7587803999995231,1,17,test1,2,0.7589937000002465,-52.0
12,lyt,f,21,r,1,(172.20000000000002, 0.0),21,25,4,yes,x,5,x,0.46082770000066375,1,18,test1,2,0.4613186000005953,-20.0
12,lyt,f,21,r,1,(121.76378772032346, -121.76378772032352),28,-25,14,yes,x,5,x,0.5292174000005616,1,19,test1,2,0.5295073999996021,-70.0
12,lyt,f,21,r,1,(121.76378772032346, -121.76378772032352),28,25,4,yes,x,5,x,0.4292972000002919,1,20,test1,2,0.42983150000054593,-20.0
12,lyt,f,21,r,1,(-172.20000000000002, 2.1088417881317425e-14),25,-5,12,no,m,6,x,0.9327924999997776,0,21,test1,2,0.9330173999996987,-20.0
12,lyt,f,21,r,1,(-121.76378772032352, -121.76378772032348),26,3,1,yes,x,5,m,0.715559299999768,0,22,test1,2,0.7157022000001234,-42.0
12,lyt,f,21,r,1,(-3.163262682197613e-14, -172.20000000000002),27,7,3,yes,x,5,x,0.5071304000002783,1,23,test1,2,0.5072891999998319,-38.0
12,lyt,f,21,r,1,(172.20000000000002, 0.0),21,-25,14,yes,x,5,x,0.5427669000000606,1,24,test1,2,0.5430657000006249,-70.0
12,lyt,f,21,r,1,(-121.76378772032352, -121.76378772032348),26,-5,12,yes,x,5,m,1.2182509000003847,0,25,test1,2,1.2185646999996607,-50.0
12,lyt,f,21,r,1,(121.76378772032349, 121.76378772032349),22,5,2,yes,x,5,x,0.9315539999997782,1,26,test1,2,0.9316552000000229,-40.0
12,lyt,f,21,r,1,(121.76378772032346, -121.76378772032352),28,3,1,no,m,6,m,1.0504751999997097,1,27,test1,2,1.0505723999995098,-40.0
12,lyt,f,21,r,1,(-121.76378772032348, 121.76378772032349),24,3,1,yes,x,5,m,1.0659857999999076,0,28,test1,2,1.0662886000000071,-42.0
12,lyt,f,21,r,1,(-121.76378772032352, -121.76378772032348),26,25,4,yes,x,5,x,0.47622189999947295,1,29,test1,2,0.4763296999999511,-20.0
12,lyt,f,21,r,1,(121.76378772032349, 121.76378772032349),22,7,3,yes,x,5,x,0.8551324999998542,1,30,test1,2,0.8557618000004368,-38.0
12,lyt,f,21,r,1,(1.0544208940658713e-14, 172.20000000000002),23,-5,12,yes,x,5,m,1.2421913999996832,0,31,test1,2,1.242885199999364,-50.0
12,lyt,f,21,r,1,(-3.163262682197613e-14, -172.20000000000002),27,25,4,yes,x,5,x,0.45620750000034604,1,32,test1,2,0.45631980000052863,-20.0
12,lyt,f,21,r,1,(-172.20000000000002, 2.1088417881317425e-14),25,-3,11,yes,x,5,x,1.0964057999999568,1,33,test1,2,1.0966069000005518,-48.0
12,lyt,f,21,r,1,(172.20000000000002, 0.0),21,5,2,yes,x,5,x,0.6688592000000426,1,34,test1,2,0.6689562000001388,-40.0
12,lyt,f,21,r,1,(121.76378772032346, -121.76378772032352),28,3,1,yes,x,5,x,1.367066199999499,1,35,test1,2,1.3675660000008065,-42.0
12,lyt,f,21,r,1,(-172.20000000000002, 2.1088417881317425e-14),25,3,1,no,m,6,x,0.86783639999976,0,36,test1,2,0.8682370999995328,-42.0
12,lyt,f,21,r,1,(-121.76378772032348, 121.76378772032349),24,-7,13,yes,x,5,x,0.4635504000007131,1,37,test1,2,0.4636468999997305,-52.0
12,lyt,f,21,r,1,(-3.163262682197613e-14, -172.20000000000002),27,3,1,no,m,6,m,0.6560781999996834,1,38,test1,2,0.656319199999416,-52.0
12,lyt,f,21,r,1,(-3.163262682197613e-14, -172.20000000000002),27,3,1,yes,x,5,x,0.5599014999997962,1,39,test1,2,0.5602232999999615,-42.0
12,lyt,f,21,r,1,(-3.163262682197613e-14, -172.20000000000002),27,-3,11,yes,x,5,x,1.2628174999999828,1,40,test1,2,1.2632206999996924,-48.0
12,lyt,f,21,r,1,(121.76378772032349, 121.76378772032349),22,-3,11,no,m,6,m,1.034745699999803,1,41,test1,2,1.035148300000401,-48.0
12,lyt,f,21,r,1,(121.76378772032349, 121.76378772032349),22,-25,14,yes,x,5,x,0.47622539999974833,1,42,test1,2,0.4763262999995277,-70.0
12,lyt,f,21,r,1,(-172.20000000000002, 2.1088417881317425e-14),25,-25,14,no,m,6,m,0.9604244000001927,1,43,test1,2,0.9605522000001656,-70.0
12,lyt,f,21,r,1,(121.76378772032346, -121.76378772032352),28,25,4,no,m,6,m,0.5846515999992334,1,44,test1,2,0.5847633000003043,-70.0
12,lyt,f,21,r,1,(121.76378772032346, -121.76378772032352),28,3,1,yes,x,5,m,0.48914000000058877,0,45,test1,2,0.489564600000449,-42.0
12,lyt,f,21,r,1,(-3.163262682197613e-14, -172.20000000000002),27,3,1,yes,x,5,x,0.6855777000000671,1,46,test1,2,0.6858550999995714,-42.0
12,lyt,f,21,r,1,(121.76378772032346, -121.76378772032352),28,-5,12,yes,x,5,x,0.6429182000001674,1,47,test1,2,0.6430467000000135,-50.0
12,lyt,f,21,r,1,(121.76378772032349, 121.76378772032349),22,-3,11,yes,x,5,m,0.8840786000000662,0,48,test1,2,0.884184099999402,-48.0
12,lyt,f,21,r,1,(1.0544208940658713e-14, 172.20000000000002),23,-3,11,yes,x,5,m,0.9919441000001825,0,49,test1,2,0.9920387999991362,-48.0
12,lyt,f,21,r,1,(121.76378772032349, 121.76378772032349),22,-25,14,no,m,6,x,1.1664187999995193,0,50,test1,2,1.166578500000469,-48.0
12,lyt,f,21,r,1,(-121.76378772032352, -121.76378772032348),26,-25,14,yes,x,5,x,0.46513299999969604,1,51,test1,2,0.46526429999994434,-70.0
12,lyt,f,21,r,1,(-172.20000000000002, 2.1088417881317425e-14),25,25,4,no,m,6,x,1.0565268000000287,0,52,test1,2,1.0566421000003174,-70.0
12,lyt,f,21,r,1,(-172.20000000000002, 2.1088417881317425e-14),25,7,3,yes,x,5,x,0.5453165999997509,1,53,test1,2,0.5455708999998024,-38.0
12,lyt,f,21,r,1,(172.20000000000002, 0.0),21,25,4,yes,x,5,x,0.5291040000001885,1,54,test1,2,0.5294141999993371,-20.0
12,lyt,f,21,r,1,(172.20000000000002, 0.0),21,7,3,yes,x,5,x,0.46655660000033095,1,55,test1,2,0.4666590000006181,-38.0
12,lyt,f,21,r,1,(-121.76378772032348, 121.76378772032349),24,-7,13,no,m,6,x,1.4822472000005291,0,56,test1,2,1.4824244999999792,-38.0
12,lyt,f,21,r,1,(-121.76378772032348, 121.76378772032349),24,-7,13,yes,x,5,x,0.46319519999997283,1,57,test1,2,0.46350040000015724,-52.0
12,lyt,f,21,r,1,(-3.163262682197613e-14, -172.20000000000002),27,7,3,no,m,6,m,0.6327782000007574,1,58,test1,2,0.6330638999997973,-52.0
12,lyt,f,21,r,1,(1.0544208940658713e-14, 172.20000000000002),23,-25,14,yes,x,5,x,0.4566003999998429,1,59,test1,2,0.4567712999996729,-70.0
12,lyt,f,21,r,1,(172.20000000000002, 0.0),21,3,1,yes,x,5,x,1.243196600000374,1,60,test1,2,1.2435083999998824,-42.0
12,lyt,f,21,r,1,(-3.163262682197613e-14, -172.20000000000002),27,-25,14,yes,x,5,x,0.4652314999993905,1,61,test1,2,0.465466199999355,-70.0
12,lyt,f,21,r,1,(-121.76378772032352, -121.76378772032348),26,3,1,yes,x,5,m,0.7367652000002636,0,62,test1,2,0.7368738999994093,-42.0
12,lyt,f,21,r,1,(1.0544208940658713e-14, 172.20000000000002),23,-7,13,no,m,6,x,0.8366121999997631,0,63,test1,2,0.83696400000008,-42.0
12,lyt,f,21,r,1,(1.0544208940658713e-14, 172.20000000000002),23,3,1,yes,x,5,x,0.973160800000187,1,64,test1,2,0.9737912000000506,-42.0
12,lyt,f,21,r,1,(-121.76378772032348, 121.76378772032349),24,5,2,no,m,6,m,0.8359145000003991,1,65,test1,2,0.836030600000413,-42.0
12,lyt,f,21,r,1,(-172.20000000000002, 2.1088417881317425e-14),25,5,2,yes,x,5,x,0.4814102999998795,1,66,test1,2,0.48152119999940624,-40.0
12,lyt,f,21,r,1,(-121.76378772032348, 121.76378772032349),24,7,3,yes,x,5,x,0.5176289000000907,1,67,test1,2,0.5177415999996811,-38.0
12,lyt,f,21,r,1,(121.76378772032349, 121.76378772032349),22,-7,13,yes,x,5,x,0.5631026000000929,1,68,test1,2,0.5637500000002547,-52.0
12,lyt,f,21,r,1,(-121.76378772032352, -121.76378772032348),26,5,2,no,m,6,x,0.692900400000326,0,69,test1,2,0.6930374999992637,-52.0
12,lyt,f,21,r,1,(-121.76378772032352, -121.76378772032348),26,5,2,yes,x,5,x,0.8395570000002408,1,70,test1,2,0.839691700000003,-40.0
12,lyt,f,21,r,1,(-121.76378772032352, -121.76378772032348),26,25,4,no,m,6,m,1.2173743000003014,1,71,test1,2,1.2179672000002029,-40.0
12,lyt,f,21,r,1,(-121.76378772032352, -121.76378772032348),26,-7,13,yes,x,5,x,0.6403877000002467,1,72,test1,2,0.6406818000004932,-52.0
12,lyt,f,21,r,1,(-172.20000000000002, 2.1088417881317425e-14),25,-5,12,yes,x,5,x,0.7246688999994149,1,73,test1,2,0.7248082999994949,-50.0
12,lyt,f,21,r,1,(172.20000000000002, 0.0),21,3,1,yes,x,5,x,0.8082756000003428,1,74,test1,2,0.8083778000000166,-42.0
12,lyt,f,21,r,1,(-3.163262682197613e-14, -172.20000000000002),27,-5,12,yes,x,5,x,0.52355979999993,1,75,test1,2,0.523767499999849,-50.0
12,lyt,f,21,r,1,(121.76378772032349, 121.76378772032349),22,-5,12,yes,x,5,x,0.5297447000002649,1,76,test1,2,0.5301987000002555,-50.0
12,lyt,f,21,r,1,(1.0544208940658713e-14, 172.20000000000002),23,25,4,no,m,6,m,0.9234608000006119,1,77,test1,2,0.9235625999999684,-50.0
12,lyt,f,21,r,1,(-121.76378772032352, -121.76378772032348),26,3,1,no,m,6,m,1.216354400000455,1,78,test1,2,1.2164521999993667,-50.0
12,lyt,f,21,r,1,(121.76378772032349, 121.76378772032349),22,3,1,yes,x,5,x,1.0391195000001971,1,79,test1,2,1.0392686000004687,-42.0
12,lyt,f,21,r,1,(-172.20000000000002, 2.1088417881317425e-14),25,5,2,no,m,6,x,1.3632064000003083,0,80,test1,2,1.3633050999997067,-42.0
12,lyt,f,21,r,1,(172.20000000000002, 0.0),21,-25,14,yes,x,5,x,0.5381671000004644,1,81,test1,2,0.5384596999992937,-70.0
12,lyt,f,21,r,1,(-3.163262682197613e-14, -172.20000000000002),27,-5,12,yes,x,5,x,0.9695953000000372,1,82,test1,2,0.9698607000000266,-50.0
12,lyt,f,21,r,1,(-172.20000000000002, 2.1088417881317425e-14),25,25,4,yes,x,5,x,0.5157432000005429,1,83,test1,2,0.5159347000007983,-20.0
12,lyt,f,21,r,1,(-172.20000000000002, 2.1088417881317425e-14),25,-25,14,yes,x,5,x,0.43319140000039624,1,84,test1,2,0.43341959999997925,-70.0
12,lyt,f,21,r,1,(172.20000000000002, 0.0),21,-5,12,yes,x,5,x,0.5124327999992602,1,85,test1,2,0.5125349999998434,-50.0
12,lyt,f,21,r,1,(1.0544208940658713e-14, 172.20000000000002),23,3,1,yes,x,5,x,0.6906276999998227,1,86,test1,2,0.6907268000004478,-42.0
12,lyt,f,21,r,1,(1.0544208940658713e-14, 172.20000000000002),23,7,3,yes,x,5,x,0.4366019999997661,1,87,test1,2,0.4368040999997902,-38.0
12,lyt,f,21,r,1,(-121.76378772032348, 121.76378772032349),24,-5,12,yes,x,5,x,0.49983530000008614,1,88,test1,2,0.4999383000003945,-50.0
12,lyt,f,21,r,1,(-3.163262682197613e-14, -172.20000000000002),27,5,2,yes,x,5,x,0.5411764000000403,1,89,test1,2,0.5414230000005773,-40.0
12,lyt,f,21,r,1,(-121.76378772032348, 121.76378772032349),24,7,3,yes,x,5,x,0.43495809999967605,1,90,test1,2,0.43510479999986273,-38.0
12,lyt,f,21,r,1,(-121.76378772032348, 121.76378772032349),24,3,1,no,m,6,m,0.8027603000000454,1,91,test1,2,0.8028602000003957,-38.0
12,lyt,f,21,r,1,(121.76378772032346, -121.76378772032352),28,7,3,yes,x,5,x,0.5030667000000903,1,92,test1,2,0.5031981000001906,-38.0
12,lyt,f,21,r,1,(-121.76378772032348, 121.76378772032349),24,-3,11,yes,x,5,m,0.7734872999999425,0,93,test1,2,0.773582400000123,-48.0
12,lyt,f,21,r,1,(172.20000000000002, 0.0),21,5,2,yes,x,5,x,0.6094783999997162,1,94,test1,2,0.6096185999995214,-40.0
12,lyt,f,21,r,1,(1.0544208940658713e-14, 172.20000000000002),23,-5,12,yes,x,5,x,0.6251610999997865,1,95,test1,2,0.6253207000008842,-50.0
12,lyt,f,21,r,1,(121.76378772032346, -121.76378772032352),28,-5,12,yes,x,5,x,0.5157588000001851,1,96,test1,2,0.5159868000000642,-50.0
12,lyt,f,21,r,1,(-3.163262682197613e-14, -172.20000000000002),27,-3,11,no,m,6,m,0.6964930999993157,1,1,test2,2,0.6965934999998353,-50.0
12,lyt,f,21,r,1,(-172.20000000000002, 2.1088417881317425e-14),25,-3,11,yes,x,5,m,0.8759456999996473,0,2,test2,2,0.8761838999998872,-48.0
12,lyt,f,21,r,1,(121.76378772032349, 121.76378772032349),22,25,4,no,m,6,m,1.1054423000005045,1,3,test2,2,1.1055558000007295,-48.0
12,lyt,f,21,r,1,(172.20000000000002, 0.0),21,-5,12,no,m,6,m,0.8710766000003787,1,4,test2,2,0.8712041999997382,-48.0
12,lyt,f,21,r,1,(-121.76378772032352, -121.76378772032348),26,5,2,yes,x,5,x,0.5637798999996448,1,5,test2,2,0.5638852000001862,-40.0
12,lyt,f,21,r,1,(121.76378772032346, -121.76378772032352),28,-7,13,no,m,6,m,0.8738402999997561,1,6,test2,2,0.8741318000002138,-40.0
12,lyt,f,21,r,1,(-3.163262682197613e-14, -172.20000000000002),27,7,3,yes,x,5,x,0.4224101999998311,1,7,test2,2,0.4226470999992671,-38.0
12,lyt,f,21,r,1,(121.76378772032346, -121.76378772032352),28,-3,11,no,m,6,m,0.5643339999996897,1,8,test2,2,0.5645741999996972,-38.0
12,lyt,f,21,r,1,(-121.76378772032348, 121.76378772032349),24,5,2,yes,x,5,x,0.4004922999993141,1,9,test2,2,0.40121450000060577,-40.0
12,lyt,f,21,r,1,(1.0544208940658713e-14, 172.20000000000002),23,-3,11,no,m,6,x,0.9785670000001119,0,10,test2,2,0.9787936000002446,-40.0
12,lyt,f,21,r,1,(-121.76378772032352, -121.76378772032348),26,-7,13,yes,x,5,x,0.3894601000001785,1,11,test2,2,0.3895810000003621,-52.0
12,lyt,f,21,r,1,(121.76378772032349, 121.76378772032349),22,-25,14,yes,x,5,x,0.4013782000001811,1,12,test2,2,0.40161540000008245,-70.0
12,lyt,f,21,r,1,(121.76378772032349, 121.76378772032349),22,3,1,no,m,6,m,1.0932008999998288,1,13,test2,2,1.0935816000001068,-70.0
12,lyt,f,21,r,1,(-121.76378772032352, -121.76378772032348),26,-5,12,yes,x,5,x,0.5032853000002433,1,14,test2,2,0.5041074999999182,-50.0
12,lyt,f,21,r,1,(121.76378772032346, -121.76378772032352),28,5,2,no,m,6,m,1.1599054000007527,1,15,test2,2,1.1603639000004478,-50.0
12,lyt,f,21,r,1,(121.76378772032349, 121.76378772032349),22,7,3,no,m,6,m,0.736223599999903,1,16,test2,2,0.7364459999998871,-50.0
12,lyt,f,21,r,1,(-172.20000000000002, 2.1088417881317425e-14),25,3,1,yes,x,5,x,0.5296254999993835,1,17,test2,2,0.529929400000583,-42.0
12,lyt,f,21,r,1,(121.76378772032346, -121.76378772032352),28,-3,11,yes,x,5,m,0.7732022000000143,0,18,test2,2,0.773397599999953,-48.0
12,lyt,f,21,r,1,(-172.20000000000002, 2.1088417881317425e-14),25,25,4,yes,x,5,x,0.45782539999981964,1,19,test2,2,0.4580286000000342,-20.0
12,lyt,f,21,r,1,(121.76378772032346, -121.76378772032352),28,7,3,no,m,6,m,0.5798351000003095,1,20,test2,2,0.5800133000002461,-20.0
12,lyt,f,21,r,1,(121.76378772032346, -121.76378772032352),28,5,2,yes,x,5,x,0.673004299999775,1,21,test2,2,0.6731179000007614,-40.0
12,lyt,f,21,r,1,(-121.76378772032348, 121.76378772032349),24,-3,11,no,m,6,m,1.488738000000012,1,22,test2,2,1.4888649999993504,-40.0
12,lyt,f,21,r,1,(121.76378772032346, -121.76378772032352),28,-3,11,yes,x,5,m,1.1359869000007166,0,23,test2,2,1.1362004999991768,-48.0
12,lyt,f,21,r,1,(-121.76378772032348, 121.76378772032349),24,-25,14,yes,x,5,x,0.39555719999953,1,24,test2,2,0.3957882000004247,-70.0
12,lyt,f,21,r,1,(172.20000000000002, 0.0),21,7,3,no,m,6,m,1.0999909000001935,1,25,test2,2,1.1001891999994768,-70.0
12,lyt,f,21,r,1,(121.76378772032349, 121.76378772032349),22,-3,11,yes,x,5,m,1.0077056000000084,0,26,test2,2,1.0078254000000015,-48.0
12,lyt,f,21,r,1,(121.76378772032349, 121.76378772032349),22,-7,13,no,m,6,m,0.9461766999993415,1,27,test2,2,0.9462993000006463,-48.0
12,lyt,f,21,r,1,(121.76378772032346, -121.76378772032352),28,-25,14,yes,x,5,x,0.4575565999994069,1,28,test2,2,0.457891699999891,-70.0
12,lyt,f,21,r,1,(-121.76378772032352, -121.76378772032348),26,7,3,yes,x,5,x,0.44959950000065874,1,29,test2,2,0.44988550000016403,-38.0
12,lyt,f,21,r,1,(172.20000000000002, 0.0),21,-3,11,no,m,6,m,1.0102879999994911,1,30,test2,2,1.0105101999997714,-38.0
12,lyt,f,21,r,1,(-172.20000000000002, 2.1088417881317425e-14),25,-7,13,yes,x,5,x,0.4909646000005523,1,31,test2,2,0.49119580000024143,-52.0
12,lyt,f,21,r,1,(-121.76378772032352, -121.76378772032348),26,-5,12,no,m,6,m,0.9682854000002408,1,32,test2,2,0.9683872999994492,-52.0
12,lyt,f,21,r,1,(-3.163262682197613e-14, -172.20000000000002),27,5,2,yes,x,5,x,0.5746398999999656,1,33,test2,2,0.5748019999991811,-40.0
12,lyt,f,21,r,1,(1.0544208940658713e-14, 172.20000000000002),23,3,1,no,m,6,m,1.0616986000004545,1,34,test2,2,1.061831400000301,-40.0
12,lyt,f,21,r,1,(-121.76378772032348, 121.76378772032349),24,-5,12,yes,x,5,x,0.6529080000000249,1,35,test2,2,0.6531171999995422,-50.0
12,lyt,f,21,r,1,(-3.163262682197613e-14, -172.20000000000002),27,-7,13,no,m,6,x,1.1229381000002832,0,36,test2,2,1.1231479999996736,-50.0
12,lyt,f,21,r,1,(-121.76378772032348, 121.76378772032349),24,-25,14,no,m,6,m,1.1010810999996465,1,37,test2,2,1.1014646000003268,-50.0
12,lyt,f,21,r,1,(-3.163262682197613e-14, -172.20000000000002),27,-25,14,yes,x,5,x,0.5035361000000194,1,38,test2,2,0.5038908000005904,-70.0
12,lyt,f,21,r,1,(121.76378772032346, -121.76378772032352),28,7,3,yes,x,5,x,0.5199236999997083,1,39,test2,2,0.5205235000003086,-38.0
12,lyt,f,21,r,1,(172.20000000000002, 0.0),21,-7,13,yes,x,5,x,0.5692972999995618,1,40,test2,2,0.569396400000187,-52.0
12,lyt,f,21,r,1,(172.20000000000002, 0.0),21,-7,13,yes,x,5,x,0.522049899999729,1,41,test2,2,0.522165600000335,-52.0
12,lyt,f,21,r,1,(-172.20000000000002, 2.1088417881317425e-14),25,3,1,yes,x,5,m,1.2295512999999119,0,42,test2,2,1.2302093999996941,-42.0
12,lyt,f,21,r,1,(172.20000000000002, 0.0),21,-5,12,yes,x,5,x,0.703424699999232,1,43,test2,2,0.7035314000004291,-50.0
12,lyt,f,21,r,1,(-121.76378772032352, -121.76378772032348),26,-25,14,no,m,6,m,0.9445789000001241,1,44,test2,2,0.9447394000007989,-50.0
12,lyt,f,21,r,1,(-3.163262682197613e-14, -172.20000000000002),27,-5,12,no,m,6,x,1.110338899999988,0,45,test2,2,1.1106853999999657,-50.0
12,lyt,f,21,r,1,(-172.20000000000002, 2.1088417881317425e-14),25,-25,14,yes,x,5,x,0.437648199999785,1,46,test2,2,0.43774519999988115,-70.0
12,lyt,f,21,r,1,(1.0544208940658713e-14, 172.20000000000002),23,7,3,yes,x,5,x,0.5858654000003298,1,47,test2,2,0.5859930000005988,-38.0
12,lyt,f,21,r,1,(-121.76378772032352, -121.76378772032348),26,-25,14,yes,x,5,x,0.5483365999998568,1,48,test2,2,0.5485490000000937,-70.0
12,lyt,f,21,r,1,(1.0544208940658713e-14, 172.20000000000002),23,5,2,yes,x,5,x,0.5719318999999814,1,49,test2,2,0.5720572999998694,-40.0
12,lyt,f,21,r,1,(1.0544208940658713e-14, 172.20000000000002),23,-3,11,yes,x,5,m,1.1953344000003199,0,50,test2,2,1.1954367999996975,-48.0
12,lyt,f,21,r,1,(-172.20000000000002, 2.1088417881317425e-14),25,-3,11,no,m,6,m,0.7852418000002217,1,51,test2,2,0.7853639000004478,-48.0
12,lyt,f,21,r,1,(-121.76378772032348, 121.76378772032349),24,-5,12,no,m,6,m,0.6249082000003909,1,52,test2,2,0.6251447000004191,-48.0
12,lyt,f,21,r,1,(121.76378772032349, 121.76378772032349),22,25,4,yes,x,5,x,0.7185938000002352,1,53,test2,2,0.7187102999996569,-20.0
12,lyt,f,21,r,1,(-172.20000000000002, 2.1088417881317425e-14),25,-5,12,yes,x,5,x,0.8878384999998161,1,54,test2,2,0.8879398999997647,-50.0
12,lyt,f,21,r,1,(-121.76378772032352, -121.76378772032348),26,-3,11,no,m,6,m,0.601713999999447,1,55,test2,2,0.601815699999861,-50.0
12,lyt,f,21,r,1,(172.20000000000002, 0.0),21,3,1,no,m,6,m,0.6704545000002327,1,56,test2,2,0.6707753999999113,-50.0
12,lyt,f,21,r,1,(-121.76378772032352, -121.76378772032348),26,-3,11,yes,x,5,x,0.6586490999998205,1,57,test2,2,0.6587503000000652,-48.0
12,lyt,f,21,r,1,(1.0544208940658713e-14, 172.20000000000002),23,-25,14,no,m,6,m,0.6710837000000538,1,58,test2,2,0.671186100000341,-48.0
12,lyt,f,21,r,1,(172.20000000000002, 0.0),21,25,4,no,m,6,x,0.8364486999998917,0,59,test2,2,0.8370608999994147,-48.0
12,lyt,f,21,r,1,(1.0544208940658713e-14, 172.20000000000002),23,25,4,yes,x,5,x,0.5362117999993643,1,60,test2,2,0.5363745000004201,-20.0
12,lyt,f,21,r,1,(121.76378772032349, 121.76378772032349),22,25,4,yes,x,5,x,0.5025603000003684,1,61,test2,2,0.5027783000005002,-20.0
12,lyt,f,21,r,1,(-121.76378772032348, 121.76378772032349),24,25,4,yes,x,5,x,0.4689052999992782,1,62,test2,2,0.4693560999994588,-20.0
12,lyt,f,21,r,1,(-121.76378772032348, 121.76378772032349),24,25,4,no,m,6,m,0.6137195999999676,1,63,test2,2,0.6138202000001911,-20.0
12,lyt,f,21,r,1,(1.0544208940658713e-14, 172.20000000000002),23,7,3,no,m,6,m,1.019626100000096,1,64,test2,2,1.0198132999994414,-20.0
12,lyt,f,21,r,1,(-121.76378772032348, 121.76378772032349),24,5,2,yes,x,5,x,0.849414300000717,1,65,test2,2,0.850080600000183,-40.0
12,lyt,f,21,r,1,(-3.163262682197613e-14, -172.20000000000002),27,-3,11,yes,x,5,x,0.6611764000008407,1,66,test2,2,0.6613102999999683,-48.0
12,lyt,f,21,r,1,(172.20000000000002, 0.0),21,-3,11,yes,x,5,m,0.5356142000000546,0,67,test2,2,0.5360522999999375,-48.0
12,lyt,f,21,r,1,(-3.163262682197613e-14, -172.20000000000002),27,-7,13,yes,x,5,x,0.7461741999995866,1,68,test2,2,0.7463865999998234,-52.0
12,lyt,f,21,r,1,(-121.76378772032348, 121.76378772032349),24,25,4,yes,x,5,x,0.8660884999999325,1,69,test2,2,0.8663603999993938,-20.0
12,lyt,f,21,r,1,(121.76378772032349, 121.76378772032349),22,-5,12,no,m,6,m,0.8596506000003501,1,70,test2,2,0.8599981999996089,-20.0
12,lyt,f,21,r,1,(-121.76378772032352, -121.76378772032348),26,7,3,no,m,6,m,0.5929270000006,1,71,test2,2,0.5930909999997311,-20.0
12,lyt,f,21,r,1,(172.20000000000002, 0.0),21,-3,11,yes,x,5,m,0.7301440000001094,0,72,test2,2,0.7303812000000107,-48.0
12,lyt,f,21,r,1,(-3.163262682197613e-14, -172.20000000000002),27,-7,13,yes,x,5,x,0.6061381999998048,1,73,test2,2,0.6064678000002459,-52.0
12,lyt,f,21,r,1,(121.76378772032349, 121.76378772032349),22,7,3,yes,x,5,m,0.6615374000002703,0,74,test2,2,0.6616968000007546,-38.0
12,lyt,f,21,r,1,(121.76378772032349, 121.76378772032349),22,-5,12,yes,x,5,x,0.7455263000001651,1,75,test2,2,0.7456425999998828,-50.0
12,lyt,f,21,r,1,(-121.76378772032352, -121.76378772032348),26,25,4,yes,x,5,x,0.4791983999994045,1,76,test2,2,0.4792970999997124,-20.0
12,lyt,f,21,r,1,(-172.20000000000002, 2.1088417881317425e-14),25,7,3,yes,x,5,x,0.4494908000006035,1,77,test2,2,0.44972100000086357,-38.0
12,lyt,f,21,r,1,(-3.163262682197613e-14, -172.20000000000002),27,25,4,yes,x,5,x,0.5131724000002578,1,78,test2,2,0.5133221000005506,-20.0
12,lyt,f,21,r,1,(1.0544208940658713e-14, 172.20000000000002),23,-25,14,yes,x,5,x,0.4499965000004522,1,79,test2,2,0.45011040000008506,-70.0
12,lyt,f,21,r,1,(-121.76378772032348, 121.76378772032349),24,-3,11,yes,x,5,x,0.5644859000003635,1,80,test2,2,0.5646997999992891,-48.0
12,lyt,f,21,r,1,(-3.163262682197613e-14, -172.20000000000002),27,5,2,no,m,6,x,0.74750480000057,0,81,test2,2,0.7476071000000957,-48.0
12,lyt,f,21,r,1,(121.76378772032346, -121.76378772032352),28,-7,13,yes,x,5,x,0.442638800000168,1,82,test2,2,0.4430845999995654,-52.0
12,lyt,f,21,r,1,(121.76378772032349, 121.76378772032349),22,5,2,yes,x,5,x,0.8027563000005102,1,83,test2,2,0.8034864999999627,-40.0
12,lyt,f,21,r,1,(121.76378772032349, 121.76378772032349),22,3,1,yes,x,5,x,0.9384262000003218,1,84,test2,2,0.9389340000006996,-42.0
12,lyt,f,21,r,1,(-121.76378772032348, 121.76378772032349),24,3,1,yes,x,5,m,1.254385799999909,0,85,test2,2,1.2545070999995005,-42.0
12,lyt,f,21,r,1,(1.0544208940658713e-14, 172.20000000000002),23,-5,12,no,m,6,x,1.3262526999997135,0,86,test2,2,1.3269296999997096,-42.0
12,lyt,f,21,r,1,(-172.20000000000002, 2.1088417881317425e-14),25,-7,13,no,m,6,m,1.1136475000002974,1,87,test2,2,1.1137690000005023,-42.0
12,lyt,f,21,r,1,(172.20000000000002, 0.0),21,7,3,yes,x,5,x,0.5202409999992597,1,88,test2,2,0.5205306000007113,-38.0
12,lyt,f,21,r,1,(-172.20000000000002, 2.1088417881317425e-14),25,7,3,no,m,6,m,0.9143303000000742,1,89,test2,2,0.9144487999992634,-38.0
12,lyt,f,21,r,1,(-121.76378772032348, 121.76378772032349),24,-25,14,yes,x,5,x,0.4575031000003946,1,90,test2,2,0.45804909999969823,-70.0
12,lyt,f,21,r,1,(-3.163262682197613e-14, -172.20000000000002),27,-25,14,no,m,6,x,0.9604552999999214,0,91,test2,2,0.9605863999995563,-70.0
12,lyt,f,21,r,1,(121.76378772032346, -121.76378772032352),28,25,4,yes,x,5,x,0.47708650000004127,1,92,test2,2,0.4774366999999984,-20.0
12,lyt,f,21,r,1,(172.20000000000002, 0.0),21,5,2,no,m,6,m,0.9337967999999819,1,93,test2,2,0.9341023999995741,-20.0
12,lyt,f,21,r,1,(-121.76378772032352, -121.76378772032348),26,-3,11,yes,x,5,x,1.176561799999945,1,94,test2,2,1.1768541999999798,-48.0
12,lyt,f,21,r,1,(121.76378772032346, -121.76378772032352),28,-5,12,no,m,6,m,1.282621599999402,1,95,test2,2,1.282736300000579,-48.0
12,lyt,f,21,r,1,(-121.76378772032352, -121.76378772032348),26,7,3,yes,x,5,x,0.5202345999996396,1,96,test2,2,0.520451100000173,-38.0
12,lyt,f,21,r,1,(1.0544208940658713e-14, 172.20000000000002),23,-7,13,yes,x,5,x,0.7475917000001573,1,1,test1,3,0.7477996999996321,-52.0
12,lyt,f,21,r,1,(121.76378772032349, 121.76378772032349),22,-7,13,yes,x,5,x,0.43635270000049786,1,2,test1,3,0.4365174999993542,-52.0
12,lyt,f,21,r,1,(172.20000000000002, 0.0),21,-25,14,no,m,6,m,0.9419201999999132,1,3,test1,3,0.9420488999994632,-52.0
12,lyt,f,21,r,1,(1.0544208940658713e-14, 172.20000000000002),23,25,4,yes,x,5,x,0.394860599999447,1,4,test1,3,0.3950667999997677,-20.0
12,lyt,f,21,r,1,(1.0544208940658713e-14, 172.20000000000002),23,5,2,no,m,6,m,0.7323291000002428,1,5,test1,3,0.7326666999997542,-20.0
12,lyt,f,21,r,1,(-172.20000000000002, 2.1088417881317425e-14),25,-7,13,yes,x,5,x,0.44921460000023217,1,6,test1,3,0.4493702999998277,-52.0
12,lyt,f,21,r,1,(121.76378772032346, -121.76378772032352),28,5,2,yes,x,5,x,0.5016132000000653,1,7,test1,3,0.5017557000001034,-40.0
12,lyt,f,21,r,1,(121.76378772032346, -121.76378772032352),28,-7,13,yes,x,5,x,0.4630584999995335,1,8,test1,3,0.4634511999993265,-52.0
12,lyt,f,21,r,1,(121.76378772032349, 121.76378772032349),22,5,2,no,m,6,m,0.599575599999298,1,9,test1,3,0.5998168000005535,-52.0
12,lyt,f,21,r,1,(-172.20000000000002, 2.1088417881317425e-14),25,5,2,yes,x,5,x,0.4366200000004028,1,10,test1,3,0.43672129999959,-40.0
12,lyt,f,21,r,1,(172.20000000000002, 0.0),21,-7,13,no,m,6,m,0.6140480999993088,1,11,test1,3,0.6142814000004364,-40.0
12,lyt,f,21,r,1,(1.0544208940658713e-14, 172.20000000000002),23,5,2,yes,x,5,x,0.5212013999998817,1,12,test1,3,0.5215811999996731,-40.0
12,lyt,f,21,r,1,(1.0544208940658713e-14, 172.20000000000002),23,-7,13,yes,x,5,x,0.6201861999998073,1,13,test1,3,0.6205117999998038,-52.0
12,lyt,f,21,r,1,(-121.76378772032352, -121.76378772032348),26,-7,13,no,m,6,m,0.5898355999997875,1,14,test1,3,0.5900410000003831,-52.0
12,lyt,f,21,r,1,(121.76378772032346, -121.76378772032352),28,-25,14,no,m,6,m,0.6803045999995447,1,15,test1,3,0.6805407000001651,-52.0
12,lyt,f,21,r,1,(-3.163262682197613e-14, -172.20000000000002),27,25,4,no,m,6,m,0.6618819000004805,1,16,test1,3,0.6619824000008521,-52.0
12,lyt,f,21,r,1,(-121.76378772032348, 121.76378772032349),24,7,3,no,m,6,m,0.6114914999998291,1,17,test1,3,0.6115878000000521,-52.0
12,lyt,f,21,r,1,(172.20000000000002, 0.0),21,25,4,yes,x,5,x,0.465311500000098,1,18,test1,3,0.4654092999999193,-20.0
12,lyt,f,21,r,1,(121.76378772032346, -121.76378772032352),28,-25,14,yes,x,5,x,0.4240211000005729,1,19,test1,3,0.4242461000003459,-70.0
12,lyt,f,21,r,1,(121.76378772032346, -121.76378772032352),28,25,4,yes,x,5,x,0.37843470000007073,1,20,test1,3,0.37866699999995035,-20.0
12,lyt,f,21,r,1,(-172.20000000000002, 2.1088417881317425e-14),25,-5,12,no,m,6,m,0.6710539000005156,1,21,test1,3,0.6712112000004709,-20.0
12,lyt,f,21,r,1,(-121.76378772032352, -121.76378772032348),26,3,1,yes,x,5,x,1.0054158999992069,1,22,test1,3,1.0055817000002207,-42.0
12,lyt,f,21,r,1,(-3.163262682197613e-14, -172.20000000000002),27,7,3,yes,x,5,m,0.49186159999953816,0,23,test1,3,0.49198340000020835,-38.0
12,lyt,f,21,r,1,(172.20000000000002, 0.0),21,-25,14,yes,x,5,x,0.44393010000021604,1,24,test1,3,0.4445092999994813,-70.0
12,lyt,f,21,r,1,(-121.76378772032352, -121.76378772032348),26,-5,12,yes,x,5,x,0.4865666000005149,1,25,test1,3,0.48666939999930037,-50.0
12,lyt,f,21,r,1,(121.76378772032349, 121.76378772032349),22,5,2,yes,x,5,x,0.4540705999997954,1,26,test1,3,0.45430360000045766,-40.0
12,lyt,f,21,r,1,(121.76378772032346, -121.76378772032352),28,3,1,no,m,6,x,0.8331303999993906,0,27,test1,3,0.8332319999999527,-40.0
12,lyt,f,21,r,1,(-121.76378772032348, 121.76378772032349),24,3,1,yes,x,5,x,0.6987099999996644,1,28,test1,3,0.69883530000061,-42.0
12,lyt,f,21,r,1,(-121.76378772032352, -121.76378772032348),26,25,4,yes,x,5,x,0.36106910000034986,1,29,test1,3,0.3612978999999541,-20.0
12,lyt,f,21,r,1,(121.76378772032349, 121.76378772032349),22,7,3,yes,x,5,x,0.5485685000003286,1,30,test1,3,0.5486978999997518,-38.0
12,lyt,f,21,r,1,(1.0544208940658713e-14, 172.20000000000002),23,-5,12,yes,x,5,x,0.49958429999969667,1,31,test1,3,0.5001928000001499,-50.0
12,lyt,f,21,r,1,(-3.163262682197613e-14, -172.20000000000002),27,25,4,yes,x,5,x,0.4017229999999472,1,32,test1,3,0.4025333000008686,-20.0
12,lyt,f,21,r,1,(-172.20000000000002, 2.1088417881317425e-14),25,-3,11,yes,x,5,x,0.6942320999996809,1,33,test1,3,0.6946474000005765,-48.0
12,lyt,f,21,r,1,(172.20000000000002, 0.0),21,5,2,yes,x,5,x,0.4624599999997372,1,34,test1,3,0.46256259999972826,-40.0
12,lyt,f,21,r,1,(121.76378772032346, -121.76378772032352),28,3,1,yes,x,5,x,0.4255135000003065,1,35,test1,3,0.42561790000036126,-42.0
12,lyt,f,21,r,1,(-172.20000000000002, 2.1088417881317425e-14),25,3,1,no,m,6,m,0.6475555999995777,1,36,test1,3,0.6476519999996526,-42.0
12,lyt,f,21,r,1,(-121.76378772032348, 121.76378772032349),24,-7,13,yes,x,5,x,0.40992199999982404,1,37,test1,3,0.4108747999998741,-52.0
12,lyt,f,21,r,1,(-3.163262682197613e-14, -172.20000000000002),27,3,1,no,m,6,m,0.7582359000007273,1,38,test1,3,0.7583869999998569,-52.0
12,lyt,f,21,r,1,(-3.163262682197613e-14, -172.20000000000002),27,3,1,yes,x,5,x,0.47443920000023354,1,39,test1,3,0.47456830000010086,-42.0
12,lyt,f,21,r,1,(-3.163262682197613e-14, -172.20000000000002),27,-3,11,yes,x,5,x,0.5732387000007293,1,40,test1,3,0.573663399999532,-48.0
12,lyt,f,21,r,1,(121.76378772032349, 121.76378772032349),22,-3,11,no,m,6,m,0.8521081999997477,1,41,test1,3,0.8523400000003676,-48.0
12,lyt,f,21,r,1,(121.76378772032349, 121.76378772032349),22,-25,14,yes,x,5,x,0.4633590000003096,1,42,test1,3,0.4634798999995837,-70.0
12,lyt,f,21,r,1,(-172.20000000000002, 2.1088417881317425e-14),25,-25,14,no,m,6,m,0.44082259999959206,1,43,test1,3,0.4409219999997731,-70.0
12,lyt,f,21,r,1,(121.76378772032346, -121.76378772032352),28,25,4,no,m,6,m,0.47307089999958407,1,44,test1,3,0.47330220000003465,-70.0
12,lyt,f,21,r,1,(121.76378772032346, -121.76378772032352),28,3,1,yes,x,5,x,0.7481104999997115,1,45,test1,3,0.7482093999997232,-42.0
12,lyt,f,21,r,1,(-3.163262682197613e-14, -172.20000000000002),27,3,1,yes,x,5,x,0.6442846999998437,1,46,test1,3,0.6447489000001951,-42.0
12,lyt,f,21,r,1,(121.76378772032346, -121.76378772032352),28,-5,12,yes,x,5,m,0.7619035999996413,0,47,test1,3,0.7620198000004166,-50.0
12,lyt,f,21,r,1,(121.76378772032349, 121.76378772032349),22,-3,11,yes,x,5,m,1.132010899999841,0,48,test1,3,1.1321287999999186,-48.0
12,lyt,f,21,r,1,(1.0544208940658713e-14, 172.20000000000002),23,-3,11,yes,x,5,x,0.7308278000000428,1,49,test1,3,0.7309556999998676,-48.0
12,lyt,f,21,r,1,(121.76378772032349, 121.76378772032349),22,-25,14,no,m,6,m,0.6943814999995084,1,50,test1,3,0.6946205999993253,-48.0
12,lyt,f,21,r,1,(-121.76378772032352, -121.76378772032348),26,-25,14,yes,x,5,x,0.4594390000002022,1,51,test1,3,0.45980559999952675,-70.0
12,lyt,f,21,r,1,(-172.20000000000002, 2.1088417881317425e-14),25,25,4,no,m,6,m,0.6582877000000735,1,52,test1,3,0.6583924999995361,-70.0
12,lyt,f,21,r,1,(-172.20000000000002, 2.1088417881317425e-14),25,7,3,yes,x,5,x,0.4354985999998462,1,53,test1,3,0.43565699999999197,-38.0
12,lyt,f,21,r,1,(172.20000000000002, 0.0),21,25,4,yes,x,5,x,0.4459157999999661,1,54,test1,3,0.44616469999982655,-20.0
12,lyt,f,21,r,1,(172.20000000000002, 0.0),21,7,3,yes,x,5,x,0.48641780000070867,1,55,test1,3,0.48659049999969284,-38.0
12,lyt,f,21,r,1,(-121.76378772032348, 121.76378772032349),24,-7,13,no,m,6,m,0.5862867000005281,1,56,test1,3,0.5864172999999937,-38.0
12,lyt,f,21,r,1,(-121.76378772032348, 121.76378772032349),24,-7,13,yes,x,5,x,0.4660162999998647,1,57,test1,3,0.46618320000015956,-52.0
12,lyt,f,21,r,1,(-3.163262682197613e-14, -172.20000000000002),27,7,3,no,m,6,m,0.6655568999995012,1,58,test1,3,0.665657900000042,-52.0
12,lyt,f,21,r,1,(1.0544208940658713e-14, 172.20000000000002),23,-25,14,yes,x,5,x,0.6007570000001579,1,59,test1,3,0.6008851000005961,-70.0
12,lyt,f,21,r,1,(172.20000000000002, 0.0),21,3,1,yes,x,5,m,0.7970040000000154,0,60,test1,3,0.7971589999997377,-42.0
12,lyt,f,21,r,1,(-3.163262682197613e-14, -172.20000000000002),27,-25,14,yes,x,5,x,0.43818889999965904,1,61,test1,3,0.43828279999979713,-70.0
12,lyt,f,21,r,1,(-121.76378772032352, -121.76378772032348),26,3,1,yes,x,5,x,0.9361157000003004,1,62,test1,3,0.9362295000000813,-42.0
12,lyt,f,21,r,1,(1.0544208940658713e-14, 172.20000000000002),23,-7,13,no,m,6,m,0.8757759000000078,1,63,test1,3,0.8761002999999619,-42.0
12,lyt,f,21,r,1,(1.0544208940658713e-14, 172.20000000000002),23,3,1,yes,x,5,x,1.110084700000698,1,64,test1,3,1.1102908000002571,-42.0
12,lyt,f,21,r,1,(-121.76378772032348, 121.76378772032349),24,5,2,no,m,6,m,0.660737600000175,1,65,test1,3,0.660976699999992,-42.0
12,lyt,f,21,r,1,(-172.20000000000002, 2.1088417881317425e-14),25,5,2,yes,x,5,x,0.4717932000003202,1,66,test1,3,0.47209969999948953,-40.0
12,lyt,f,21,r,1,(-121.76378772032348, 121.76378772032349),24,7,3,yes,x,5,x,0.41357439999956114,1,67,test1,3,0.41366799999923387,-38.0
12,lyt,f,21,r,1,(121.76378772032349, 121.76378772032349),22,-7,13,yes,x,5,x,0.4745011000004524,1,68,test1,3,0.474600399999872,-52.0
12,lyt,f,21,r,1,(-121.76378772032352, -121.76378772032348),26,5,2,no,m,6,m,0.5726259000002756,1,69,test1,3,0.5727670999995098,-52.0
12,lyt,f,21,r,1,(-121.76378772032352, -121.76378772032348),26,5,2,yes,x,5,x,0.5321167000001878,1,70,test1,3,0.5323495000002367,-40.0
12,lyt,f,21,r,1,(-121.76378772032352, -121.76378772032348),26,25,4,no,m,6,m,0.5930465000001277,1,71,test1,3,0.593149799999992,-40.0
12,lyt,f,21,r,1,(-121.76378772032352, -121.76378772032348),26,-7,13,yes,x,5,x,0.46259809999992285,1,72,test1,3,0.4630029999998442,-52.0
12,lyt,f,21,r,1,(-172.20000000000002, 2.1088417881317425e-14),25,-5,12,yes,x,5,x,0.4263050999998086,1,73,test1,3,0.4264338000002681,-50.0
12,lyt,f,21,r,1,(172.20000000000002, 0.0),21,3,1,yes,x,5,m,0.5959461000002193,0,74,test1,3,0.5966504999996687,-42.0
12,lyt,f,21,r,1,(-3.163262682197613e-14, -172.20000000000002),27,-5,12,yes,x,5,x,0.517651900000601,1,75,test1,3,0.5180323999993561,-50.0
12,lyt,f,21,r,1,(121.76378772032349, 121.76378772032349),22,-5,12,yes,x,5,x,0.43160619999980554,1,76,test1,3,0.43171819999952277,-50.0
12,lyt,f,21,r,1,(1.0544208940658713e-14, 172.20000000000002),23,25,4,no,m,6,x,0.833391400000437,0,77,test1,3,0.833532099999502,-50.0
12,lyt,f,21,r,1,(-121.76378772032352, -121.76378772032348),26,3,1,no,m,6,m,0.651701900000262,1,78,test1,3,0.6518243000000439,-50.0
12,lyt,f,21,r,1,(121.76378772032349, 121.76378772032349),22,3,1,yes,x,5,x,0.9898431999999957,1,79,test1,3,0.9900575000001481,-42.0
12,lyt,f,21,r,1,(-172.20000000000002, 2.1088417881317425e-14),25,5,2,no,m,6,m,0.8585666000008132,1,80,test1,3,0.8588576000001922,-42.0
12,lyt,f,21,r,1,(172.20000000000002, 0.0),21,-25,14,yes,x,5,x,0.4785998000006657,1,81,test1,3,0.4787814999999682,-70.0
12,lyt,f,21,r,1,(-3.163262682197613e-14, -172.20000000000002),27,-5,12,yes,x,5,x,0.4583085000003848,1,82,test1,3,0.45862729999953444,-50.0
12,lyt,f,21,r,1,(-172.20000000000002, 2.1088417881317425e-14),25,25,4,yes,x,5,x,0.39046909999979107,1,83,test1,3,0.3906998000002204,-20.0
12,lyt,f,21,r,1,(-172.20000000000002, 2.1088417881317425e-14),25,-25,14,yes,x,5,x,0.40208390000043437,1,84,test1,3,0.4025136999998722,-70.0
12,lyt,f,21,r,1,(172.20000000000002, 0.0),21,-5,12,yes,x,5,x,0.47667400000045745,1,85,test1,3,0.47677719999956025,-50.0
12,lyt,f,21,r,1,(1.0544208940658713e-14, 172.20000000000002),23,3,1,yes,x,5,x,0.777772499999628,1,86,test1,3,0.7779490000002625,-42.0
12,lyt,f,21,r,1,(1.0544208940658713e-14, 172.20000000000002),23,7,3,yes,x,5,x,0.4337564999996175,1,87,test1,3,0.43385810000017955,-38.0
12,lyt,f,21,r,1,(-121.76378772032348, 121.76378772032349),24,-5,12,yes,x,5,x,0.6854241000000911,1,88,test1,3,0.6855496999996831,-50.0
12,lyt,f,21,r,1,(-3.163262682197613e-14, -172.20000000000002),27,5,2,yes,x,5,x,0.5104701000000205,1,89,test1,3,0.5105968000007124,-40.0
12,lyt,f,21,r,1,(-121.76378772032348, 121.76378772032349),24,7,3,yes,x,5,x,0.45834629999990284,1,90,test1,3,0.4585744000005434,-38.0
12,lyt,f,21,r,1,(-121.76378772032348, 121.76378772032349),24,3,1,no,m,6,m,1.0600410999995802,1,91,test1,3,1.0604158000005555,-38.0
12,lyt,f,21,r,1,(121.76378772032346, -121.76378772032352),28,7,3,yes,x,5,x,0.44043929999952525,1,92,test1,3,0.4408099000002039,-38.0
12,lyt,f,21,r,1,(-121.76378772032348, 121.76378772032349),24,-3,11,yes,x,5,m,1.1679956999996648,0,93,test1,3,1.1680906000001414,-48.0
12,lyt,f,21,r,1,(172.20000000000002, 0.0),21,5,2,yes,x,5,x,0.6337447000005341,1,94,test1,3,0.6338814999999158,-40.0
12,lyt,f,21,r,1,(1.0544208940658713e-14, 172.20000000000002),23,-5,12,yes,x,5,x,0.45850350000000617,1,95,test1,3,0.4586044999996375,-50.0
12,lyt,f,21,r,1,(121.76378772032346, -121.76378772032352),28,-5,12,yes,x,5,x,1.1491461000005074,1,96,test1,3,1.1493425000007846,-50.0
12,lyt,f,21,r,1,(-3.163262682197613e-14, -172.20000000000002),27,-3,11,no,m,6,m,1.112918200000422,1,1,test2,3,1.113148899999942,-50.0
12,lyt,f,21,r,1,(-172.20000000000002, 2.1088417881317425e-14),25,-3,11,yes,x,5,m,1.1236300000000483,0,2,test2,3,1.1237466000002314,-48.0
12,lyt,f,21,r,1,(121.76378772032349, 121.76378772032349),22,25,4,no,m,6,x,0.7803351000002294,0,3,test2,3,0.7806946000000607,-48.0
12,lyt,f,21,r,1,(172.20000000000002, 0.0),21,-5,12,no,m,6,m,0.8346731000001455,1,4,test2,3,0.8348022000000128,-48.0
12,lyt,f,21,r,1,(-121.76378772032352, -121.76378772032348),26,5,2,yes,x,5,x,0.5683060000001205,1,5,test2,3,0.5684936999996353,-40.0
12,lyt,f,21,r,1,(121.76378772032346, -121.76378772032352),28,-7,13,no,m,6,m,0.6666660999999294,1,6,test2,3,0.6669650999992882,-40.0
12,lyt,f,21,r,1,(-3.163262682197613e-14, -172.20000000000002),27,7,3,yes,x,5,x,0.4279055999995762,1,7,test2,3,0.42815989999962767,-38.0
12,lyt,f,21,r,1,(121.76378772032346, -121.76378772032352),28,-3,11,no,m,6,x,0.6781129999999393,0,8,test2,3,0.6782264999992549,-38.0
12,lyt,f,21,r,1,(-121.76378772032348, 121.76378772032349),24,5,2,yes,x,5,x,0.4952252999992197,1,9,test2,3,0.49532640000143147,-40.0
12,lyt,f,21,r,1,(1.0544208940658713e-14, 172.20000000000002),23,-3,11,no,m,6,m,0.8440816000002087,1,10,test2,3,0.8442006999994192,-40.0
12,lyt,f,21,r,1,(-121.76378772032352, -121.76378772032348),26,-7,13,yes,x,5,x,0.5351273999986006,1,11,test2,3,0.5357205000000249,-52.0
12,lyt,f,21,r,1,(121.76378772032349, 121.76378772032349),22,-25,14,yes,x,5,x,0.4260437000011734,1,12,test2,3,0.4261717999997927,-70.0
12,lyt,f,21,r,1,(121.76378772032349, 121.76378772032349),22,3,1,no,m,6,m,0.6677811999998085,1,13,test2,3,0.6679084999996121,-70.0
12,lyt,f,21,r,1,(-121.76378772032352, -121.76378772032348),26,-5,12,yes,x,5,x,0.442498099999284,1,14,test2,3,0.44304039999951783,-50.0
12,lyt,f,21,r,1,(121.76378772032346, -121.76378772032352),28,5,2,no,m,6,x,0.9007919000014226,0,15,test2,3,0.9009512000011455,-50.0
12,lyt,f,21,r,1,(121.76378772032349, 121.76378772032349),22,7,3,no,m,6,m,0.818411100000958,1,16,test2,3,0.8186402000010276,-50.0
12,lyt,f,21,r,1,(-172.20000000000002, 2.1088417881317425e-14),25,3,1,yes,x,5,m,0.9956883999984711,0,17,test2,3,0.9959722999992664,-42.0
12,lyt,f,21,r,1,(121.76378772032346, -121.76378772032352),28,-3,11,yes,x,5,m,0.8845356999991054,0,18,test2,3,0.8846596000003046,-48.0
12,lyt,f,21,r,1,(-172.20000000000002, 2.1088417881317425e-14),25,25,4,yes,x,5,x,0.47893699999985984,1,19,test2,3,0.4793614999998681,-20.0
12,lyt,f,21,r,1,(121.76378772032346, -121.76378772032352),28,7,3,no,m,6,m,0.9806922999996459,1,20,test2,3,0.9809612999997626,-20.0
12,lyt,f,21,r,1,(121.76378772032346, -121.76378772032352),28,5,2,yes,x,5,x,0.9149716000010812,1,21,test2,3,0.915204699998867,-40.0
12,lyt,f,21,r,1,(-121.76378772032348, 121.76378772032349),24,-3,11,no,m,6,m,1.0699396999989403,1,22,test2,3,1.07006039999942,-40.0
12,lyt,f,21,r,1,(121.76378772032346, -121.76378772032352),28,-3,11,yes,x,5,m,0.6949323999997432,0,23,test2,3,0.6954599000000599,-48.0
12,lyt,f,21,r,1,(-121.76378772032348, 121.76378772032349),24,-25,14,yes,x,5,x,0.4686376999998174,1,24,test2,3,0.4687517000002117,-70.0
12,lyt,f,21,r,1,(172.20000000000002, 0.0),21,7,3,no,m,6,x,0.7593160000014905,0,25,test2,3,0.7594805999997334,-70.0
12,lyt,f,21,r,1,(121.76378772032349, 121.76378772032349),22,-3,11,yes,x,5,m,1.1863952000003337,0,26,test2,3,1.1864987999997538,-48.0
12,lyt,f,21,r,1,(121.76378772032349, 121.76378772032349),22,-7,13,no,m,6,m,0.6151050000007672,1,27,test2,3,0.6152941000000283,-48.0
12,lyt,f,21,r,1,(121.76378772032346, -121.76378772032352),28,-25,14,yes,x,5,x,0.4583266999998159,1,28,test2,3,0.45848990000013146,-70.0
12,lyt,f,21,r,1,(-121.76378772032352, -121.76378772032348),26,7,3,yes,x,5,m,0.6688895999996021,0,29,test2,3,0.6690046999992774,-38.0
12,lyt,f,21,r,1,(172.20000000000002, 0.0),21,-3,11,no,m,6,m,0.6258666000012454,1,30,test2,3,0.6259976999990613,-38.0
12,lyt,f,21,r,1,(-172.20000000000002, 2.1088417881317425e-14),25,-7,13,yes,x,5,x,0.7149305000002641,1,31,test2,3,0.7151088000009622,-52.0
12,lyt,f,21,r,1,(-121.76378772032352, -121.76378772032348),26,-5,12,no,m,6,m,0.5760382000007667,1,32,test2,3,0.576345700001184,-52.0
12,lyt,f,21,r,1,(-3.163262682197613e-14, -172.20000000000002),27,5,2,yes,x,5,x,0.5561197000006359,1,33,test2,3,0.5568782999998803,-40.0
12,lyt,f,21,r,1,(1.0544208940658713e-14, 172.20000000000002),23,3,1,no,m,6,m,0.6783208000015293,1,34,test2,3,0.6786062999999558,-40.0
12,lyt,f,21,r,1,(-121.76378772032348, 121.76378772032349),24,-5,12,yes,x,5,x,0.7483033000007708,1,35,test2,3,0.7485300000007555,-50.0
12,lyt,f,21,r,1,(-3.163262682197613e-14, -172.20000000000002),27,-7,13,no,m,6,m,0.8007421000002068,1,36,test2,3,0.800843499999246,-50.0
12,lyt,f,21,r,1,(-121.76378772032348, 121.76378772032349),24,-25,14,no,m,6,m,0.7565845000008267,1,37,test2,3,0.7570794999992358,-50.0
12,lyt,f,21,r,1,(-3.163262682197613e-14, -172.20000000000002),27,-25,14,yes,x,5,x,0.5592692000009265,1,38,test2,3,0.5593680000001768,-70.0
12,lyt,f,21,r,1,(121.76378772032346, -121.76378772032352),28,7,3,yes,x,5,x,0.5960085999995499,1,39,test2,3,0.5961362999987614,-38.0
12,lyt,f,21,r,1,(172.20000000000002, 0.0),21,-7,13,yes,x,5,x,0.5772109999998065,1,40,test2,3,0.5773869999993622,-52.0
12,lyt,f,21,r,1,(172.20000000000002, 0.0),21,-7,13,yes,x,5,x,0.4507146999985707,1,41,test2,3,0.45107389999975567,-52.0
12,lyt,f,21,r,1,(-172.20000000000002, 2.1088417881317425e-14),25,3,1,yes,x,5,x,0.5145319000002928,1,42,test2,3,0.5146328000009817,-42.0
12,lyt,f,21,r,1,(172.20000000000002, 0.0),21,-5,12,yes,x,5,x,0.6183538999994198,1,43,test2,3,0.6188436000011279,-50.0
12,lyt,f,21,r,1,(-121.76378772032352, -121.76378772032348),26,-25,14,no,m,6,m,0.6768629999987752,1,44,test2,3,0.6769738999992114,-50.0
12,lyt,f,21,r,1,(-3.163262682197613e-14, -172.20000000000002),27,-5,12,no,m,6,m,0.7987932000014553,1,45,test2,3,0.7988970999995217,-50.0
12,lyt,f,21,r,1,(-172.20000000000002, 2.1088417881317425e-14),25,-25,14,yes,x,5,x,0.4418174000002182,1,46,test2,3,0.44194489999972575,-70.0
12,lyt,f,21,r,1,(1.0544208940658713e-14, 172.20000000000002),23,7,3,yes,x,5,x,0.5646328000002541,1,47,test2,3,0.5648471000004065,-38.0
12,lyt,f,21,r,1,(-121.76378772032352, -121.76378772032348),26,-25,14,yes,x,5,x,0.4284686999999394,1,48,test2,3,0.4285792999999103,-70.0
12,lyt,f,21,r,1,(1.0544208940658713e-14, 172.20000000000002),23,5,2,yes,x,5,x,0.5673318999997718,1,49,test2,3,0.5674608000008448,-40.0
12,lyt,f,21,r,1,(1.0544208940658713e-14, 172.20000000000002),23,-3,11,yes,x,5,m,1.0758722999999009,0,50,test2,3,1.0761817000002338,-48.0
12,lyt,f,21,r,1,(-172.20000000000002, 2.1088417881317425e-14),25,-3,11,no,m,6,x,0.4895630999999412,0,51,test2,3,0.4898009999997157,-48.0
12,lyt,f,21,r,1,(-121.76378772032348, 121.76378772032349),24,-5,12,no,m,6,m,1.4266301999996358,1,52,test2,3,1.4267507000004116,-48.0
12,lyt,f,21,r,1,(121.76378772032349, 121.76378772032349),22,25,4,yes,x,5,x,0.5602873000007094,1,53,test2,3,0.5607915000000503,-20.0
12,lyt,f,21,r,1,(-172.20000000000002, 2.1088417881317425e-14),25,-5,12,yes,x,5,m,0.7614371999989089,0,54,test2,3,0.7616565999996965,-50.0
12,lyt,f,21,r,1,(-121.76378772032352, -121.76378772032348),26,-3,11,no,m,6,m,0.700702200001615,1,55,test2,3,0.7011063999998441,-50.0
12,lyt,f,21,r,1,(172.20000000000002, 0.0),21,3,1,no,m,6,m,0.8535997999988467,1,56,test2,3,0.8537280000000464,-50.0
12,lyt,f,21,r,1,(-121.76378772032352, -121.76378772032348),26,-3,11,yes,x,5,x,0.5751679999993939,1,57,test2,3,0.5755170000011276,-48.0
12,lyt,f,21,r,1,(1.0544208940658713e-14, 172.20000000000002),23,-25,14,no,m,6,m,0.584300999998959,1,58,test2,3,0.5845288000000437,-48.0
12,lyt,f,21,r,1,(172.20000000000002, 0.0),21,25,4,no,m,6,m,0.5778290999987803,1,59,test2,3,0.5781276999987313,-48.0
12,lyt,f,21,r,1,(1.0544208940658713e-14, 172.20000000000002),23,25,4,yes,x,5,x,0.4508819999991829,1,60,test2,3,0.45109039999988454,-20.0
12,lyt,f,21,r,1,(121.76378772032349, 121.76378772032349),22,25,4,yes,x,5,x,0.5170947999995406,1,61,test2,3,0.5174412999986089,-20.0
12,lyt,f,21,r,1,(-121.76378772032348, 121.76378772032349),24,25,4,yes,x,5,x,0.501931799999511,1,62,test2,3,0.5021331999996619,-20.0
12,lyt,f,21,r,1,(-121.76378772032348, 121.76378772032349),24,25,4,no,m,6,m,1.7304387000003771,1,63,test2,3,1.7307634000007965,-20.0
12,lyt,f,21,r,1,(1.0544208940658713e-14, 172.20000000000002),23,7,3,no,m,6,m,0.9483932000002824,1,64,test2,3,0.9485318000006373,-20.0
12,lyt,f,21,r,1,(-121.76378772032348, 121.76378772032349),24,5,2,yes,x,5,x,0.5901735999996163,1,65,test2,3,0.5902944000008574,-40.0
12,lyt,f,21,r,1,(-3.163262682197613e-14, -172.20000000000002),27,-3,11,yes,x,5,m,0.6278579000008904,0,66,test2,3,0.6279577000004792,-48.0
12,lyt,f,21,r,1,(172.20000000000002, 0.0),21,-3,11,yes,x,5,m,0.8007792999997037,0,67,test2,3,0.8013221000001067,-48.0
12,lyt,f,21,r,1,(-3.163262682197613e-14, -172.20000000000002),27,-7,13,yes,x,5,x,0.7928362999991805,1,68,test2,3,0.7929406000002928,-52.0
12,lyt,f,21,r,1,(-121.76378772032348, 121.76378772032349),24,25,4,yes,x,5,x,0.5713481000002503,1,69,test2,3,0.571556299999429,-20.0
12,lyt,f,21,r,1,(121.76378772032349, 121.76378772032349),22,-5,12,no,m,6,m,0.819470899999942,1,70,test2,3,0.8197533000002295,-20.0
12,lyt,f,21,r,1,(-121.76378772032352, -121.76378772032348),26,7,3,no,m,6,m,0.999804299999596,1,71,test2,3,0.9999023999989731,-20.0
12,lyt,f,21,r,1,(172.20000000000002, 0.0),21,-3,11,yes,x,5,m,0.8770130000011704,0,72,test2,3,0.8771348000009311,-48.0
12,lyt,f,21,r,1,(-3.163262682197613e-14, -172.20000000000002),27,-7,13,yes,x,5,x,0.618307000000641,1,73,test2,3,0.618530900001133,-52.0
12,lyt,f,21,r,1,(121.76378772032349, 121.76378772032349),22,7,3,yes,x,5,x,0.8972195999995165,1,74,test2,3,0.897454199999629,-38.0
12,lyt,f,21,r,1,(121.76378772032349, 121.76378772032349),22,-5,12,yes,x,5,x,1.1449332000011054,1,75,test2,3,1.1451011999997718,-50.0
12,lyt,f,21,r,1,(-121.76378772032352, -121.76378772032348),26,25,4,yes,x,5,m,0.5244851999996172,0,76,test2,3,0.5247401999986323,-20.0
12,lyt,f,21,r,1,(-172.20000000000002, 2.1088417881317425e-14),25,7,3,yes,x,5,x,0.5147637999998551,1,77,test2,3,0.5154492000001483,-38.0
12,lyt,f,21,r,1,(-3.163262682197613e-14, -172.20000000000002),27,25,4,yes,x,5,x,0.5361542999999074,1,78,test2,3,0.5363497999987885,-20.0
12,lyt,f,21,r,1,(1.0544208940658713e-14, 172.20000000000002),23,-25,14,yes,x,5,x,0.49185899999974936,1,79,test2,3,0.49247319999994943,-70.0
12,lyt,f,21,r,1,(-121.76378772032348, 121.76378772032349),24,-3,11,yes,x,5,m,0.5951566999992792,0,80,test2,3,0.5953176999992138,-48.0
12,lyt,f,21,r,1,(-3.163262682197613e-14, -172.20000000000002),27,5,2,no,m,6,m,0.8766227999985858,1,81,test2,3,0.8767410000000382,-48.0
12,lyt,f,21,r,1,(121.76378772032346, -121.76378772032352),28,-7,13,yes,x,5,x,0.6743110999996134,1,82,test2,3,0.6745215000009921,-52.0
12,lyt,f,21,r,1,(121.76378772032349, 121.76378772032349),22,5,2,yes,x,5,m,1.9693009000002348,0,83,test2,3,1.9694013999996969,-40.0
12,lyt,f,21,r,1,(121.76378772032349, 121.76378772032349),22,3,1,yes,x,5,x,0.9192913000006229,1,84,test2,3,0.919748600001185,-42.0
12,lyt,f,21,r,1,(-121.76378772032348, 121.76378772032349),24,3,1,yes,x,5,x,1.2842414999995526,1,85,test2,3,1.2844640000002983,-42.0
12,lyt,f,21,r,1,(1.0544208940658713e-14, 172.20000000000002),23,-5,12,no,m,6,x,0.6864564999996219,0,86,test2,3,0.6865863999992143,-42.0
12,lyt,f,21,r,1,(-172.20000000000002, 2.1088417881317425e-14),25,-7,13,no,m,6,x,0.8556343000000197,0,87,test2,3,0.8557344999990164,-42.0
12,lyt,f,21,r,1,(172.20000000000002, 0.0),21,7,3,yes,x,5,x,0.5702452999994421,1,88,test2,3,0.570348199998989,-38.0
12,lyt,f,21,r,1,(-172.20000000000002, 2.1088417881317425e-14),25,7,3,no,m,6,x,1.086815700000443,0,89,test2,3,1.0870770000001357,-38.0
12,lyt,f,21,r,1,(-121.76378772032348, 121.76378772032349),24,-25,14,yes,x,5,x,0.469407599999613,1,90,test2,3,0.4696751999999833,-70.0
12,lyt,f,21,r,1,(-3.163262682197613e-14, -172.20000000000002),27,-25,14,no,m,6,m,0.5409277999988262,1,91,test2,3,0.5410878000002413,-70.0
12,lyt,f,21,r,1,(121.76378772032346, -121.76378772032352),28,25,4,yes,x,5,m,0.8718053000011423,0,92,test2,3,0.8722098999987793,-20.0
12,lyt,f,21,r,1,(172.20000000000002, 0.0),21,5,2,no,m,6,m,0.7332127999998193,1,93,test2,3,0.7333121000010578,-20.0
12,lyt,f,21,r,1,(-121.76378772032352, -121.76378772032348),26,-3,11,yes,x,5,m,0.7210056000003533,0,94,test2,3,0.7213976999992155,-48.0
12,lyt,f,21,r,1,(121.76378772032346, -121.76378772032352),28,-5,12,no,m,6,m,0.889345499999763,1,95,test2,3,0.8894638000001578,-48.0
12,lyt,f,21,r,1,(-121.76378772032352, -121.76378772032348),26,7,3,yes,x,5,x,0.5469489000006433,1,96,test2,3,0.5472016999992775,-38.0
12,lyt,f,21,r,1,(1.0544208940658713e-14, 172.20000000000002),23,-7,13,yes,x,5,x,0.5550560000010591,1,1,test1,4,0.5552872999996907,-52.0
12,lyt,f,21,r,1,(121.76378772032349, 121.76378772032349),22,-7,13,yes,x,5,x,0.6052370999987033,1,2,test1,4,0.6057763999997405,-52.0
12,lyt,f,21,r,1,(172.20000000000002, 0.0),21,-25,14,no,m,6,m,0.7837000999988959,1,3,test1,4,0.7839633999992657,-52.0
12,lyt,f,21,r,1,(1.0544208940658713e-14, 172.20000000000002),23,25,4,yes,x,5,x,0.4890791999987414,1,4,test1,4,0.48918029999913415,-20.0
12,lyt,f,21,r,1,(1.0544208940658713e-14, 172.20000000000002),23,5,2,no,m,6,m,0.6872567999998864,1,5,test1,4,0.6875538000003871,-20.0
12,lyt,f,21,r,1,(-172.20000000000002, 2.1088417881317425e-14),25,-7,13,yes,x,5,x,0.4969481000007363,1,6,test1,4,0.4973319000000629,-52.0
12,lyt,f,21,r,1,(121.76378772032346, -121.76378772032352),28,5,2,yes,x,5,m,0.642958100001124,0,7,test1,4,0.643121399998563,-40.0
12,lyt,f,21,r,1,(121.76378772032346, -121.76378772032352),28,-7,13,yes,x,5,x,0.6906487999985984,1,8,test1,4,0.6909560000003694,-52.0
12,lyt,f,21,r,1,(121.76378772032349, 121.76378772032349),22,5,2,no,m,6,m,0.5944576999991114,1,9,test1,4,0.594620699999723,-52.0
12,lyt,f,21,r,1,(-172.20000000000002, 2.1088417881317425e-14),25,5,2,yes,x,5,x,0.45885509999970964,1,10,test1,4,0.45897449999938544,-40.0
12,lyt,f,21,r,1,(172.20000000000002, 0.0),21,-7,13,no,m,6,m,0.7206475000002683,1,11,test1,4,0.7208853000011004,-40.0
12,lyt,f,21,r,1,(1.0544208940658713e-14, 172.20000000000002),23,5,2,yes,x,5,x,0.7334680999992997,1,12,test1,4,0.7338292000004003,-40.0
12,lyt,f,21,r,1,(1.0544208940658713e-14, 172.20000000000002),23,-7,13,yes,x,5,x,0.5546389000010095,1,13,test1,4,0.5547501000000921,-52.0
12,lyt,f,21,r,1,(-121.76378772032352, -121.76378772032348),26,-7,13,no,m,6,m,0.7925331999995251,1,14,test1,4,0.7931482000003598,-52.0
12,lyt,f,21,r,1,(121.76378772032346, -121.76378772032352),28,-25,14,no,m,6,m,0.7010520999992877,1,15,test1,4,0.701282899999569,-52.0
12,lyt,f,21,r,1,(-3.163262682197613e-14, -172.20000000000002),27,25,4,no,m,6,m,0.769253899999967,1,16,test1,4,0.7693709000013769,-52.0
12,lyt,f,21,r,1,(-121.76378772032348, 121.76378772032349),24,7,3,no,m,6,m,0.5525942999993276,1,17,test1,4,0.5527283000010357,-52.0
12,lyt,f,21,r,1,(172.20000000000002, 0.0),21,25,4,yes,x,5,x,0.6803798000000825,1,18,test1,4,0.6805681999994704,-20.0
12,lyt,f,21,r,1,(121.76378772032346, -121.76378772032352),28,-25,14,yes,x,5,x,0.45110790000035195,1,19,test1,4,0.45132010000088485,-70.0
12,lyt,f,21,r,1,(121.76378772032346, -121.76378772032352),28,25,4,yes,x,5,x,0.41447120000157156,1,20,test1,4,0.41478900000038266,-20.0
12,lyt,f,21,r,1,(-172.20000000000002, 2.1088417881317425e-14),25,-5,12,no,m,6,m,0.6909249999989697,1,21,test1,4,0.691136399998868,-20.0
12,lyt,f,21,r,1,(-121.76378772032352, -121.76378772032348),26,3,1,yes,x,5,m,0.9457287000004726,0,22,test1,4,0.9460018999998283,-42.0
12,lyt,f,21,r,1,(-3.163262682197613e-14, -172.20000000000002),27,7,3,yes,x,5,x,0.6525848000001133,1,23,test1,4,0.6528194000002259,-38.0
12,lyt,f,21,r,1,(172.20000000000002, 0.0),21,-25,14,yes,x,5,x,0.4703253000006953,1,24,test1,4,0.4708219000003737,-70.0
12,lyt,f,21,r,1,(-121.76378772032352, -121.76378772032348),26,-5,12,yes,x,5,m,0.5300191000005725,0,25,test1,4,0.5306555000006483,-50.0
12,lyt,f,21,r,1,(121.76378772032349, 121.76378772032349),22,5,2,yes,x,5,m,0.5385208999996394,0,26,test1,4,0.5392515999992611,-40.0
12,lyt,f,21,r,1,(121.76378772032346, -121.76378772032352),28,3,1,no,m,6,m,0.7738845999992918,1,27,test1,4,0.7743442999999388,-40.0
12,lyt,f,21,r,1,(-121.76378772032348, 121.76378772032349),24,3,1,yes,x,5,m,0.5703285999989021,0,28,test1,4,0.5704636999998911,-42.0
12,lyt,f,21,r,1,(-121.76378772032352, -121.76378772032348),26,25,4,yes,x,5,x,0.3815850999999384,1,29,test1,4,0.3816982000007556,-20.0
12,lyt,f,21,r,1,(121.76378772032349, 121.76378772032349),22,7,3,yes,x,5,x,0.5251451000003726,1,30,test1,4,0.5254325000005338,-38.0
12,lyt,f,21,r,1,(1.0544208940658713e-14, 172.20000000000002),23,-5,12,yes,x,5,x,0.5024846000014804,1,31,test1,4,0.5026818999995157,-50.0
12,lyt,f,21,r,1,(-3.163262682197613e-14, -172.20000000000002),27,25,4,yes,x,5,x,0.43514560000039637,1,32,test1,4,0.4355798999986291,-20.0
12,lyt,f,21,r,1,(-172.20000000000002, 2.1088417881317425e-14),25,-3,11,yes,x,5,x,0.837737300000299,1,33,test1,4,0.8378412999991269,-48.0
12,lyt,f,21,r,1,(172.20000000000002, 0.0),21,5,2,yes,x,5,x,0.5064556999986962,1,34,test1,4,0.5067976999998791,-40.0
12,lyt,f,21,r,1,(121.76378772032346, -121.76378772032352),28,3,1,yes,x,5,x,1.0404899000004662,1,35,test1,4,1.0410972999998194,-42.0
12,lyt,f,21,r,1,(-172.20000000000002, 2.1088417881317425e-14),25,3,1,no,m,6,m,1.3314176999992924,1,36,test1,4,1.3319190000001981,-42.0
12,lyt,f,21,r,1,(-121.76378772032348, 121.76378772032349),24,-7,13,yes,x,5,x,0.5016607000015938,1,37,test1,4,0.5017805999996199,-52.0
12,lyt,f,21,r,1,(-3.163262682197613e-14, -172.20000000000002),27,3,1,no,m,6,m,0.7242524999983289,1,38,test1,4,0.7251761000006809,-52.0
12,lyt,f,21,r,1,(-3.163262682197613e-14, -172.20000000000002),27,3,1,yes,x,5,x,0.7402371000007406,1,39,test1,4,0.7404652000004717,-42.0
12,lyt,f,21,r,1,(-3.163262682197613e-14, -172.20000000000002),27,-3,11,yes,x,5,m,1.2995442999999796,0,40,test1,4,1.299670000000333,-48.0
12,lyt,f,21,r,1,(121.76378772032349, 121.76378772032349),22,-3,11,no,m,6,m,0.7036026999994647,1,41,test1,4,0.7037832999994862,-48.0
12,lyt,f,21,r,1,(121.76378772032349, 121.76378772032349),22,-25,14,yes,x,5,x,0.48166999999921245,1,42,test1,4,0.4823985000002722,-70.0
12,lyt,f,21,r,1,(-172.20000000000002, 2.1088417881317425e-14),25,-25,14,no,m,6,m,0.7040393000006588,1,43,test1,4,0.704142900000079,-70.0
12,lyt,f,21,r,1,(121.76378772032346, -121.76378772032352),28,25,4,no,m,6,m,0.7318727000001672,1,44,test1,4,0.7321865999983856,-70.0
12,lyt,f,21,r,1,(121.76378772032346, -121.76378772032352),28,3,1,yes,x,5,m,0.7008306999996421,0,45,test1,4,0.7010357000017393,-42.0
12,lyt,f,21,r,1,(-3.163262682197613e-14, -172.20000000000002),27,3,1,yes,x,5,x,0.711781100000735,1,46,test1,4,0.7119896000003791,-42.0
12,lyt,f,21,r,1,(121.76378772032346, -121.76378772032352),28,-5,12,yes,x,5,x,0.9581791000000521,1,47,test1,4,0.9583376000009594,-50.0
12,lyt,f,21,r,1,(121.76378772032349, 121.76378772032349),22,-3,11,yes,x,5,m,0.8729877999994642,0,48,test1,4,0.8734715999999025,-48.0
12,lyt,f,21,r,1,(1.0544208940658713e-14, 172.20000000000002),23,-3,11,yes,x,5,m,1.0510988000005455,0,49,test1,4,1.0512982999989617,-48.0
12,lyt,f,21,r,1,(121.76378772032349, 121.76378772032349),22,-25,14,no,m,6,m,0.8769752000007429,1,50,test1,4,0.8773135999999795,-48.0
12,lyt,f,21,r,1,(-121.76378772032352, -121.76378772032348),26,-25,14,yes,x,5,x,0.5572307000002183,1,51,test1,4,0.5576020000007702,-70.0
12,lyt,f,21,r,1,(-172.20000000000002, 2.1088417881317425e-14),25,25,4,no,m,6,m,0.7230524000005971,1,52,test1,4,0.7234639999987849,-70.0
12,lyt,f,21,r,1,(-172.20000000000002, 2.1088417881317425e-14),25,7,3,yes,x,5,x,0.8285641000002215,1,53,test1,4,0.8292313000001741,-38.0
12,lyt,f,21,r,1,(172.20000000000002, 0.0),21,25,4,yes,x,5,x,0.5410162000007404,1,54,test1,4,0.5414318999992247,-20.0
12,lyt,f,21,r,1,(172.20000000000002, 0.0),21,7,3,yes,x,5,x,0.5072428999992553,1,55,test1,4,0.507494499999666,-38.0
12,lyt,f,21,r,1,(-121.76378772032348, 121.76378772032349),24,-7,13,no,m,6,m,0.8134035999992193,1,56,test1,4,0.813855299998977,-38.0
12,lyt,f,21,r,1,(-121.76378772032348, 121.76378772032349),24,-7,13,yes,x,5,x,0.520942199998899,1,57,test1,4,0.5211357999996835,-52.0
12,lyt,f,21,r,1,(-3.163262682197613e-14, -172.20000000000002),27,7,3,no,m,6,m,0.6784275000009075,1,58,test1,4,0.679696100000001,-52.0
12,lyt,f,21,r,1,(1.0544208940658713e-14, 172.20000000000002),23,-25,14,yes,x,5,x,0.4248708000013721,1,59,test1,4,0.42499750000024505,-70.0
12,lyt,f,21,r,1,(172.20000000000002, 0.0),21,3,1,yes,x,5,m,0.4917662999996537,0,60,test1,4,0.49194559999887133,-42.0
12,lyt,f,21,r,1,(-3.163262682197613e-14, -172.20000000000002),27,-25,14,yes,x,5,x,0.3811420000001817,1,61,test1,4,0.3812406999986706,-70.0
12,lyt,f,21,r,1,(-121.76378772032352, -121.76378772032348),26,3,1,yes,x,5,x,0.4746478000015486,1,62,test1,4,0.4747526999999536,-42.0
12,lyt,f,21,r,1,(1.0544208940658713e-14, 172.20000000000002),23,-7,13,no,m,6,m,0.89762520000113,1,63,test1,4,0.8977433000000019,-42.0
12,lyt,f,21,r,1,(1.0544208940658713e-14, 172.20000000000002),23,3,1,yes,x,5,m,0.9682692000005773,0,64,test1,4,0.9685961000013776,-42.0
12,lyt,f,21,r,1,(-121.76378772032348, 121.76378772032349),24,5,2,no,m,6,m,1.0230282000011357,1,65,test1,4,1.0232498000004853,-42.0
12,lyt,f,21,r,1,(-172.20000000000002, 2.1088417881317425e-14),25,5,2,yes,x,5,x,0.5118882000006124,1,66,test1,4,0.5120098000006692,-40.0
12,lyt,f,21,r,1,(-121.76378772032348, 121.76378772032349),24,7,3,yes,x,5,x,0.5629251999998814,1,67,test1,4,0.5633072999989963,-38.0
12,lyt,f,21,r,1,(121.76378772032349, 121.76378772032349),22,-7,13,yes,x,5,x,0.571218900000531,1,68,test1,4,0.5714982000008604,-52.0
12,lyt,f,21,r,1,(-121.76378772032352, -121.76378772032348),26,5,2,no,m,6,m,0.7591998999996576,1,69,test1,4,0.7593035000008967,-52.0
12,lyt,f,21,r,1,(-121.76378772032352, -121.76378772032348),26,5,2,yes,x,5,m,0.5793822999985423,0,70,test1,4,0.5796091000011074,-40.0
12,lyt,f,21,r,1,(-121.76378772032352, -121.76378772032348),26,25,4,no,m,6,m,0.7309414999999717,1,71,test1,4,0.7312141000002157,-40.0
12,lyt,f,21,r,1,(-121.76378772032352, -121.76378772032348),26,-7,13,yes,x,5,x,0.6052632000009908,1,72,test1,4,0.6059344000004785,-52.0
12,lyt,f,21,r,1,(-172.20000000000002, 2.1088417881317425e-14),25,-5,12,yes,x,5,x,0.6629142000001593,1,73,test1,4,0.6630138000000443,-50.0
12,lyt,f,21,r,1,(172.20000000000002, 0.0),21,3,1,yes,x,5,m,0.7277969000006124,0,74,test1,4,0.727923099999316,-42.0
12,lyt,f,21,r,1,(-3.163262682197613e-14, -172.20000000000002),27,-5,12,yes,x,5,x,0.8160198999994464,1,75,test1,4,0.8161768999998458,-50.0
12,lyt,f,21,r,1,(121.76378772032349, 121.76378772032349),22,-5,12,yes,x,5,x,0.7298217999996268,1,76,test1,4,0.7299528999992617,-50.0
12,lyt,f,21,r,1,(1.0544208940658713e-14, 172.20000000000002),23,25,4,no,m,6,x,0.9146036000001914,0,77,test1,4,0.9152874999999767,-50.0
12,lyt,f,21,r,1,(-121.76378772032352, -121.76378772032348),26,3,1,no,m,6,x,1.1444088999996893,0,78,test1,4,1.144507799999701,-50.0
12,lyt,f,21,r,1,(121.76378772032349, 121.76378772032349),22,3,1,yes,x,5,m,0.686926799999128,0,79,test1,4,0.687031699999352,-42.0
12,lyt,f,21,r,1,(-172.20000000000002, 2.1088417881317425e-14),25,5,2,no,m,6,m,0.5854340000005323,1,80,test1,4,0.5855554000008851,-42.0
12,lyt,f,21,r,1,(172.20000000000002, 0.0),21,-25,14,yes,x,5,x,0.4431105000003299,1,81,test1,4,0.44370559999879333,-70.0
12,lyt,f,21,r,1,(-3.163262682197613e-14, -172.20000000000002),27,-5,12,yes,x,5,x,0.804646500000672,1,82,test1,4,0.8051692000008188,-50.0
12,lyt,f,21,r,1,(-172.20000000000002, 2.1088417881317425e-14),25,25,4,yes,x,5,x,0.4245508999993035,1,83,test1,4,0.42517190000035043,-20.0
12,lyt,f,21,r,1,(-172.20000000000002, 2.1088417881317425e-14),25,-25,14,yes,x,5,x,0.5472895999992033,1,84,test1,4,0.5475198000003729,-70.0
12,lyt,f,21,r,1,(172.20000000000002, 0.0),21,-5,12,yes,x,5,x,0.8544443999999203,1,85,test1,4,0.8548983999990014,-50.0
12,lyt,f,21,r,1,(1.0544208940658713e-14, 172.20000000000002),23,3,1,yes,x,5,m,1.0930408000003808,0,86,test1,4,1.0936495999994804,-42.0
12,lyt,f,21,r,1,(1.0544208940658713e-14, 172.20000000000002),23,7,3,yes,x,5,x,0.4710254999990866,1,87,test1,4,0.4711411999996926,-38.0
12,lyt,f,21,r,1,(-121.76378772032348, 121.76378772032349),24,-5,12,yes,x,5,x,0.6509385999997903,1,88,test1,4,0.6515956999992341,-50.0
12,lyt,f,21,r,1,(-3.163262682197613e-14, -172.20000000000002),27,5,2,yes,x,5,x,0.7297739999994519,1,89,test1,4,0.729940399998668,-40.0
12,lyt,f,21,r,1,(-121.76378772032348, 121.76378772032349),24,7,3,yes,x,5,x,0.42585909999979776,1,90,test1,4,0.4259573999988788,-38.0
12,lyt,f,21,r,1,(-121.76378772032348, 121.76378772032349),24,3,1,no,m,6,m,0.7612971999988076,1,91,test1,4,0.761508399999002,-38.0
12,lyt,f,21,r,1,(121.76378772032346, -121.76378772032352),28,7,3,yes,x,5,x,0.5150386999994225,1,92,test1,4,0.5151398000016343,-38.0
12,lyt,f,21,r,1,(-121.76378772032348, 121.76378772032349),24,-3,11,yes,x,5,x,1.0025983000014094,1,93,test1,4,1.0028290999998717,-48.0
12,lyt,f,21,r,1,(172.20000000000002, 0.0),21,5,2,yes,x,5,x,0.5268544999998994,1,94,test1,4,0.5270723999983602,-40.0
12,lyt,f,21,r,1,(1.0544208940658713e-14, 172.20000000000002),23,-5,12,yes,x,5,x,0.6894045999997616,1,95,test1,4,0.6895254999999452,-50.0
12,lyt,f,21,r,1,(121.76378772032346, -121.76378772032352),28,-5,12,yes,x,5,x,0.6105265000005602,1,96,test1,4,0.6111440000004222,-50.0
12,lyt,f,21,r,1,(-3.163262682197613e-14, -172.20000000000002),27,-3,11,no,m,6,m,0.7201783000000432,1,1,test2,4,0.7204673999985971,-50.0
12,lyt,f,21,r,1,(-172.20000000000002, 2.1088417881317425e-14),25,-3,11,yes,x,5,m,0.8174935999995796,0,2,test2,4,0.8177880000002915,-48.0
12,lyt,f,21,r,1,(121.76378772032349, 121.76378772032349),22,25,4,no,m,6,x,0.5106611000010162,0,3,test2,4,0.5109153000012157,-48.0
12,lyt,f,21,r,1,(172.20000000000002, 0.0),21,-5,12,no,m,6,m,0.6575030000003608,1,4,test2,4,0.6579275999993115,-48.0
12,lyt,f,21,r,1,(-121.76378772032352, -121.76378772032348),26,5,2,yes,x,5,x,0.8828148000011424,1,5,test2,4,0.8830713999996078,-40.0
12,lyt,f,21,r,1,(121.76378772032346, -121.76378772032352),28,-7,13,no,m,6,m,0.6642125999987911,1,6,test2,4,0.6648302000012336,-40.0
12,lyt,f,21,r,1,(-3.163262682197613e-14, -172.20000000000002),27,7,3,yes,x,5,x,0.46050130000003264,1,7,test2,4,0.46062739999979385,-38.0
12,lyt,f,21,r,1,(121.76378772032346, -121.76378772032352),28,-3,11,no,m,6,m,0.6668393999989348,1,8,test2,4,0.6675394999983837,-38.0
12,lyt,f,21,r,1,(-121.76378772032348, 121.76378772032349),24,5,2,yes,x,5,x,0.4843853999991552,1,9,test2,4,0.4848318999993353,-40.0
12,lyt,f,21,r,1,(1.0544208940658713e-14, 172.20000000000002),23,-3,11,no,m,6,m,0.7404052999991109,1,10,test2,4,0.7405079999989539,-40.0
12,lyt,f,21,r,1,(-121.76378772032352, -121.76378772032348),26,-7,13,yes,x,5,x,0.5943781000005401,1,11,test2,4,0.59460880000006,-52.0
12,lyt,f,21,r,1,(121.76378772032349, 121.76378772032349),22,-25,14,yes,x,5,x,0.4981499999994412,1,12,test2,4,0.49824529999932565,-70.0
12,lyt,f,21,r,1,(121.76378772032349, 121.76378772032349),22,3,1,no,m,6,m,0.5829045999998925,1,13,test2,4,0.5834323000017321,-70.0
12,lyt,f,21,r,1,(-121.76378772032352, -121.76378772032348),26,-5,12,yes,x,5,x,0.4061643000004551,1,14,test2,4,0.40626239999983227,-50.0
12,lyt,f,21,r,1,(121.76378772032346, -121.76378772032352),28,5,2,no,m,6,m,0.8977817000013602,1,15,test2,4,0.8981382000001759,-50.0
12,lyt,f,21,r,1,(121.76378772032349, 121.76378772032349),22,7,3,no,m,6,m,0.49288999999953376,1,16,test2,4,0.4929910999999265,-50.0
12,lyt,f,21,r,1,(-172.20000000000002, 2.1088417881317425e-14),25,3,1,yes,x,5,m,0.4995329000012134,0,17,test2,4,0.49999170000046433,-42.0
12,lyt,f,21,r,1,(121.76378772032346, -121.76378772032352),28,-3,11,yes,x,5,m,0.6619575000004261,0,18,test2,4,0.6620560999999725,-48.0
12,lyt,f,21,r,1,(-172.20000000000002, 2.1088417881317425e-14),25,25,4,yes,x,5,x,0.4204081000007136,1,19,test2,4,0.42053429999941727,-20.0
12,lyt,f,21,r,1,(121.76378772032346, -121.76378772032352),28,7,3,no,m,6,m,0.738938299999063,1,20,test2,4,0.7392528000000311,-20.0
12,lyt,f,21,r,1,(121.76378772032346, -121.76378772032352),28,5,2,yes,x,5,x,0.5149235000008048,1,21,test2,4,0.5152352999994037,-40.0
12,lyt,f,21,r,1,(-121.76378772032348, 121.76378772032349),24,-3,11,no,m,6,m,0.5675066000003426,1,22,test2,4,0.5678884000008111,-40.0
12,lyt,f,21,r,1,(121.76378772032346, -121.76378772032352),28,-3,11,yes,x,5,m,0.5031478999990213,0,23,test2,4,0.5032452999985253,-48.0
12,lyt,f,21,r,1,(-121.76378772032348, 121.76378772032349),24,-25,14,yes,x,5,x,0.4334631999990961,1,24,test2,4,0.4337701000004017,-70.0
12,lyt,f,21,r,1,(172.20000000000002, 0.0),21,7,3,no,m,6,m,0.9249845999984245,1,25,test2,4,0.9252224000010756,-70.0
12,lyt,f,21,r,1,(121.76378772032349, 121.76378772032349),22,-3,11,yes,x,5,m,0.6300573999997141,0,26,test2,4,0.6302755000015168,-48.0
12,lyt,f,21,r,1,(121.76378772032349, 121.76378772032349),22,-7,13,no,m,6,m,0.6501697000003333,1,27,test2,4,0.6505149000004167,-48.0
12,lyt,f,21,r,1,(121.76378772032346, -121.76378772032352),28,-25,14,yes,x,5,x,0.4432698000000528,1,28,test2,4,0.4435661000006803,-70.0
12,lyt,f,21,r,1,(-121.76378772032352, -121.76378772032348),26,7,3,yes,x,5,x,0.6696032999989256,1,29,test2,4,0.6697029000006296,-38.0
12,lyt,f,21,r,1,(172.20000000000002, 0.0),21,-3,11,no,m,6,x,1.1069432000003872,0,30,test2,4,1.1071710000014718,-38.0
12,lyt,f,21,r,1,(-172.20000000000002, 2.1088417881317425e-14),25,-7,13,yes,x,5,x,0.4477143000003707,1,31,test2,4,0.4478459000001749,-52.0
12,lyt,f,21,r,1,(-121.76378772032352, -121.76378772032348),26,-5,12,no,m,6,m,0.74034230000143,1,32,test2,4,0.7407168999998248,-52.0
12,lyt,f,21,r,1,(-3.163262682197613e-14, -172.20000000000002),27,5,2,yes,x,5,x,0.39340959999935876,1,33,test2,4,0.393861200000174,-40.0
12,lyt,f,21,r,1,(1.0544208940658713e-14, 172.20000000000002),23,3,1,no,m,6,m,0.743900899999062,1,34,test2,4,0.7440019999994547,-40.0
12,lyt,f,21,r,1,(-121.76378772032348, 121.76378772032349),24,-5,12,yes,x,5,x,0.5003859999997076,1,35,test2,4,0.5005049000010331,-50.0
12,lyt,f,21,r,1,(-3.163262682197613e-14, -172.20000000000002),27,-7,13,no,m,6,x,0.46385190000000875,0,36,test2,4,0.46447749999970256,-50.0
12,lyt,f,21,r,1,(-121.76378772032348, 121.76378772032349),24,-25,14,no,m,6,m,0.6735379000001558,1,37,test2,4,0.6738962999988871,-50.0
12,lyt,f,21,r,1,(-3.163262682197613e-14, -172.20000000000002),27,-25,14,yes,x,5,x,0.4212450000013632,1,38,test2,4,0.42157030000089435,-70.0
12,lyt,f,21,r,1,(121.76378772032346, -121.76378772032352),28,7,3,yes,x,5,x,0.5629353999993327,1,39,test2,4,0.5630349000002752,-38.0
12,lyt,f,21,r,1,(172.20000000000002, 0.0),21,-7,13,yes,x,5,m,0.5151600999997754,0,40,test2,4,0.5154149000009056,-52.0
12,lyt,f,21,r,1,(172.20000000000002, 0.0),21,-7,13,yes,x,5,x,0.48160830000051646,1,41,test2,4,0.482248599999366,-52.0
12,lyt,f,21,r,1,(-172.20000000000002, 2.1088417881317425e-14),25,3,1,yes,x,5,x,0.8102522999997746,1,42,test2,4,0.8103536999988137,-42.0
12,lyt,f,21,r,1,(172.20000000000002, 0.0),21,-5,12,yes,x,5,x,0.5227087000002939,1,43,test2,4,0.522808100000475,-50.0
12,lyt,f,21,r,1,(-121.76378772032352, -121.76378772032348),26,-25,14,no,m,6,x,1.1083668999999645,0,44,test2,4,1.1087468999994599,-50.0
12,lyt,f,21,r,1,(-3.163262682197613e-14, -172.20000000000002),27,-5,12,no,m,6,x,0.6515760000002047,0,45,test2,4,0.6517714000001433,-50.0
12,lyt,f,21,r,1,(-172.20000000000002, 2.1088417881317425e-14),25,-25,14,yes,x,5,x,0.46134449999954086,1,46,test2,4,0.4614462999998068,-70.0
12,lyt,f,21,r,1,(1.0544208940658713e-14, 172.20000000000002),23,7,3,yes,x,5,x,0.4308072000003449,1,47,test2,4,0.4315265000004729,-38.0
12,lyt,f,21,r,1,(-121.76378772032352, -121.76378772032348),26,-25,14,yes,x,5,x,0.3985200999995868,1,48,test2,4,0.39895140000044194,-70.0
12,lyt,f,21,r,1,(1.0544208940658713e-14, 172.20000000000002),23,5,2,yes,x,5,x,0.46239410000089265,1,49,test2,4,0.46249229999921226,-40.0
12,lyt,f,21,r,1,(1.0544208940658713e-14, 172.20000000000002),23,-3,11,yes,x,5,x,0.8055174999990413,1,50,test2,4,0.8058332000000519,-48.0
12,lyt,f,21,r,1,(-172.20000000000002, 2.1088417881317425e-14),25,-3,11,no,m,6,m,0.6848429000001488,1,51,test2,4,0.6850567999990744,-48.0
12,lyt,f,21,r,1,(-121.76378772032348, 121.76378772032349),24,-5,12,no,m,6,m,0.6553156999998464,1,52,test2,4,0.6555817999997089,-48.0
12,lyt,f,21,r,1,(121.76378772032349, 121.76378772032349),22,25,4,yes,x,5,x,0.41347830000086105,1,53,test2,4,0.4138335999996343,-20.0
12,lyt,f,21,r,1,(-172.20000000000002, 2.1088417881317425e-14),25,-5,12,yes,x,5,x,0.9588848000003054,1,54,test2,4,0.9593971000012971,-50.0
12,lyt,f,21,r,1,(-121.76378772032352, -121.76378772032348),26,-3,11,no,m,6,m,0.958062499999869,1,55,test2,4,0.9581645999987813,-50.0
12,lyt,f,21,r,1,(172.20000000000002, 0.0),21,3,1,no,m,6,m,0.9692212999998446,1,56,test2,4,0.969358899999861,-50.0
12,lyt,f,21,r,1,(-121.76378772032352, -121.76378772032348),26,-3,11,yes,x,5,x,0.6201392999992095,1,57,test2,4,0.6202334999998129,-48.0
12,lyt,f,21,r,1,(1.0544208940658713e-14, 172.20000000000002),23,-25,14,no,m,6,m,0.6351116999994701,1,58,test2,4,0.6354217000007338,-48.0
