subj_id,subj_name,subj_gender ,subj_age,subj_handedness,subj_runNum,tar_l_x,tar_l_y,loc_code,tar_ori,tar_code,tar_pre ,cor_response,pre_code,subj_response,RT,correct,trial_num,type,bloc_num,dur, real_tar
13,mstp,m,22,r,1,(121.76378772032349, 121.76378772032349),22,-7,13,no,m,6,m,1.3378276000003098,1,1,prac,0,1.3380279999983031,0.0
13,mstp,m,22,r,1,(-121.76378772032348, 121.76378772032349),24,25,4,yes,x,5,x,0.7437475000042468,1,2,prac,0,0.7439922999983537,-20.0
13,mstp,m,22,r,1,(-121.76378772032348, 121.76378772032349),24,-5,12,yes,x,5,m,0.9315629999982775,0,3,prac,0,0.9316765000039595,-50.0
13,mstp,m,22,r,1,(121.76378772032349, 121.76378772032349),22,-25,14,yes,x,5,x,0.8145375999956741,1,4,prac,0,0.814654599998903,-70.0
13,mstp,m,22,r,1,(121.76378772032349, 121.76378772032349),22,7,3,yes,x,5,x,1.059639099999913,1,5,prac,0,1.0597529000006034,-38.0
13,mstp,m,22,r,1,(-172.20000000000002, 2.1088417881317425e-14),25,-3,11,yes,x,5,m,0.9052983000001404,0,6,prac,0,0.9055969999972149,-48.0
13,mstp,m,22,r,1,(-121.76378772032352, -121.76378772032348),26,-7,13,yes,x,5,x,1.0731023000043933,1,7,prac,0,1.0731997999973828,-52.0
13,mstp,m,22,r,1,(-3.163262682197613e-14, -172.20000000000002),27,-7,13,yes,x,5,x,0.9698167000024114,1,8,prac,0,0.9699498999980278,-52.0
13,mstp,m,22,r,1,(172.20000000000002, 0.0),21,5,2,yes,x,5,m,0.9408178000012413,0,9,prac,0,0.9415204000033555,-40.0
13,mstp,m,22,r,1,(-3.163262682197613e-14, -172.20000000000002),27,7,3,yes,x,5,x,0.77197729999898,1,10,prac,0,0.7721067000020412,-38.0
13,mstp,m,22,r,1,(121.76378772032349, 121.76378772032349),22,-3,11,yes,x,5,m,0.8784856999991462,0,11,prac,0,0.8786344000036479,-48.0
13,mstp,m,22,r,1,(-3.163262682197613e-14, -172.20000000000002),27,5,2,yes,x,5,x,0.6764105999973253,1,12,prac,0,0.6766194000010728,-40.0
13,mstp,m,22,r,1,(-121.76378772032348, 121.76378772032349),24,-7,13,yes,x,5,x,0.8780622000049334,1,13,prac,0,0.8786865000001853,-52.0
13,mstp,m,22,r,1,(-121.76378772032352, -121.76378772032348),26,7,3,yes,x,5,x,0.853309400001308,1,14,prac,0,0.853440099999716,-38.0
13,mstp,m,22,r,1,(-3.163262682197613e-14, -172.20000000000002),27,3,1,no,m,6,m,1.3161766000048374,1,15,prac,0,1.3164324999961536,-38.0
13,mstp,m,22,r,1,(1.0544208940658713e-14, 172.20000000000002),23,-25,14,yes,x,5,x,0.6599019999994198,1,16,prac,0,0.6603479000041261,-70.0
13,mstp,m,22,r,1,(-172.20000000000002, 2.1088417881317425e-14),25,25,4,yes,x,5,x,0.6602042000013171,1,17,prac,0,0.6603022999988752,-20.0
13,mstp,m,22,r,1,(121.76378772032346, -121.76378772032352),28,-3,11,yes,x,5,m,1.1587167999969097,0,18,prac,0,1.1589644999985467,-48.0
13,mstp,m,22,r,1,(172.20000000000002, 0.0),21,7,3,yes,x,5,x,1.0675479999990785,1,19,prac,0,1.0676516000021365,-38.0
13,mstp,m,22,r,1,(121.76378772032349, 121.76378772032349),22,5,2,no,m,6,m,1.1303488999983529,1,20,prac,0,1.1306312000015168,-38.0
13,mstp,m,22,r,1,(172.20000000000002, 0.0),21,7,3,no,m,6,m,1.902059600004577,1,1,test1,1,1.902281700000458,-38.0
13,mstp,m,22,r,1,(121.76378772032349, 121.76378772032349),22,-5,12,no,m,6,m,1.8867381000018213,1,2,test1,1,1.8868981999985408,-38.0
13,mstp,m,22,r,1,(-3.163262682197613e-14, -172.20000000000002),27,-3,11,yes,x,5,m,1.9487989000044763,0,3,test1,1,1.9490375999957905,-48.0
13,mstp,m,22,r,1,(121.76378772032349, 121.76378772032349),22,5,2,no,m,6,m,1.7508804999961285,1,4,test1,1,1.7509802999993553,-48.0
13,mstp,m,22,r,1,(1.0544208940658713e-14, 172.20000000000002),23,5,2,yes,x,5,x,1.1171296999964397,1,5,test1,1,1.1173750999951153,-40.0
13,mstp,m,22,r,1,(-121.76378772032348, 121.76378772032349),24,-3,11,no,m,6,m,1.6217191999967326,1,6,test1,1,1.621880400001828,-40.0
13,mstp,m,22,r,1,(-121.76378772032348, 121.76378772032349),24,7,3,no,m,6,m,1.5997309000013047,1,7,test1,1,1.5998975000038627,-40.0
13,mstp,m,22,r,1,(121.76378772032346, -121.76378772032352),28,-5,12,yes,x,5,x,1.667150599998422,1,8,test1,1,1.6672634999995353,-50.0
13,mstp,m,22,r,1,(-121.76378772032348, 121.76378772032349),24,5,2,no,m,6,None,None,0,9,test1,1,1.9801022999963607,-50.0
13,mstp,m,22,r,1,(1.0544208940658713e-14, 172.20000000000002),23,5,2,no,m,6,m,1.2202757000050042,1,10,test1,1,1.2204908999992767,-50.0
13,mstp,m,22,r,1,(-172.20000000000002, 2.1088417881317425e-14),25,-5,12,yes,x,5,x,1.654005899996264,1,11,test1,1,1.6542203000062727,-50.0
13,mstp,m,22,r,1,(1.0544208940658713e-14, 172.20000000000002),23,-25,14,no,m,6,m,1.6007959999988088,1,12,test1,1,1.6009013000002597,-50.0
13,mstp,m,22,r,1,(-121.76378772032348, 121.76378772032349),24,-5,12,no,m,6,m,1.5374370000063209,1,13,test1,1,1.5375595000004978,-50.0
13,mstp,m,22,r,1,(121.76378772032349, 121.76378772032349),22,-3,11,no,m,6,m,1.5323061000017333,1,14,test1,1,1.5325193000026047,-50.0
13,mstp,m,22,r,1,(-121.76378772032352, -121.76378772032348),26,25,4,yes,x,5,x,0.7294208000021172,1,15,test1,1,0.7299181000053068,-20.0
13,mstp,m,22,r,1,(121.76378772032349, 121.76378772032349),22,3,1,yes,x,5,m,1.57493439999962,0,16,test1,1,1.5750569000010728,-42.0
13,mstp,m,22,r,1,(172.20000000000002, 0.0),21,3,1,yes,x,5,m,1.3317421000028844,0,17,test1,1,1.3318451999948593,-42.0
13,mstp,m,22,r,1,(121.76378772032349, 121.76378772032349),22,7,3,no,m,6,m,1.579111400002148,1,18,test1,1,1.5792128000030061,-42.0
13,mstp,m,22,r,1,(121.76378772032346, -121.76378772032352),28,5,2,no,m,6,m,1.5509762000001501,1,19,test1,1,1.5512117000034777,-42.0
13,mstp,m,22,r,1,(-3.163262682197613e-14, -172.20000000000002),27,-25,14,yes,x,5,x,0.682617600003141,1,20,test1,1,0.682739899995795,-70.0
13,mstp,m,22,r,1,(1.0544208940658713e-14, 172.20000000000002),23,7,3,no,m,6,m,1.38761049999448,1,21,test1,1,1.3879024000052596,-70.0
13,mstp,m,22,r,1,(1.0544208940658713e-14, 172.20000000000002),23,7,3,yes,x,5,x,0.7754588999960106,1,22,test1,1,0.7760695999968448,-38.0
13,mstp,m,22,r,1,(121.76378772032346, -121.76378772032352),28,-7,13,no,m,6,m,0.9532319999998435,1,23,test1,1,0.9535065000018221,-38.0
13,mstp,m,22,r,1,(-3.163262682197613e-14, -172.20000000000002),27,7,3,yes,x,5,x,0.6188524000026518,1,24,test1,1,0.6190774999995483,-38.0
13,mstp,m,22,r,1,(-121.76378772032348, 121.76378772032349),24,-25,14,yes,x,5,x,0.5625897999998415,1,25,test1,1,0.5627547999974922,-70.0
13,mstp,m,22,r,1,(121.76378772032349, 121.76378772032349),22,-7,13,yes,x,5,x,0.6975545000022976,1,26,test1,1,0.6977095000038389,-52.0
13,mstp,m,22,r,1,(172.20000000000002, 0.0),21,-25,14,no,m,6,m,0.8276379000017187,1,27,test1,1,0.8278492000026745,-52.0
13,mstp,m,22,r,1,(-172.20000000000002, 2.1088417881317425e-14),25,7,3,yes,x,5,x,0.5528870999987703,1,28,test1,1,0.5530474999977741,-38.0
13,mstp,m,22,r,1,(-121.76378772032348, 121.76378772032349),24,25,4,yes,x,5,x,0.44660989999829326,1,29,test1,1,0.4469000999961281,-20.0
13,mstp,m,22,r,1,(121.76378772032346, -121.76378772032352),28,-7,13,yes,x,5,x,0.6156839999966905,1,30,test1,1,0.6161701999953948,-52.0
13,mstp,m,22,r,1,(-121.76378772032348, 121.76378772032349),24,5,2,yes,x,5,x,1.2522973000013735,1,31,test1,1,1.252586300004623,-40.0
13,mstp,m,22,r,1,(-3.163262682197613e-14, -172.20000000000002),27,-7,13,yes,x,5,x,0.5719535999960499,1,32,test1,1,0.5724412999988999,-52.0
13,mstp,m,22,r,1,(121.76378772032349, 121.76378772032349),22,-5,12,yes,x,5,x,1.2397954999978538,1,33,test1,1,1.240037099996698,-50.0
13,mstp,m,22,r,1,(1.0544208940658713e-14, 172.20000000000002),23,5,2,yes,x,5,x,0.7784466999946744,1,34,test1,1,0.7788647999987006,-40.0
13,mstp,m,22,r,1,(1.0544208940658713e-14, 172.20000000000002),23,-3,11,yes,x,5,m,1.2200962999995681,0,35,test1,1,1.2201974999989034,-48.0
13,mstp,m,22,r,1,(1.0544208940658713e-14, 172.20000000000002),23,3,1,yes,x,5,x,0.8939081999997143,1,36,test1,1,0.894040600003791,-42.0
13,mstp,m,22,r,1,(-172.20000000000002, 2.1088417881317425e-14),25,-25,14,yes,x,5,x,0.6759486000009929,1,37,test1,1,0.676124700003129,-70.0
13,mstp,m,22,r,1,(172.20000000000002, 0.0),21,-7,13,yes,x,5,x,0.7549871000010171,1,38,test1,1,0.7552127000017208,-52.0
13,mstp,m,22,r,1,(-172.20000000000002, 2.1088417881317425e-14),25,25,4,yes,x,5,x,0.4687343999976292,1,39,test1,1,0.4692974999998114,-20.0
13,mstp,m,22,r,1,(-121.76378772032348, 121.76378772032349),24,-7,13,yes,x,5,x,0.7075991000019712,1,40,test1,1,0.7085714999993797,-52.0
13,mstp,m,22,r,1,(1.0544208940658713e-14, 172.20000000000002),23,-3,11,yes,x,5,x,1.1236353999993298,1,41,test1,1,1.1237525999968057,-48.0
13,mstp,m,22,r,1,(172.20000000000002, 0.0),21,7,3,yes,x,5,x,0.5684000000037486,1,42,test1,1,0.5685463000045274,-38.0
13,mstp,m,22,r,1,(1.0544208940658713e-14, 172.20000000000002),23,25,4,no,m,6,m,1.409814799997548,1,43,test1,1,1.4100576999990153,-38.0
13,mstp,m,22,r,1,(121.76378772032349, 121.76378772032349),22,25,4,no,m,6,m,1.1876313999964623,1,44,test1,1,1.1877291000055266,-38.0
13,mstp,m,22,r,1,(-172.20000000000002, 2.1088417881317425e-14),25,3,1,no,m,6,m,1.5783748000030755,1,45,test1,1,1.5786217999993823,-38.0
13,mstp,m,22,r,1,(172.20000000000002, 0.0),21,-7,13,no,m,6,m,1.3114387999958126,1,46,test1,1,1.3116297999949893,-38.0
13,mstp,m,22,r,1,(121.76378772032346, -121.76378772032352),28,3,1,yes,x,5,m,1.4901637000002665,0,47,test1,1,1.490294700000959,-42.0
13,mstp,m,22,r,1,(-172.20000000000002, 2.1088417881317425e-14),25,7,3,yes,x,5,x,1.0682300999978906,1,48,test1,1,1.0683489000002737,-38.0
13,mstp,m,22,r,1,(-121.76378772032348, 121.76378772032349),24,7,3,yes,x,5,x,0.801082400001178,1,49,test1,1,0.8014439000035054,-38.0
13,mstp,m,22,r,1,(121.76378772032346, -121.76378772032352),28,-3,11,no,m,6,m,1.09439150000253,1,50,test1,1,1.0946750000002794,-38.0
13,mstp,m,22,r,1,(-3.163262682197613e-14, -172.20000000000002),27,25,4,no,m,6,m,1.4548589999976684,1,51,test1,1,1.4549853000062285,-38.0
13,mstp,m,22,r,1,(-3.163262682197613e-14, -172.20000000000002),27,7,3,yes,x,5,x,1.0803641000020434,1,52,test1,1,1.0807812999992166,-38.0
13,mstp,m,22,r,1,(-121.76378772032348, 121.76378772032349),24,-7,13,yes,x,5,x,0.656089800002519,1,53,test1,1,0.6563286999953561,-52.0
13,mstp,m,22,r,1,(172.20000000000002, 0.0),21,-5,12,yes,x,5,x,0.6752020999992965,1,54,test1,1,0.675300300004892,-50.0
13,mstp,m,22,r,1,(-121.76378772032348, 121.76378772032349),24,3,1,yes,x,5,m,1.163506699995196,0,55,test1,1,1.164197599995532,-42.0
13,mstp,m,22,r,1,(-3.163262682197613e-14, -172.20000000000002),27,-25,14,no,m,6,m,1.380449200005387,1,56,test1,1,1.380875199996808,-42.0
13,mstp,m,22,r,1,(-172.20000000000002, 2.1088417881317425e-14),25,-25,14,no,m,6,x,1.2721160000000964,0,57,test1,1,1.2724688999951468,-42.0
13,mstp,m,22,r,1,(121.76378772032349, 121.76378772032349),22,3,1,yes,x,5,x,0.9336812999972608,1,58,test1,1,0.9338420999993104,-42.0
13,mstp,m,22,r,1,(1.0544208940658713e-14, 172.20000000000002),23,7,3,yes,x,5,x,0.8758616000050097,1,59,test1,1,0.8761664999983623,-38.0
13,mstp,m,22,r,1,(-121.76378772032348, 121.76378772032349),24,3,1,no,m,6,m,1.189685000004829,1,60,test1,1,1.1897825000050943,-38.0
13,mstp,m,22,r,1,(1.0544208940658713e-14, 172.20000000000002),23,-5,12,yes,x,5,x,0.8679903000011109,1,61,test1,1,0.8682049999988521,-50.0
13,mstp,m,22,r,1,(-121.76378772032352, -121.76378772032348),26,-3,11,yes,x,5,m,1.2650534999993397,0,62,test1,1,1.2651800999956322,-48.0
13,mstp,m,22,r,1,(-121.76378772032352, -121.76378772032348),26,-3,11,no,m,6,m,1.4435831000009784,1,63,test1,1,1.444101100001717,-48.0
13,mstp,m,22,r,1,(172.20000000000002, 0.0),21,5,2,yes,x,5,x,0.7896522000010009,1,64,test1,1,0.7897853999966173,-40.0
13,mstp,m,22,r,1,(172.20000000000002, 0.0),21,25,4,yes,x,5,x,0.5121304999993299,1,65,test1,1,0.5127204000018537,-20.0
13,mstp,m,22,r,1,(-172.20000000000002, 2.1088417881317425e-14),25,25,4,yes,x,5,x,0.41917860000103246,1,66,test1,1,0.4193118000039249,-20.0
13,mstp,m,22,r,1,(-121.76378772032352, -121.76378772032348),26,5,2,yes,x,5,x,0.6045527000023867,1,67,test1,1,0.6046514000045136,-40.0
13,mstp,m,22,r,1,(121.76378772032346, -121.76378772032352),28,-5,12,no,m,6,m,1.5180948999986867,1,68,test1,1,1.51839309999923,-40.0
13,mstp,m,22,r,1,(121.76378772032346, -121.76378772032352),28,-3,11,yes,x,5,x,1.5010736999975052,1,69,test1,1,1.5012055999977747,-48.0
13,mstp,m,22,r,1,(-3.163262682197613e-14, -172.20000000000002),27,3,1,no,m,6,m,1.5026148000033572,1,70,test1,1,1.5032422000003862,-48.0
13,mstp,m,22,r,1,(-121.76378772032348, 121.76378772032349),24,-25,14,yes,x,5,x,0.48482720000174595,1,71,test1,1,0.4851448999979766,-70.0
13,mstp,m,22,r,1,(-3.163262682197613e-14, -172.20000000000002),27,5,2,yes,x,5,x,0.8002639999976964,1,72,test1,1,0.8004177999973763,-40.0
13,mstp,m,22,r,1,(121.76378772032346, -121.76378772032352),28,7,3,no,m,6,m,1.2448228999928688,1,73,test1,1,1.2449761999960174,-40.0
13,mstp,m,22,r,1,(-121.76378772032348, 121.76378772032349),24,3,1,yes,x,5,m,1.4223652000000584,0,74,test1,1,1.4225235999983852,-42.0
13,mstp,m,22,r,1,(-172.20000000000002, 2.1088417881317425e-14),25,5,2,no,m,6,m,1.6111158999992767,1,75,test1,1,1.6112198999981047,-42.0
13,mstp,m,22,r,1,(121.76378772032346, -121.76378772032352),28,7,3,yes,x,5,x,0.662713799996709,1,76,test1,1,0.6633156000025338,-38.0
13,mstp,m,22,r,1,(-3.163262682197613e-14, -172.20000000000002),27,3,1,yes,x,5,m,1.8362372999981744,0,77,test1,1,1.8364327999952366,-42.0
13,mstp,m,22,r,1,(121.76378772032346, -121.76378772032352),28,-25,14,yes,x,5,x,0.4875797999993665,1,78,test1,1,0.4877468999984558,-70.0
13,mstp,m,22,r,1,(-172.20000000000002, 2.1088417881317425e-14),25,-25,14,yes,x,5,x,0.4901945000019623,1,79,test1,1,0.49032679999800166,-70.0
13,mstp,m,22,r,1,(-172.20000000000002, 2.1088417881317425e-14),25,-7,13,yes,x,5,x,0.7963133000012022,1,80,test1,1,0.797111700005189,-52.0
13,mstp,m,22,r,1,(121.76378772032346, -121.76378772032352),28,5,2,yes,x,5,x,0.6129569999975502,1,81,test1,1,0.6132117999950424,-40.0
13,mstp,m,22,r,1,(-121.76378772032352, -121.76378772032348),26,-5,12,no,m,6,m,1.2572720999960438,1,82,test1,1,1.2577361000003293,-40.0
13,mstp,m,22,r,1,(-121.76378772032348, 121.76378772032349),24,25,4,yes,x,5,x,0.4763486000010744,1,83,test1,1,0.47688360000029206,-20.0
13,mstp,m,22,r,1,(-121.76378772032352, -121.76378772032348),26,-3,11,yes,x,5,m,1.18500249999488,0,84,test1,1,1.1851438000012422,-48.0
13,mstp,m,22,r,1,(-172.20000000000002, 2.1088417881317425e-14),25,3,1,yes,x,5,m,1.7300902999995742,0,85,test1,1,1.7306902999989688,-42.0
13,mstp,m,22,r,1,(-121.76378772032348, 121.76378772032349),24,-25,14,no,m,6,m,1.447231300000567,1,86,test1,1,1.4474958999999217,-42.0
13,mstp,m,22,r,1,(172.20000000000002, 0.0),21,3,1,no,m,6,m,1.5127498999936506,1,87,test1,1,1.5128782000028878,-42.0
13,mstp,m,22,r,1,(-121.76378772032348, 121.76378772032349),24,7,3,yes,x,5,x,0.7264839000054053,1,88,test1,1,0.7267957000003662,-38.0
13,mstp,m,22,r,1,(1.0544208940658713e-14, 172.20000000000002),23,25,4,yes,x,5,x,0.7169288000004599,1,89,test1,1,0.7171706000008271,-20.0
13,mstp,m,22,r,1,(172.20000000000002, 0.0),21,-5,12,no,m,6,m,1.7128393000020878,1,90,test1,1,1.713087900003302,-20.0
13,mstp,m,22,r,1,(-172.20000000000002, 2.1088417881317425e-14),25,7,3,no,m,6,m,1.711501000005228,1,91,test1,1,1.7117310999965412,-20.0
13,mstp,m,22,r,1,(-3.163262682197613e-14, -172.20000000000002),27,-3,11,no,m,6,m,1.7047334000017145,1,92,test1,1,1.7051091000030283,-20.0
13,mstp,m,22,r,1,(121.76378772032349, 121.76378772032349),22,-7,13,yes,x,5,x,0.6037815000017872,1,93,test1,1,0.6039535999952932,-52.0
13,mstp,m,22,r,1,(-121.76378772032348, 121.76378772032349),24,-3,11,yes,x,5,x,1.2733948000022792,1,94,test1,1,1.2734934000036446,-48.0
13,mstp,m,22,r,1,(-3.163262682197613e-14, -172.20000000000002),27,25,4,yes,x,5,x,0.5500303000007989,1,95,test1,1,0.5507084999990184,-20.0
13,mstp,m,22,r,1,(-121.76378772032352, -121.76378772032348),26,-7,13,no,m,6,m,1.7730885999990278,1,96,test1,1,1.7731992999979411,-20.0
13,mstp,m,22,r,1,(121.76378772032346, -121.76378772032352),28,-7,13,yes,x,5,x,0.5778300999954809,1,1,test2,1,0.577932400003192,-52.0
13,mstp,m,22,r,1,(-121.76378772032352, -121.76378772032348),26,3,1,yes,x,5,x,0.745070000004489,1,2,test2,1,0.7453643999979249,-42.0
13,mstp,m,22,r,1,(-121.76378772032352, -121.76378772032348),26,-7,13,yes,x,5,x,0.7704558000041288,1,3,test2,1,0.7706968999991659,-52.0
13,mstp,m,22,r,1,(-121.76378772032352, -121.76378772032348),26,-5,12,yes,x,5,x,0.7130298000047333,1,4,test2,1,0.7133338999992702,-50.0
13,mstp,m,22,r,1,(121.76378772032346, -121.76378772032352),28,-25,14,yes,x,5,x,0.40444070000376087,1,5,test2,1,0.4047063999969396,-70.0
13,mstp,m,22,r,1,(121.76378772032349, 121.76378772032349),22,-5,12,yes,x,5,x,0.5853429000053438,1,6,test2,1,0.5855854999972507,-50.0
13,mstp,m,22,r,1,(-121.76378772032352, -121.76378772032348),26,-25,14,no,m,6,m,0.971045199999935,1,7,test2,1,0.9717056000008597,-50.0
13,mstp,m,22,r,1,(172.20000000000002, 0.0),21,-25,14,yes,x,5,x,0.667788799997652,1,8,test2,1,0.668089400001918,-70.0
13,mstp,m,22,r,1,(172.20000000000002, 0.0),21,25,4,no,m,6,m,1.0710529999996652,1,9,test2,1,1.071197499994014,-70.0
13,mstp,m,22,r,1,(172.20000000000002, 0.0),21,-3,11,yes,x,5,x,1.2038356000048225,1,10,test2,1,1.2040353999982472,-48.0
13,mstp,m,22,r,1,(121.76378772032349, 121.76378772032349),22,3,1,no,m,6,m,1.2267185999953654,1,11,test2,1,1.2272437999999966,-48.0
13,mstp,m,22,r,1,(-121.76378772032352, -121.76378772032348),26,7,3,yes,x,5,x,0.5722187999999733,1,12,test2,1,0.5726491000023088,-38.0
13,mstp,m,22,r,1,(172.20000000000002, 0.0),21,5,2,no,m,6,m,1.0680632000003243,1,13,test2,1,1.0682887000002665,-38.0
13,mstp,m,22,r,1,(-121.76378772032348, 121.76378772032349),24,-3,11,yes,x,5,m,1.0808705000017653,0,14,test2,1,1.0811026000010315,-48.0
13,mstp,m,22,r,1,(-3.163262682197613e-14, -172.20000000000002),27,-5,12,no,m,6,m,1.7760926999981166,1,15,test2,1,1.7761945000020205,-48.0
13,mstp,m,22,r,1,(-172.20000000000002, 2.1088417881317425e-14),25,5,2,yes,x,5,x,0.6185467999966932,1,16,test2,1,0.6191720000060741,-40.0
13,mstp,m,22,r,1,(-3.163262682197613e-14, -172.20000000000002),27,5,2,no,m,6,m,1.221133600003668,1,17,test2,1,1.2212928000008105,-40.0
13,mstp,m,22,r,1,(121.76378772032349, 121.76378772032349),22,25,4,yes,x,5,x,0.5005063999997219,1,18,test2,1,0.5007170000026235,-20.0
13,mstp,m,22,r,1,(-3.163262682197613e-14, -172.20000000000002),27,-25,14,yes,x,5,x,0.4369296000004397,1,19,test2,1,0.437060800002655,-70.0
13,mstp,m,22,r,1,(-172.20000000000002, 2.1088417881317425e-14),25,5,2,yes,x,5,x,0.6015246999959345,1,20,test2,1,0.6016363000017009,-40.0
13,mstp,m,22,r,1,(-172.20000000000002, 2.1088417881317425e-14),25,-3,11,yes,x,5,x,1.4250006000002031,1,21,test2,1,1.42510040000343,-48.0
13,mstp,m,22,r,1,(1.0544208940658713e-14, 172.20000000000002),23,3,1,yes,x,5,x,1.6503394000028493,1,22,test2,1,1.6505913000000874,-42.0
13,mstp,m,22,r,1,(-172.20000000000002, 2.1088417881317425e-14),25,25,4,no,m,6,None,None,0,23,test2,1,1.9800880000038887,-42.0
13,mstp,m,22,r,1,(-121.76378772032352, -121.76378772032348),26,25,4,yes,x,5,x,0.4883135999989463,1,24,test2,1,0.488589000000502,-20.0
13,mstp,m,22,r,1,(121.76378772032349, 121.76378772032349),22,25,4,yes,x,5,x,0.49129830000310903,1,25,test2,1,0.4913976999960141,-20.0
13,mstp,m,22,r,1,(172.20000000000002, 0.0),21,-7,13,yes,x,5,x,0.9271282000045176,1,26,test2,1,0.9273705000014161,-52.0
13,mstp,m,22,r,1,(-121.76378772032348, 121.76378772032349),24,5,2,yes,x,5,x,0.7032441000046674,1,27,test2,1,0.7033614000029047,-40.0
13,mstp,m,22,r,1,(-121.76378772032352, -121.76378772032348),26,3,1,yes,x,5,m,1.3348107999991043,0,28,test2,1,1.335171899998386,-42.0
13,mstp,m,22,r,1,(-172.20000000000002, 2.1088417881317425e-14),25,3,1,yes,x,5,x,0.4920077999995556,1,29,test2,1,0.49210900000616675,-42.0
13,mstp,m,22,r,1,(-3.163262682197613e-14, -172.20000000000002),27,3,1,yes,x,5,m,1.4688860000023851,0,30,test2,1,1.4690743000028306,-42.0
13,mstp,m,22,r,1,(-172.20000000000002, 2.1088417881317425e-14),25,-7,13,no,m,6,m,1.5231437000038568,1,31,test2,1,1.5233083999992232,-42.0
13,mstp,m,22,r,1,(-121.76378772032352, -121.76378772032348),26,7,3,yes,x,5,x,0.5208723999967333,1,32,test2,1,0.5211510000008275,-38.0
13,mstp,m,22,r,1,(-121.76378772032348, 121.76378772032349),24,-5,12,yes,x,5,x,0.8486181000043871,1,33,test2,1,0.8491521999967517,-50.0
13,mstp,m,22,r,1,(1.0544208940658713e-14, 172.20000000000002),23,25,4,yes,x,5,x,0.451228900004935,1,34,test2,1,0.45144450000225333,-20.0
13,mstp,m,22,r,1,(172.20000000000002, 0.0),21,5,2,yes,x,5,x,0.8380992000020342,1,35,test2,1,0.8381994999945164,-40.0
13,mstp,m,22,r,1,(172.20000000000002, 0.0),21,7,3,yes,x,5,x,0.5367635000002338,1,36,test2,1,0.5369072999965283,-38.0
13,mstp,m,22,r,1,(172.20000000000002, 0.0),21,-5,12,yes,x,5,x,0.9590638000008767,1,37,test2,1,0.9591677999997046,-50.0
13,mstp,m,22,r,1,(121.76378772032346, -121.76378772032352),28,-5,12,yes,x,5,x,0.6394491000028211,1,38,test2,1,0.6396165000041947,-50.0
13,mstp,m,22,r,1,(-172.20000000000002, 2.1088417881317425e-14),25,-5,12,no,m,6,m,1.4749058000015793,1,39,test2,1,1.4750056999982917,-50.0
13,mstp,m,22,r,1,(121.76378772032349, 121.76378772032349),22,7,3,yes,x,5,x,0.6203221999967354,1,40,test2,1,0.6207739000019501,-38.0
13,mstp,m,22,r,1,(121.76378772032349, 121.76378772032349),22,5,2,yes,x,5,x,0.8995587999961572,1,41,test2,1,0.8998214000021107,-40.0
13,mstp,m,22,r,1,(172.20000000000002, 0.0),21,-25,14,yes,x,5,x,0.5217856999952346,1,42,test2,1,0.5218812000020989,-70.0
13,mstp,m,22,r,1,(-3.163262682197613e-14, -172.20000000000002),27,7,3,no,m,6,m,1.0859727999995812,1,43,test2,1,1.086285899997165,-70.0
13,mstp,m,22,r,1,(121.76378772032346, -121.76378772032352),28,3,1,no,m,6,m,1.0300867000041762,1,44,test2,1,1.0302172000010614,-70.0
13,mstp,m,22,r,1,(121.76378772032349, 121.76378772032349),22,-25,14,yes,x,5,x,0.45145939999929396,1,45,test2,1,0.4517054999960237,-70.0
13,mstp,m,22,r,1,(1.0544208940658713e-14, 172.20000000000002),23,-25,14,yes,x,5,x,0.4821038999943994,1,46,test2,1,0.48222160000295844,-70.0
13,mstp,m,22,r,1,(172.20000000000002, 0.0),21,-3,11,no,m,6,m,1.0948214000018197,1,47,test2,1,1.095053500001086,-70.0
13,mstp,m,22,r,1,(-172.20000000000002, 2.1088417881317425e-14),25,-5,12,yes,x,5,x,1.0283187000022735,1,48,test2,1,1.0284489999976358,-50.0
13,mstp,m,22,r,1,(-3.163262682197613e-14, -172.20000000000002),27,-7,13,no,m,6,m,1.2506981999977143,1,49,test2,1,1.251016599999275,-50.0
13,mstp,m,22,r,1,(-121.76378772032352, -121.76378772032348),26,7,3,no,m,6,m,1.207705699998769,1,50,test2,1,1.2079474999991362,-50.0
13,mstp,m,22,r,1,(-121.76378772032348, 121.76378772032349),24,-5,12,yes,x,5,x,0.818959399999585,1,51,test2,1,0.8190917999963858,-50.0
13,mstp,m,22,r,1,(-121.76378772032352, -121.76378772032348),26,25,4,no,m,6,m,1.2194203000035486,1,52,test2,1,1.2196377000000211,-50.0
13,mstp,m,22,r,1,(-121.76378772032352, -121.76378772032348),26,-7,13,yes,x,5,x,0.630489299997862,1,53,test2,1,0.6308016000039061,-52.0
13,mstp,m,22,r,1,(-121.76378772032352, -121.76378772032348),26,5,2,no,m,6,m,1.1759253999989596,1,54,test2,1,1.1760245000041323,-52.0
13,mstp,m,22,r,1,(1.0544208940658713e-14, 172.20000000000002),23,3,1,no,m,6,m,1.4004098000004888,1,55,test2,1,1.4005093999949167,-52.0
13,mstp,m,22,r,1,(-121.76378772032352, -121.76378772032348),26,-25,14,yes,x,5,x,0.4238846999942325,1,56,test2,1,0.4240107000005082,-70.0
13,mstp,m,22,r,1,(-3.163262682197613e-14, -172.20000000000002),27,-5,12,yes,x,5,x,0.5879652000003261,1,57,test2,1,0.5880933000007644,-50.0
13,mstp,m,22,r,1,(-3.163262682197613e-14, -172.20000000000002),27,-3,11,yes,x,5,x,1.0852405000041472,1,58,test2,1,1.0854808000003686,-48.0
13,mstp,m,22,r,1,(121.76378772032346, -121.76378772032352),28,5,2,yes,x,5,x,0.6257417999950121,1,59,test2,1,0.6258414999974775,-40.0
13,mstp,m,22,r,1,(121.76378772032346, -121.76378772032352),28,7,3,yes,x,5,x,0.4347822999989148,1,60,test2,1,0.4349962000051164,-38.0
13,mstp,m,22,r,1,(-3.163262682197613e-14, -172.20000000000002),27,-5,12,yes,x,5,x,0.47460359999968205,1,61,test2,1,0.4747222000005422,-50.0
13,mstp,m,22,r,1,(121.76378772032349, 121.76378772032349),22,-7,13,no,m,6,m,1.3884118999994826,1,62,test2,1,1.3885281999973813,-50.0
13,mstp,m,22,r,1,(121.76378772032346, -121.76378772032352),28,3,1,yes,x,5,x,0.4853402000007918,1,63,test2,1,0.48558670000056736,-42.0
13,mstp,m,22,r,1,(1.0544208940658713e-14, 172.20000000000002),23,-5,12,yes,x,5,x,0.6278884999992442,1,64,test2,1,0.6279911000019638,-50.0
13,mstp,m,22,r,1,(-121.76378772032352, -121.76378772032348),26,-25,14,yes,x,5,x,0.46026899999560555,1,65,test2,1,0.4607269999978598,-70.0
13,mstp,m,22,r,1,(172.20000000000002, 0.0),21,-3,11,yes,x,5,m,1.5253518000026816,0,66,test2,1,1.5254769000021042,-48.0
13,mstp,m,22,r,1,(1.0544208940658713e-14, 172.20000000000002),23,-25,14,yes,x,5,x,0.408192599999893,1,67,test2,1,0.4082940000007511,-70.0
13,mstp,m,22,r,1,(1.0544208940658713e-14, 172.20000000000002),23,-7,13,no,m,6,m,1.2862440000026254,1,68,test2,1,1.2866739999954007,-70.0
13,mstp,m,22,r,1,(121.76378772032349, 121.76378772032349),22,-25,14,yes,x,5,x,0.538843000002089,1,69,test2,1,0.5389431000003242,-70.0
13,mstp,m,22,r,1,(121.76378772032346, -121.76378772032352),28,25,4,yes,x,5,x,0.462723200005712,1,70,test2,1,0.46283630000107223,-20.0
13,mstp,m,22,r,1,(121.76378772032346, -121.76378772032352),28,-25,14,no,m,6,m,1.0279983000000357,1,71,test2,1,1.028167199998279,-20.0
13,mstp,m,22,r,1,(121.76378772032346, -121.76378772032352),28,25,4,no,m,6,m,1.1422741999995196,1,72,test2,1,1.1424528999996255,-20.0
13,mstp,m,22,r,1,(-121.76378772032352, -121.76378772032348),26,5,2,yes,x,5,x,0.7981182000003173,1,73,test2,1,0.7984464999972261,-40.0
13,mstp,m,22,r,1,(-121.76378772032348, 121.76378772032349),24,-7,13,no,m,6,m,1.0582177999967826,1,74,test2,1,1.0583152000035625,-40.0
13,mstp,m,22,r,1,(-121.76378772032352, -121.76378772032348),26,-5,12,yes,x,5,x,0.6358213999992586,1,75,test2,1,0.6360650999995414,-50.0
13,mstp,m,22,r,1,(-121.76378772032352, -121.76378772032348),26,3,1,no,m,6,m,1.0039397999935318,1,76,test2,1,1.004232300001604,-50.0
13,mstp,m,22,r,1,(-121.76378772032348, 121.76378772032349),24,25,4,no,m,6,m,0.6252261999979964,1,77,test2,1,0.6255470000032801,-50.0
13,mstp,m,22,r,1,(1.0544208940658713e-14, 172.20000000000002),23,-7,13,yes,x,5,x,0.5192027000011876,1,78,test2,1,0.5195827999996254,-52.0
13,mstp,m,22,r,1,(-172.20000000000002, 2.1088417881317425e-14),25,-7,13,yes,x,5,x,0.5235152999957791,1,79,test2,1,0.5236851000008755,-52.0
13,mstp,m,22,r,1,(-172.20000000000002, 2.1088417881317425e-14),25,-3,11,yes,x,5,m,1.0801435000030324,0,80,test2,1,1.0802766999986488,-48.0
13,mstp,m,22,r,1,(121.76378772032349, 121.76378772032349),22,-3,11,yes,x,5,m,1.0560719999994035,0,81,test2,1,1.0561883999980637,-48.0
13,mstp,m,22,r,1,(-3.163262682197613e-14, -172.20000000000002),27,5,2,yes,x,5,x,0.6746971000029589,1,82,test2,1,0.6749134999990929,-40.0
13,mstp,m,22,r,1,(-3.163262682197613e-14, -172.20000000000002),27,25,4,yes,x,5,x,0.48248579999926733,1,83,test2,1,0.48258509999868693,-20.0
13,mstp,m,22,r,1,(-3.163262682197613e-14, -172.20000000000002),27,-7,13,yes,x,5,x,0.47714450000057695,1,84,test2,1,0.47730670000601094,-52.0
13,mstp,m,22,r,1,(1.0544208940658713e-14, 172.20000000000002),23,-5,12,no,m,6,m,1.197255099999893,1,85,test2,1,1.1974294999963604,-52.0
13,mstp,m,22,r,1,(1.0544208940658713e-14, 172.20000000000002),23,-7,13,yes,x,5,x,0.654006800003117,1,86,test2,1,0.6541043000033824,-52.0
13,mstp,m,22,r,1,(172.20000000000002, 0.0),21,3,1,yes,x,5,x,1.8882866999992984,1,87,test2,1,1.888575500001025,-42.0
13,mstp,m,22,r,1,(121.76378772032349, 121.76378772032349),22,-25,14,no,m,6,m,1.1389316000058898,1,88,test2,1,1.1394485999990138,-42.0
13,mstp,m,22,r,1,(121.76378772032349, 121.76378772032349),22,7,3,yes,x,5,x,0.5167512999978499,1,89,test2,1,0.5168545999986236,-38.0
13,mstp,m,22,r,1,(121.76378772032349, 121.76378772032349),22,5,2,yes,x,5,x,0.5262318000022788,1,90,test2,1,0.5264568000056897,-40.0
13,mstp,m,22,r,1,(172.20000000000002, 0.0),21,25,4,yes,x,5,x,0.6115424999952666,1,91,test2,1,0.6116432999988319,-20.0
13,mstp,m,22,r,1,(121.76378772032346, -121.76378772032352),28,25,4,yes,x,5,x,0.4621079999997164,1,92,test2,1,0.4622587000048952,-20.0
13,mstp,m,22,r,1,(121.76378772032346, -121.76378772032352),28,-3,11,yes,x,5,x,1.1206916000010096,1,93,test2,1,1.1213577000016812,-48.0
13,mstp,m,22,r,1,(121.76378772032349, 121.76378772032349),22,-3,11,yes,x,5,m,1.5485017000028165,0,94,test2,1,1.5488915000023553,-48.0
13,mstp,m,22,r,1,(-172.20000000000002, 2.1088417881317425e-14),25,-3,11,no,m,6,m,1.3045248999987962,1,95,test2,1,1.3046796999988146,-48.0
13,mstp,m,22,r,1,(1.0544208940658713e-14, 172.20000000000002),23,-3,11,no,m,6,m,1.4048907000033068,1,96,test2,1,1.40500730000349,-48.0
13,mstp,m,22,r,1,(172.20000000000002, 0.0),21,7,3,no,m,6,m,1.418814199998451,1,1,test1,2,1.4189399000024423,-48.0
13,mstp,m,22,r,1,(121.76378772032349, 121.76378772032349),22,-5,12,no,m,6,m,1.4759180000037304,1,2,test1,2,1.4768257000032463,-48.0
13,mstp,m,22,r,1,(-3.163262682197613e-14, -172.20000000000002),27,-3,11,yes,x,5,x,1.057157900002494,1,3,test1,2,1.0572901999985334,-48.0
13,mstp,m,22,r,1,(121.76378772032349, 121.76378772032349),22,5,2,no,m,6,x,1.2965474000011454,0,4,test1,2,1.296699599995918,-48.0
13,mstp,m,22,r,1,(1.0544208940658713e-14, 172.20000000000002),23,5,2,yes,x,5,x,0.7315406999987317,1,5,test1,2,0.7317782000027364,-40.0
13,mstp,m,22,r,1,(-121.76378772032348, 121.76378772032349),24,-3,11,no,m,6,m,1.5637054000035278,1,6,test1,2,1.5642365999956382,-40.0
13,mstp,m,22,r,1,(-121.76378772032348, 121.76378772032349),24,7,3,no,m,6,x,1.5042729999986477,0,7,test1,2,1.504486600002565,-40.0
13,mstp,m,22,r,1,(121.76378772032346, -121.76378772032352),28,-5,12,yes,x,5,x,0.7135340999957407,1,8,test1,2,0.7136348999993061,-50.0
13,mstp,m,22,r,1,(-121.76378772032348, 121.76378772032349),24,5,2,no,m,6,None,None,0,9,test1,2,1.9801001000014367,-50.0
13,mstp,m,22,r,1,(1.0544208940658713e-14, 172.20000000000002),23,5,2,no,m,6,m,1.101545099998475,1,10,test1,2,1.1018886000019847,-50.0
13,mstp,m,22,r,1,(-172.20000000000002, 2.1088417881317425e-14),25,-5,12,yes,x,5,x,1.0190021000016714,1,11,test1,2,1.0192426999929012,-50.0
13,mstp,m,22,r,1,(1.0544208940658713e-14, 172.20000000000002),23,-25,14,no,m,6,x,0.8096264999985578,0,12,test1,2,0.8097262000010232,-50.0
13,mstp,m,22,r,1,(-121.76378772032348, 121.76378772032349),24,-5,12,no,m,6,None,None,0,13,test1,2,1.9801017999998294,-50.0
13,mstp,m,22,r,1,(121.76378772032349, 121.76378772032349),22,-3,11,no,m,6,m,1.6241235999987111,1,14,test1,2,1.6243562000017846,-50.0
13,mstp,m,22,r,1,(-121.76378772032352, -121.76378772032348),26,25,4,yes,x,5,x,0.6194554000030621,1,15,test1,2,0.6196975999991992,-20.0
13,mstp,m,22,r,1,(121.76378772032349, 121.76378772032349),22,3,1,yes,x,5,x,1.311502999997174,1,16,test1,2,1.3117433000006713,-42.0
13,mstp,m,22,r,1,(172.20000000000002, 0.0),21,3,1,yes,x,5,x,1.1680976999996346,1,17,test1,2,1.1682338999962667,-42.0
13,mstp,m,22,r,1,(121.76378772032349, 121.76378772032349),22,7,3,no,m,6,x,0.7010972999996739,0,18,test1,2,0.7012003999989247,-42.0
13,mstp,m,22,r,1,(121.76378772032346, -121.76378772032352),28,5,2,no,m,6,m,0.863290400004189,1,19,test1,2,0.8636660000047414,-42.0
13,mstp,m,22,r,1,(-3.163262682197613e-14, -172.20000000000002),27,-25,14,yes,x,5,x,0.48915259999921545,1,20,test1,2,0.4893067000011797,-70.0
13,mstp,m,22,r,1,(1.0544208940658713e-14, 172.20000000000002),23,7,3,no,m,6,m,1.5671404999957304,1,21,test1,2,1.56724380000378,-70.0
13,mstp,m,22,r,1,(1.0544208940658713e-14, 172.20000000000002),23,7,3,yes,x,5,x,0.7085613000017474,1,22,test1,2,0.708986300000106,-38.0
13,mstp,m,22,r,1,(121.76378772032346, -121.76378772032352),28,-7,13,no,m,6,m,1.4348093000007793,1,23,test1,2,1.4349437000055332,-38.0
13,mstp,m,22,r,1,(-3.163262682197613e-14, -172.20000000000002),27,7,3,yes,x,5,x,0.5619981000054395,1,24,test1,2,0.5624228000015137,-38.0
13,mstp,m,22,r,1,(-121.76378772032348, 121.76378772032349),24,-25,14,yes,x,5,x,0.5005989999990561,1,25,test1,2,0.5006970999966143,-70.0
13,mstp,m,22,r,1,(121.76378772032349, 121.76378772032349),22,-7,13,yes,x,5,x,0.8768598000024213,1,26,test1,2,0.8772440000029746,-52.0
13,mstp,m,22,r,1,(172.20000000000002, 0.0),21,-25,14,no,m,6,m,1.13031609999598,1,27,test1,2,1.1310847999993712,-52.0
13,mstp,m,22,r,1,(-172.20000000000002, 2.1088417881317425e-14),25,7,3,yes,x,5,x,0.5255283000005875,1,28,test1,2,0.5256930000032298,-38.0
13,mstp,m,22,r,1,(-121.76378772032348, 121.76378772032349),24,25,4,yes,x,5,x,0.47833130000071833,1,29,test1,2,0.47865399999864167,-20.0
13,mstp,m,22,r,1,(121.76378772032346, -121.76378772032352),28,-7,13,yes,x,5,x,0.4325734000012744,1,30,test1,2,0.43268520000128774,-52.0
13,mstp,m,22,r,1,(-121.76378772032348, 121.76378772032349),24,5,2,yes,x,5,x,0.47489479999785544,1,31,test1,2,0.4751051999992342,-40.0
13,mstp,m,22,r,1,(-3.163262682197613e-14, -172.20000000000002),27,-7,13,yes,x,5,x,0.6404135999982827,1,32,test1,2,0.6405783000009251,-52.0
13,mstp,m,22,r,1,(121.76378772032349, 121.76378772032349),22,-5,12,yes,x,5,x,1.0522633000000496,1,33,test1,2,1.0528839000035077,-50.0
13,mstp,m,22,r,1,(1.0544208940658713e-14, 172.20000000000002),23,5,2,yes,x,5,x,1.4923428000038257,1,34,test1,2,1.4927949000048102,-40.0
13,mstp,m,22,r,1,(1.0544208940658713e-14, 172.20000000000002),23,-3,11,yes,x,5,x,1.3789808000001358,1,35,test1,2,1.3792599999942468,-48.0
13,mstp,m,22,r,1,(1.0544208940658713e-14, 172.20000000000002),23,3,1,yes,x,5,x,0.7447614000047906,1,36,test1,2,0.7448619000060717,-42.0
13,mstp,m,22,r,1,(-172.20000000000002, 2.1088417881317425e-14),25,-25,14,yes,x,5,x,0.5460906000007526,1,37,test1,2,0.5461887999990722,-70.0
13,mstp,m,22,r,1,(172.20000000000002, 0.0),21,-7,13,yes,x,5,x,0.9666111000042292,1,38,test1,2,0.9668215999990935,-52.0
13,mstp,m,22,r,1,(-172.20000000000002, 2.1088417881317425e-14),25,25,4,yes,x,5,x,0.4219040000025416,1,39,test1,2,0.4220636999962153,-20.0
13,mstp,m,22,r,1,(-121.76378772032348, 121.76378772032349),24,-7,13,yes,x,5,x,1.1948135999991791,1,40,test1,2,1.1949172000022372,-52.0
13,mstp,m,22,r,1,(1.0544208940658713e-14, 172.20000000000002),23,-3,11,yes,x,5,x,1.4659470000042347,1,41,test1,2,1.4661433000001125,-48.0
13,mstp,m,22,r,1,(172.20000000000002, 0.0),21,7,3,yes,x,5,x,1.0396077999976114,1,42,test1,2,1.0397096000015154,-38.0
13,mstp,m,22,r,1,(1.0544208940658713e-14, 172.20000000000002),23,25,4,no,m,6,m,1.4950544000021182,1,43,test1,2,1.4952368999947794,-38.0
13,mstp,m,22,r,1,(121.76378772032349, 121.76378772032349),22,25,4,no,m,6,m,1.5363978000023053,1,44,test1,2,1.5369581000049948,-38.0
13,mstp,m,22,r,1,(-172.20000000000002, 2.1088417881317425e-14),25,3,1,no,m,6,m,1.6282801999986987,1,45,test1,2,1.6286115999973845,-38.0
13,mstp,m,22,r,1,(172.20000000000002, 0.0),21,-7,13,no,m,6,m,1.5030929999993532,1,46,test1,2,1.5032231000004685,-38.0
13,mstp,m,22,r,1,(121.76378772032346, -121.76378772032352),28,3,1,yes,x,5,x,0.8403252999996766,1,47,test1,2,0.8409887999951025,-42.0
13,mstp,m,22,r,1,(-172.20000000000002, 2.1088417881317425e-14),25,7,3,yes,x,5,x,0.5166249000030803,1,48,test1,2,0.5169058999963454,-38.0
13,mstp,m,22,r,1,(-121.76378772032348, 121.76378772032349),24,7,3,yes,x,5,x,0.5091641000035452,1,49,test1,2,0.5092819999990752,-38.0
13,mstp,m,22,r,1,(121.76378772032346, -121.76378772032352),28,-3,11,no,m,6,m,1.5540553000028012,1,50,test1,2,1.5541905999998562,-38.0
13,mstp,m,22,r,1,(-3.163262682197613e-14, -172.20000000000002),27,25,4,no,m,6,m,1.4107398000051035,1,51,test1,2,1.4109019999959855,-38.0
13,mstp,m,22,r,1,(-3.163262682197613e-14, -172.20000000000002),27,7,3,yes,x,5,x,0.5233045000059064,1,52,test1,2,0.523539100002381,-38.0
13,mstp,m,22,r,1,(-121.76378772032348, 121.76378772032349),24,-7,13,yes,x,5,x,0.4747752999974182,1,53,test1,2,0.4749064999996335,-52.0
13,mstp,m,22,r,1,(172.20000000000002, 0.0),21,-5,12,yes,x,5,x,1.3036914999975124,1,54,test1,2,1.3039305999991484,-50.0
13,mstp,m,22,r,1,(-121.76378772032348, 121.76378772032349),24,3,1,yes,x,5,m,1.2839937999960966,0,55,test1,2,1.284093700000085,-42.0
13,mstp,m,22,r,1,(-3.163262682197613e-14, -172.20000000000002),27,-25,14,no,m,6,m,1.209240200005297,1,56,test1,2,1.209465600004478,-42.0
13,mstp,m,22,r,1,(-172.20000000000002, 2.1088417881317425e-14),25,-25,14,no,m,6,m,1.0508116999990307,1,57,test1,2,1.0509134000021731,-42.0
13,mstp,m,22,r,1,(121.76378772032349, 121.76378772032349),22,3,1,yes,x,5,x,1.2164811000038753,1,58,test1,2,1.2165785000033793,-42.0
13,mstp,m,22,r,1,(1.0544208940658713e-14, 172.20000000000002),23,7,3,yes,x,5,x,0.5722357999984524,1,59,test1,2,0.5723952000043937,-38.0
13,mstp,m,22,r,1,(-121.76378772032348, 121.76378772032349),24,3,1,no,m,6,x,1.2820233999955235,0,60,test1,2,1.2826769000021159,-38.0
13,mstp,m,22,r,1,(1.0544208940658713e-14, 172.20000000000002),23,-5,12,yes,x,5,x,0.6380271999951219,1,61,test1,2,0.6381270999991102,-50.0
13,mstp,m,22,r,1,(-121.76378772032352, -121.76378772032348),26,-3,11,yes,x,5,x,1.4045875999945565,1,62,test1,2,1.4048426000008476,-48.0
13,mstp,m,22,r,1,(-121.76378772032352, -121.76378772032348),26,-3,11,no,m,6,m,1.390540799999144,1,63,test1,2,1.390781900001457,-48.0
13,mstp,m,22,r,1,(172.20000000000002, 0.0),21,5,2,yes,x,5,m,1.1303553000034299,0,64,test1,2,1.1307624999972177,-40.0
13,mstp,m,22,r,1,(172.20000000000002, 0.0),21,25,4,yes,x,5,x,0.4853147999965586,1,65,test1,2,0.48540700000012293,-20.0
13,mstp,m,22,r,1,(-172.20000000000002, 2.1088417881317425e-14),25,25,4,yes,x,5,x,0.4393482000014046,1,66,test1,2,0.4395576999959303,-20.0
13,mstp,m,22,r,1,(-121.76378772032352, -121.76378772032348),26,5,2,yes,x,5,x,1.770830900000874,1,67,test1,2,1.77109709999786,-40.0
13,mstp,m,22,r,1,(121.76378772032346, -121.76378772032352),28,-5,12,no,m,6,m,1.6299621999933152,1,68,test1,2,1.6300697999977274,-40.0
13,mstp,m,22,r,1,(121.76378772032346, -121.76378772032352),28,-3,11,yes,x,5,x,1.585009300004458,1,69,test1,2,1.5851432000054047,-48.0
13,mstp,m,22,r,1,(-3.163262682197613e-14, -172.20000000000002),27,3,1,no,m,6,m,1.8242443000053754,1,70,test1,2,1.824347100002342,-48.0
13,mstp,m,22,r,1,(-121.76378772032348, 121.76378772032349),24,-25,14,yes,x,5,x,0.5250975000017206,1,71,test1,2,0.5258298999979161,-70.0
13,mstp,m,22,r,1,(-3.163262682197613e-14, -172.20000000000002),27,5,2,yes,x,5,x,0.6751266000064788,1,72,test1,2,0.6753585999977076,-40.0
13,mstp,m,22,r,1,(121.76378772032346, -121.76378772032352),28,7,3,no,m,6,m,1.3601154999996652,1,73,test1,2,1.360379699995974,-40.0
13,mstp,m,22,r,1,(-121.76378772032348, 121.76378772032349),24,3,1,yes,x,5,x,1.0293940999981714,1,74,test1,2,1.0297840999992331,-42.0
13,mstp,m,22,r,1,(-172.20000000000002, 2.1088417881317425e-14),25,5,2,no,m,6,m,1.9260560000038822,1,75,test1,2,1.9261885000014445,-42.0
13,mstp,m,22,r,1,(121.76378772032346, -121.76378772032352),28,7,3,yes,x,5,x,0.6830580999958329,1,76,test1,2,0.6831812999953399,-38.0
13,mstp,m,22,r,1,(-3.163262682197613e-14, -172.20000000000002),27,3,1,yes,x,5,x,1.1643848000021535,1,77,test1,2,1.1648002000001725,-42.0
13,mstp,m,22,r,1,(121.76378772032346, -121.76378772032352),28,-25,14,yes,x,5,x,0.5802776999989874,1,78,test1,2,0.5805019000035827,-70.0
13,mstp,m,22,r,1,(-172.20000000000002, 2.1088417881317425e-14),25,-25,14,yes,x,5,x,0.47049780000088504,1,79,test1,2,0.47072920000209706,-70.0
13,mstp,m,22,r,1,(-172.20000000000002, 2.1088417881317425e-14),25,-7,13,yes,x,5,x,0.461846099999093,1,80,test1,2,0.46250770000187913,-52.0
13,mstp,m,22,r,1,(121.76378772032346, -121.76378772032352),28,5,2,yes,x,5,x,0.5982469000009587,1,81,test1,2,0.5989367000001948,-40.0
13,mstp,m,22,r,1,(-121.76378772032352, -121.76378772032348),26,-5,12,no,m,6,m,1.7178129999956582,1,82,test1,2,1.7179307999977027,-40.0
13,mstp,m,22,r,1,(-121.76378772032348, 121.76378772032349),24,25,4,yes,x,5,x,0.4953118000048562,1,83,test1,2,0.4954241999948863,-20.0
13,mstp,m,22,r,1,(-121.76378772032352, -121.76378772032348),26,-3,11,yes,x,5,x,1.062914100002672,1,84,test1,2,1.0632655000008526,-48.0
13,mstp,m,22,r,1,(-172.20000000000002, 2.1088417881317425e-14),25,3,1,yes,x,5,x,1.438097900005232,1,85,test1,2,1.4387324999988778,-42.0
13,mstp,m,22,r,1,(-121.76378772032348, 121.76378772032349),24,-25,14,no,m,6,m,1.305408799998986,1,86,test1,2,1.3057601999971666,-42.0
13,mstp,m,22,r,1,(172.20000000000002, 0.0),21,3,1,no,m,6,m,0.9348809000002802,1,87,test1,2,0.9350990000020829,-42.0
13,mstp,m,22,r,1,(-121.76378772032348, 121.76378772032349),24,7,3,yes,x,5,x,0.5478670000011334,1,88,test1,2,0.5480750999995507,-38.0
13,mstp,m,22,r,1,(1.0544208940658713e-14, 172.20000000000002),23,25,4,yes,x,5,x,0.4706794999947306,1,89,test1,2,0.4708816000056686,-20.0
13,mstp,m,22,r,1,(172.20000000000002, 0.0),21,-5,12,no,m,6,None,None,0,90,test1,2,1.9800909999976284,-20.0
13,mstp,m,22,r,1,(-172.20000000000002, 2.1088417881317425e-14),25,7,3,no,m,6,m,1.1404436000011628,1,91,test1,2,1.140853300006711,-20.0
13,mstp,m,22,r,1,(-3.163262682197613e-14, -172.20000000000002),27,-3,11,no,m,6,m,1.344472600001609,1,92,test1,2,1.3446478999976534,-20.0
13,mstp,m,22,r,1,(121.76378772032349, 121.76378772032349),22,-7,13,yes,x,5,x,0.8097070000003441,1,93,test1,2,0.8099984000000404,-52.0
13,mstp,m,22,r,1,(-121.76378772032348, 121.76378772032349),24,-3,11,yes,x,5,x,1.9123192999977618,1,94,test1,2,1.9125392999994801,-48.0
13,mstp,m,22,r,1,(-3.163262682197613e-14, -172.20000000000002),27,25,4,yes,x,5,x,0.5862707999986014,1,95,test1,2,0.5866767999978038,-20.0
13,mstp,m,22,r,1,(-121.76378772032352, -121.76378772032348),26,-7,13,no,m,6,m,0.9300390999997035,1,96,test1,2,0.9303371000059997,-20.0
13,mstp,m,22,r,1,(121.76378772032346, -121.76378772032352),28,-7,13,yes,x,5,x,0.8531125000008615,1,1,test2,2,0.853351500001736,-52.0
13,mstp,m,22,r,1,(-121.76378772032352, -121.76378772032348),26,3,1,yes,x,5,x,0.9134414000000106,1,2,test2,2,0.9137227000028361,-42.0
13,mstp,m,22,r,1,(-121.76378772032352, -121.76378772032348),26,-7,13,yes,x,5,x,0.7090475000004517,1,3,test2,2,0.7097558000023128,-52.0
13,mstp,m,22,r,1,(-121.76378772032352, -121.76378772032348),26,-5,12,yes,x,5,x,0.84046419999504,1,4,test2,2,0.8405684999961522,-50.0
13,mstp,m,22,r,1,(121.76378772032346, -121.76378772032352),28,-25,14,yes,x,5,x,0.4487871000019368,1,5,test2,2,0.4488899999996647,-70.0
13,mstp,m,22,r,1,(121.76378772032349, 121.76378772032349),22,-5,12,yes,x,5,x,0.9537162999986322,1,6,test2,2,0.9542115000003832,-50.0
13,mstp,m,22,r,1,(-121.76378772032352, -121.76378772032348),26,-25,14,no,m,6,m,1.3552612999992562,1,7,test2,2,1.3553657000011299,-50.0
13,mstp,m,22,r,1,(172.20000000000002, 0.0),21,-25,14,yes,x,5,x,0.46460749999823747,1,8,test2,2,0.464741599993431,-70.0
13,mstp,m,22,r,1,(172.20000000000002, 0.0),21,25,4,no,m,6,m,1.2055179000017233,1,9,test2,2,1.2057463999954052,-70.0
13,mstp,m,22,r,1,(172.20000000000002, 0.0),21,-3,11,yes,x,5,m,1.425694300000032,0,10,test2,2,1.4259057999952347,-48.0
13,mstp,m,22,r,1,(121.76378772032349, 121.76378772032349),22,3,1,no,m,6,m,1.6013215999992099,1,11,test2,2,1.6016294000000926,-48.0
13,mstp,m,22,r,1,(-121.76378772032352, -121.76378772032348),26,7,3,yes,x,5,x,0.5132599999997183,1,12,test2,2,0.5138095000002068,-38.0
13,mstp,m,22,r,1,(172.20000000000002, 0.0),21,5,2,no,m,6,m,1.1795858000041335,1,13,test2,2,1.180016300000716,-38.0
13,mstp,m,22,r,1,(-121.76378772032348, 121.76378772032349),24,-3,11,yes,x,5,x,1.4268041999966954,1,14,test2,2,1.4270940999995219,-48.0
13,mstp,m,22,r,1,(-3.163262682197613e-14, -172.20000000000002),27,-5,12,no,m,6,m,1.2635263999982271,1,15,test2,2,1.2636282999956165,-48.0
13,mstp,m,22,r,1,(-172.20000000000002, 2.1088417881317425e-14),25,5,2,yes,x,5,x,0.7037841000055778,1,16,test2,2,0.7040178999959608,-40.0
13,mstp,m,22,r,1,(-3.163262682197613e-14, -172.20000000000002),27,5,2,no,m,6,m,1.5092279999953462,1,17,test2,2,1.5095208999991883,-40.0
13,mstp,m,22,r,1,(121.76378772032349, 121.76378772032349),22,25,4,yes,x,5,x,0.45732789999601664,1,18,test2,2,0.45761449999554316,-20.0
13,mstp,m,22,r,1,(-3.163262682197613e-14, -172.20000000000002),27,-25,14,yes,x,5,x,0.48556260000623297,1,19,test2,2,0.48584570000093663,-70.0
13,mstp,m,22,r,1,(-172.20000000000002, 2.1088417881317425e-14),25,5,2,yes,x,5,x,0.8464641999962623,1,20,test2,2,0.8470474999994622,-40.0
13,mstp,m,22,r,1,(-172.20000000000002, 2.1088417881317425e-14),25,-3,11,yes,x,5,x,0.599426200002199,1,21,test2,2,0.6001208999950904,-48.0
13,mstp,m,22,r,1,(1.0544208940658713e-14, 172.20000000000002),23,3,1,yes,x,5,x,0.9949392999988049,1,22,test2,2,0.9950985000032233,-42.0
13,mstp,m,22,r,1,(-172.20000000000002, 2.1088417881317425e-14),25,25,4,no,m,6,x,1.8131343999993987,0,23,test2,2,1.813231199994334,-42.0
13,mstp,m,22,r,1,(-121.76378772032352, -121.76378772032348),26,25,4,yes,x,5,x,0.7369724999953178,1,24,test2,2,0.7370693999982905,-20.0
13,mstp,m,22,r,1,(121.76378772032349, 121.76378772032349),22,25,4,yes,x,5,x,0.4562835000033374,1,25,test2,2,0.45649580000463175,-20.0
13,mstp,m,22,r,1,(172.20000000000002, 0.0),21,-7,13,yes,x,5,x,0.5913472000029287,1,26,test2,2,0.5915859999950044,-52.0
13,mstp,m,22,r,1,(-121.76378772032348, 121.76378772032349),24,5,2,yes,x,5,x,0.8737131000016234,1,27,test2,2,0.8738671000028262,-40.0
13,mstp,m,22,r,1,(-121.76378772032352, -121.76378772032348),26,3,1,yes,x,5,x,0.9200888999985182,1,28,test2,2,0.9205546000011964,-42.0
13,mstp,m,22,r,1,(-172.20000000000002, 2.1088417881317425e-14),25,3,1,yes,x,5,x,0.6310431999954744,1,29,test2,2,0.631175099995744,-42.0
13,mstp,m,22,r,1,(-3.163262682197613e-14, -172.20000000000002),27,3,1,yes,x,5,x,1.3960977000024286,1,30,test2,2,1.3962029999966035,-42.0
13,mstp,m,22,r,1,(-172.20000000000002, 2.1088417881317425e-14),25,-7,13,no,m,6,m,1.7371079000004102,1,31,test2,2,1.7373227999996743,-42.0
13,mstp,m,22,r,1,(-121.76378772032352, -121.76378772032348),26,7,3,yes,x,5,x,0.5362015000064275,1,32,test2,2,0.5364963000029093,-38.0
13,mstp,m,22,r,1,(-121.76378772032348, 121.76378772032349),24,-5,12,yes,x,5,x,1.031743200001074,1,33,test2,2,1.0318780999950832,-50.0
13,mstp,m,22,r,1,(1.0544208940658713e-14, 172.20000000000002),23,25,4,yes,x,5,x,0.41872439999860944,1,34,test2,2,0.41912220000085654,-20.0
13,mstp,m,22,r,1,(172.20000000000002, 0.0),21,5,2,yes,x,5,x,0.5733513999948627,1,35,test2,2,0.5735377999953926,-40.0
13,mstp,m,22,r,1,(172.20000000000002, 0.0),21,7,3,yes,x,5,x,0.547937200004526,1,36,test2,2,0.5484421000001021,-38.0
13,mstp,m,22,r,1,(172.20000000000002, 0.0),21,-5,12,yes,x,5,x,0.863426600000821,1,37,test2,2,0.8636132000028738,-50.0
13,mstp,m,22,r,1,(121.76378772032346, -121.76378772032352),28,-5,12,yes,x,5,x,0.5766582999931416,1,38,test2,2,0.5769832000005408,-50.0
13,mstp,m,22,r,1,(-172.20000000000002, 2.1088417881317425e-14),25,-5,12,no,m,6,m,1.3997843000033754,1,39,test2,2,1.3998967000006814,-50.0
13,mstp,m,22,r,1,(121.76378772032349, 121.76378772032349),22,7,3,yes,x,5,x,0.6108760999995866,1,40,test2,2,0.6111009000014747,-38.0
13,mstp,m,22,r,1,(121.76378772032349, 121.76378772032349),22,5,2,yes,x,5,x,0.5121905000050901,1,41,test2,2,0.5122928999990108,-40.0
13,mstp,m,22,r,1,(172.20000000000002, 0.0),21,-25,14,yes,x,5,x,0.4473212000011699,1,42,test2,2,0.4474402999985614,-70.0
13,mstp,m,22,r,1,(-3.163262682197613e-14, -172.20000000000002),27,7,3,no,m,6,m,1.4273130000001402,1,43,test2,2,1.4274838999990607,-70.0
13,mstp,m,22,r,1,(121.76378772032346, -121.76378772032352),28,3,1,no,m,6,m,1.4474361000029603,1,44,test2,2,1.4475529999981518,-70.0
13,mstp,m,22,r,1,(121.76378772032349, 121.76378772032349),22,-25,14,yes,x,5,x,0.5604567999980645,1,45,test2,2,0.5605607999968925,-70.0
13,mstp,m,22,r,1,(1.0544208940658713e-14, 172.20000000000002),23,-25,14,yes,x,5,x,0.4989902000015718,1,46,test2,2,0.49908989999676123,-70.0
13,mstp,m,22,r,1,(172.20000000000002, 0.0),21,-3,11,no,m,6,m,1.4013875999953598,1,47,test2,2,1.4014844999983325,-70.0
13,mstp,m,22,r,1,(-172.20000000000002, 2.1088417881317425e-14),25,-5,12,yes,x,5,x,0.6536923000021488,1,48,test2,2,0.6538106999942102,-50.0
13,mstp,m,22,r,1,(-3.163262682197613e-14, -172.20000000000002),27,-7,13,no,m,6,m,1.1630408999990323,1,49,test2,2,1.1634451999998419,-50.0
13,mstp,m,22,r,1,(-121.76378772032352, -121.76378772032348),26,7,3,no,m,6,m,1.1620001000046614,1,50,test2,2,1.1622915000043577,-50.0
13,mstp,m,22,r,1,(-121.76378772032348, 121.76378772032349),24,-5,12,yes,x,5,x,0.9485385000007227,1,51,test2,2,0.9491953000033391,-50.0
13,mstp,m,22,r,1,(-121.76378772032352, -121.76378772032348),26,25,4,no,m,6,m,0.9996987999984412,1,52,test2,2,1.0005553000009968,-50.0
13,mstp,m,22,r,1,(-121.76378772032352, -121.76378772032348),26,-7,13,yes,x,5,x,0.6560146999981953,1,53,test2,2,0.6561157000032836,-52.0
13,mstp,m,22,r,1,(-121.76378772032352, -121.76378772032348),26,5,2,no,m,6,m,1.0759250999981305,1,54,test2,2,1.0762241000047652,-52.0
13,mstp,m,22,r,1,(1.0544208940658713e-14, 172.20000000000002),23,3,1,no,m,6,m,1.2287221000005957,1,55,test2,2,1.229039500001818,-52.0
13,mstp,m,22,r,1,(-121.76378772032352, -121.76378772032348),26,-25,14,yes,x,5,x,0.5400106999950367,1,56,test2,2,0.5402938999977778,-70.0
13,mstp,m,22,r,1,(-3.163262682197613e-14, -172.20000000000002),27,-5,12,yes,x,5,x,0.850977200003399,1,57,test2,2,0.851266099998611,-50.0
13,mstp,m,22,r,1,(-3.163262682197613e-14, -172.20000000000002),27,-3,11,yes,x,5,x,0.8452829999951064,1,58,test2,2,0.8453982999999425,-48.0
13,mstp,m,22,r,1,(121.76378772032346, -121.76378772032352),28,5,2,yes,x,5,x,0.6478098999941722,1,59,test2,2,0.6479120000003604,-40.0
13,mstp,m,22,r,1,(121.76378772032346, -121.76378772032352),28,7,3,yes,x,5,x,0.48682739999640035,1,60,test2,2,0.486928699996497,-38.0
13,mstp,m,22,r,1,(-3.163262682197613e-14, -172.20000000000002),27,-5,12,yes,x,5,x,0.6810986000054982,1,61,test2,2,0.6813339000000269,-50.0
13,mstp,m,22,r,1,(121.76378772032349, 121.76378772032349),22,-7,13,no,m,6,m,1.28133639999578,1,62,test2,2,1.281437099998584,-50.0
13,mstp,m,22,r,1,(121.76378772032346, -121.76378772032352),28,3,1,yes,x,5,x,0.9505537000004551,1,63,test2,2,0.9507770000054734,-42.0
13,mstp,m,22,r,1,(1.0544208940658713e-14, 172.20000000000002),23,-5,12,yes,x,5,x,0.5589714999950957,1,64,test2,2,0.5594880999997258,-50.0
13,mstp,m,22,r,1,(-121.76378772032352, -121.76378772032348),26,-25,14,yes,x,5,x,0.4585319999969215,1,65,test2,2,0.45917580000241287,-70.0
13,mstp,m,22,r,1,(172.20000000000002, 0.0),21,-3,11,yes,x,5,m,1.0061226999969222,0,66,test2,2,1.0062589000008302,-48.0
13,mstp,m,22,r,1,(1.0544208940658713e-14, 172.20000000000002),23,-25,14,yes,x,5,x,0.43733200000133365,1,67,test2,2,0.43756330000178423,-70.0
13,mstp,m,22,r,1,(1.0544208940658713e-14, 172.20000000000002),23,-7,13,no,m,6,m,1.4058651000013924,1,68,test2,2,1.4060849000015878,-70.0
13,mstp,m,22,r,1,(121.76378772032349, 121.76378772032349),22,-25,14,yes,x,5,x,0.45362430000386667,1,69,test2,2,0.4541239999962272,-70.0
13,mstp,m,22,r,1,(121.76378772032346, -121.76378772032352),28,25,4,yes,x,5,x,0.45358890000352403,1,70,test2,2,0.45369490000302903,-20.0
13,mstp,m,22,r,1,(121.76378772032346, -121.76378772032352),28,-25,14,no,m,6,m,0.9951451999950223,1,71,test2,2,0.9958119000002625,-20.0
13,mstp,m,22,r,1,(121.76378772032346, -121.76378772032352),28,25,4,no,m,6,m,1.0428866000002017,1,72,test2,2,1.0434715000010328,-20.0
13,mstp,m,22,r,1,(-121.76378772032352, -121.76378772032348),26,5,2,yes,x,5,x,0.729497000000265,1,73,test2,2,0.7296024999959627,-40.0
13,mstp,m,22,r,1,(-121.76378772032348, 121.76378772032349),24,-7,13,no,m,6,m,1.147222799998417,1,74,test2,2,1.147513900003105,-40.0
13,mstp,m,22,r,1,(-121.76378772032352, -121.76378772032348),26,-5,12,yes,x,5,x,0.8559502999996766,1,75,test2,2,0.8562263999992865,-50.0
13,mstp,m,22,r,1,(-121.76378772032352, -121.76378772032348),26,3,1,no,m,6,m,1.4266203999941354,1,76,test2,2,1.4271865999980946,-50.0
13,mstp,m,22,r,1,(-121.76378772032348, 121.76378772032349),24,25,4,no,m,6,m,0.7931853999980376,1,77,test2,2,0.7935897999996087,-50.0
13,mstp,m,22,r,1,(1.0544208940658713e-14, 172.20000000000002),23,-7,13,yes,x,5,x,0.5374783000006573,1,78,test2,2,0.5375931000016863,-52.0
13,mstp,m,22,r,1,(-172.20000000000002, 2.1088417881317425e-14),25,-7,13,yes,x,5,x,0.7319494999974268,1,79,test2,2,0.7327353000000585,-52.0
13,mstp,m,22,r,1,(-172.20000000000002, 2.1088417881317425e-14),25,-3,11,yes,x,5,m,0.9957933999976376,0,80,test2,2,0.9958950000000186,-48.0
13,mstp,m,22,r,1,(121.76378772032349, 121.76378772032349),22,-3,11,yes,x,5,m,1.472985799999151,0,81,test2,2,1.4731432999979006,-48.0
13,mstp,m,22,r,1,(-3.163262682197613e-14, -172.20000000000002),27,5,2,yes,x,5,x,0.5333936000024551,1,82,test2,2,0.5336223000049358,-40.0
13,mstp,m,22,r,1,(-3.163262682197613e-14, -172.20000000000002),27,25,4,yes,x,5,x,0.5014138999977149,1,83,test2,2,0.5016367000062019,-20.0
13,mstp,m,22,r,1,(-3.163262682197613e-14, -172.20000000000002),27,-7,13,yes,x,5,x,0.5385318000044208,1,84,test2,2,0.5386523999986821,-52.0
13,mstp,m,22,r,1,(1.0544208940658713e-14, 172.20000000000002),23,-5,12,no,m,6,m,1.432468400002108,1,85,test2,2,1.4326474000044982,-52.0
13,mstp,m,22,r,1,(1.0544208940658713e-14, 172.20000000000002),23,-7,13,yes,x,5,x,0.647518099998706,1,86,test2,2,0.6476493000009214,-52.0
13,mstp,m,22,r,1,(172.20000000000002, 0.0),21,3,1,yes,x,5,m,1.126669099998253,0,87,test2,2,1.1271804999996675,-42.0
13,mstp,m,22,r,1,(121.76378772032349, 121.76378772032349),22,-25,14,no,m,6,m,1.761099399998784,1,88,test2,2,1.7612621999942348,-42.0
13,mstp,m,22,r,1,(121.76378772032349, 121.76378772032349),22,7,3,yes,x,5,x,0.6540015999999014,1,89,test2,2,0.6541357999958564,-38.0
13,mstp,m,22,r,1,(121.76378772032349, 121.76378772032349),22,5,2,yes,x,5,x,0.5956004000036046,1,90,test2,2,0.5959734999996726,-40.0
13,mstp,m,22,r,1,(172.20000000000002, 0.0),21,25,4,yes,x,5,x,0.44554140000400366,1,91,test2,2,0.44566820000181906,-20.0
13,mstp,m,22,r,1,(121.76378772032346, -121.76378772032352),28,25,4,yes,x,5,x,0.4560462000008556,1,92,test2,2,0.4562733999991906,-20.0
13,mstp,m,22,r,1,(121.76378772032346, -121.76378772032352),28,-3,11,yes,x,5,x,0.9254963999992469,1,93,test2,2,0.9257188999981736,-48.0
13,mstp,m,22,r,1,(121.76378772032349, 121.76378772032349),22,-3,11,yes,x,5,x,1.3954100999981165,1,94,test2,2,1.395528100001684,-48.0
13,mstp,m,22,r,1,(-172.20000000000002, 2.1088417881317425e-14),25,-3,11,no,m,6,m,1.112576799998351,1,95,test2,2,1.1126766000015778,-48.0
13,mstp,m,22,r,1,(1.0544208940658713e-14, 172.20000000000002),23,-3,11,no,m,6,m,1.0208743999974104,1,96,test2,2,1.02143320000323,-48.0
13,mstp,m,22,r,1,(172.20000000000002, 0.0),21,7,3,no,m,6,m,1.3274463999987347,1,1,test1,3,1.3275619999985793,-48.0
13,mstp,m,22,r,1,(121.76378772032349, 121.76378772032349),22,-5,12,no,m,6,None,None,0,2,test1,3,1.9800805999984732,-48.0
13,mstp,m,22,r,1,(-3.163262682197613e-14, -172.20000000000002),27,-3,11,yes,x,5,m,1.3541483000008157,0,3,test1,3,1.3543301000026986,-48.0
13,mstp,m,22,r,1,(121.76378772032349, 121.76378772032349),22,5,2,no,m,6,m,1.197616499994183,1,4,test1,3,1.1977301000006264,-48.0
13,mstp,m,22,r,1,(1.0544208940658713e-14, 172.20000000000002),23,5,2,yes,x,5,x,0.739129800000228,1,5,test1,3,0.7393433999968693,-40.0
13,mstp,m,22,r,1,(-121.76378772032348, 121.76378772032349),24,-3,11,no,m,6,m,1.6238030000022263,1,6,test1,3,1.6239196000024094,-40.0
13,mstp,m,22,r,1,(-121.76378772032348, 121.76378772032349),24,7,3,no,m,6,m,1.736965500000224,1,7,test1,3,1.7374554999987595,-40.0
13,mstp,m,22,r,1,(121.76378772032346, -121.76378772032352),28,-5,12,yes,x,5,x,0.8960116000016569,1,8,test1,3,0.8961854000008316,-50.0
13,mstp,m,22,r,1,(-121.76378772032348, 121.76378772032349),24,5,2,no,m,6,m,1.2734501000013552,1,9,test1,3,1.2735497999965446,-50.0
13,mstp,m,22,r,1,(1.0544208940658713e-14, 172.20000000000002),23,5,2,no,m,6,m,1.1369006000022637,1,10,test1,3,1.137610500001756,-50.0
13,mstp,m,22,r,1,(-172.20000000000002, 2.1088417881317425e-14),25,-5,12,yes,x,5,x,0.7890936999974656,1,11,test1,3,0.7893293000015547,-50.0
13,mstp,m,22,r,1,(1.0544208940658713e-14, 172.20000000000002),23,-25,14,no,m,6,m,1.168654900000547,1,12,test1,3,1.168945999997959,-50.0
13,mstp,m,22,r,1,(-121.76378772032348, 121.76378772032349),24,-5,12,no,m,6,m,1.4265455000058864,1,13,test1,3,1.4268086000010953,-50.0
13,mstp,m,22,r,1,(121.76378772032349, 121.76378772032349),22,-3,11,no,m,6,m,1.4850025999985519,1,14,test1,3,1.4853957000013907,-50.0
13,mstp,m,22,r,1,(-121.76378772032352, -121.76378772032348),26,25,4,yes,x,5,x,0.5875957999960519,1,15,test1,3,0.5878971999991336,-20.0
13,mstp,m,22,r,1,(121.76378772032349, 121.76378772032349),22,3,1,yes,x,5,x,1.1110379999954603,1,16,test1,3,1.1113645000004908,-42.0
13,mstp,m,22,r,1,(172.20000000000002, 0.0),21,3,1,yes,x,5,x,1.3740627000006498,1,17,test1,3,1.3742706999983056,-42.0
13,mstp,m,22,r,1,(121.76378772032349, 121.76378772032349),22,7,3,no,m,6,m,1.4321528000000399,1,18,test1,3,1.4324980000019423,-42.0
13,mstp,m,22,r,1,(121.76378772032346, -121.76378772032352),28,5,2,no,m,6,m,1.454884900005709,1,19,test1,3,1.4551189000048907,-42.0
13,mstp,m,22,r,1,(-3.163262682197613e-14, -172.20000000000002),27,-25,14,yes,x,5,x,0.7994746999975177,1,20,test1,3,0.7997595999986515,-70.0
13,mstp,m,22,r,1,(1.0544208940658713e-14, 172.20000000000002),23,7,3,no,m,6,m,1.1464415999944322,1,21,test1,3,1.1467284000027576,-70.0
13,mstp,m,22,r,1,(1.0544208940658713e-14, 172.20000000000002),23,7,3,yes,x,5,x,0.6142091000001528,1,22,test1,3,0.6143209000001661,-38.0
13,mstp,m,22,r,1,(121.76378772032346, -121.76378772032352),28,-7,13,no,m,6,m,1.4265710000036051,1,23,test1,3,1.4266732999967644,-38.0
13,mstp,m,22,r,1,(-3.163262682197613e-14, -172.20000000000002),27,7,3,yes,x,5,x,0.5504556000014418,1,24,test1,3,0.550928999997268,-38.0
13,mstp,m,22,r,1,(-121.76378772032348, 121.76378772032349),24,-25,14,yes,x,5,x,0.469676900000195,1,25,test1,3,0.4700535999945714,-70.0
13,mstp,m,22,r,1,(121.76378772032349, 121.76378772032349),22,-7,13,yes,x,5,x,0.6444046999968123,1,26,test1,3,0.6445053999996162,-52.0
13,mstp,m,22,r,1,(172.20000000000002, 0.0),21,-25,14,no,m,6,m,1.0688341999994009,1,27,test1,3,1.068937600000936,-52.0
13,mstp,m,22,r,1,(-172.20000000000002, 2.1088417881317425e-14),25,7,3,yes,x,5,x,0.7128957000022638,1,28,test1,3,0.7131769999978133,-38.0
13,mstp,m,22,r,1,(-121.76378772032348, 121.76378772032349),24,25,4,yes,x,5,x,0.47041360000002896,1,29,test1,3,0.4707717999990564,-20.0
13,mstp,m,22,r,1,(121.76378772032346, -121.76378772032352),28,-7,13,yes,x,5,x,0.9144176999980118,1,30,test1,3,0.9145511000024271,-52.0
13,mstp,m,22,r,1,(-121.76378772032348, 121.76378772032349),24,5,2,yes,x,5,x,0.9747931999954744,1,31,test1,3,0.9748999999937951,-40.0
13,mstp,m,22,r,1,(-3.163262682197613e-14, -172.20000000000002),27,-7,13,yes,x,5,x,0.5542999999961467,1,32,test1,3,0.5544242000032682,-52.0
13,mstp,m,22,r,1,(121.76378772032349, 121.76378772032349),22,-5,12,yes,x,5,x,1.3320246000002953,1,33,test1,3,1.3322325999979512,-50.0
13,mstp,m,22,r,1,(1.0544208940658713e-14, 172.20000000000002),23,5,2,yes,x,5,x,1.1299638999989838,1,34,test1,3,1.1303143999975873,-40.0
13,mstp,m,22,r,1,(1.0544208940658713e-14, 172.20000000000002),23,-3,11,yes,x,5,x,0.905918999997084,1,35,test1,3,0.9060355000037816,-48.0
13,mstp,m,22,r,1,(1.0544208940658713e-14, 172.20000000000002),23,3,1,yes,x,5,x,0.6667417999997269,1,36,test1,3,0.6669790000014473,-42.0
13,mstp,m,22,r,1,(-172.20000000000002, 2.1088417881317425e-14),25,-25,14,yes,x,5,x,0.5275847000011709,1,37,test1,3,0.5276876999996603,-70.0
13,mstp,m,22,r,1,(172.20000000000002, 0.0),21,-7,13,yes,x,5,x,0.6139488999979221,1,38,test1,3,0.6140499000030104,-52.0
13,mstp,m,22,r,1,(-172.20000000000002, 2.1088417881317425e-14),25,25,4,yes,x,5,x,0.4191978999951971,1,39,test1,3,0.4198287999970489,-20.0
13,mstp,m,22,r,1,(-121.76378772032348, 121.76378772032349),24,-7,13,yes,x,5,x,0.49920850000489736,1,40,test1,3,0.49941930000204593,-52.0
13,mstp,m,22,r,1,(1.0544208940658713e-14, 172.20000000000002),23,-3,11,yes,x,5,x,1.1075015000023996,1,41,test1,3,1.107873599998129,-48.0
13,mstp,m,22,r,1,(172.20000000000002, 0.0),21,7,3,yes,x,5,x,0.7180169999992358,1,42,test1,3,0.718261000001803,-38.0
13,mstp,m,22,r,1,(1.0544208940658713e-14, 172.20000000000002),23,25,4,no,m,6,m,1.323493399999279,1,43,test1,3,1.3235946999993757,-38.0
13,mstp,m,22,r,1,(121.76378772032349, 121.76378772032349),22,25,4,no,m,6,m,1.266314100001182,1,44,test1,3,1.2666791000010562,-38.0
13,mstp,m,22,r,1,(-172.20000000000002, 2.1088417881317425e-14),25,3,1,no,m,6,m,1.1739495000001625,1,45,test1,3,1.174556500001927,-38.0
13,mstp,m,22,r,1,(172.20000000000002, 0.0),21,-7,13,no,m,6,m,1.2963486000007833,1,46,test1,3,1.2964477999994415,-38.0
13,mstp,m,22,r,1,(121.76378772032346, -121.76378772032352),28,3,1,yes,x,5,m,1.0696990999931586,0,47,test1,3,1.06985590000113,-42.0
13,mstp,m,22,r,1,(-172.20000000000002, 2.1088417881317425e-14),25,7,3,yes,x,5,x,0.6109006999977282,1,48,test1,3,0.6111234999989392,-38.0
13,mstp,m,22,r,1,(-121.76378772032348, 121.76378772032349),24,7,3,yes,x,5,x,0.5651912999965134,1,49,test1,3,0.5653155999971204,-38.0
13,mstp,m,22,r,1,(121.76378772032346, -121.76378772032352),28,-3,11,no,m,6,m,1.2486044999968726,1,50,test1,3,1.2487677000026451,-38.0
13,mstp,m,22,r,1,(-3.163262682197613e-14, -172.20000000000002),27,25,4,no,m,6,m,0.9543567000000621,1,51,test1,3,0.9545259000005899,-38.0
13,mstp,m,22,r,1,(-3.163262682197613e-14, -172.20000000000002),27,7,3,yes,x,5,x,0.5849015999992844,1,52,test1,3,0.5853628999975626,-38.0
13,mstp,m,22,r,1,(-121.76378772032348, 121.76378772032349),24,-7,13,yes,x,5,x,0.6270724999994854,1,53,test1,3,0.6272903999997652,-52.0
13,mstp,m,22,r,1,(172.20000000000002, 0.0),21,-5,12,yes,x,5,x,1.0575876000002609,1,54,test1,3,1.0584263999990071,-50.0
13,mstp,m,22,r,1,(-121.76378772032348, 121.76378772032349),24,3,1,yes,x,5,x,0.7177169999995385,1,55,test1,3,0.7186228000064148,-42.0
13,mstp,m,22,r,1,(-3.163262682197613e-14, -172.20000000000002),27,-25,14,no,m,6,m,0.9948905999990529,1,56,test1,3,0.9949927999987267,-42.0
13,mstp,m,22,r,1,(-172.20000000000002, 2.1088417881317425e-14),25,-25,14,no,m,6,m,0.6646306000038749,1,57,test1,3,0.6647340999988955,-42.0
13,mstp,m,22,r,1,(121.76378772032349, 121.76378772032349),22,3,1,yes,x,5,x,1.3113560999991023,1,58,test1,3,1.3115099999995437,-42.0
13,mstp,m,22,r,1,(1.0544208940658713e-14, 172.20000000000002),23,7,3,yes,x,5,x,0.6429576999944402,1,59,test1,3,0.6430719000054523,-38.0
13,mstp,m,22,r,1,(-121.76378772032348, 121.76378772032349),24,3,1,no,m,6,m,1.074760099996638,1,60,test1,3,1.0748769999991055,-38.0
13,mstp,m,22,r,1,(1.0544208940658713e-14, 172.20000000000002),23,-5,12,yes,x,5,x,0.7802551999993739,1,61,test1,3,0.780475599996862,-50.0
13,mstp,m,22,r,1,(-121.76378772032352, -121.76378772032348),26,-3,11,yes,x,5,x,0.9231283999979496,1,62,test1,3,0.9232898999980534,-48.0
13,mstp,m,22,r,1,(-121.76378772032352, -121.76378772032348),26,-3,11,no,m,6,m,1.004741800003103,1,63,test1,3,1.005578099997365,-48.0
13,mstp,m,22,r,1,(172.20000000000002, 0.0),21,5,2,yes,x,5,m,0.7483175000015763,0,64,test1,3,0.7485569999989821,-40.0
13,mstp,m,22,r,1,(172.20000000000002, 0.0),21,25,4,yes,x,5,x,0.585690899999463,1,65,test1,3,0.5859450999996625,-20.0
13,mstp,m,22,r,1,(-172.20000000000002, 2.1088417881317425e-14),25,25,4,yes,x,5,x,0.5833866999964812,1,66,test1,3,0.583714799999143,-20.0
13,mstp,m,22,r,1,(-121.76378772032352, -121.76378772032348),26,5,2,yes,x,5,x,0.6161644000021624,1,67,test1,3,0.616263700001582,-40.0
13,mstp,m,22,r,1,(121.76378772032346, -121.76378772032352),28,-5,12,no,m,6,m,1.181993699996383,1,68,test1,3,1.1820933999988483,-40.0
13,mstp,m,22,r,1,(121.76378772032346, -121.76378772032352),28,-3,11,yes,x,5,x,0.7593993999980739,1,69,test1,3,0.7596342000033474,-48.0
13,mstp,m,22,r,1,(-3.163262682197613e-14, -172.20000000000002),27,3,1,no,m,6,m,0.8544367000067723,1,70,test1,3,0.8545491000040784,-48.0
13,mstp,m,22,r,1,(-121.76378772032348, 121.76378772032349),24,-25,14,yes,x,5,x,0.4011882000049809,1,71,test1,3,0.4017773999948986,-70.0
13,mstp,m,22,r,1,(-3.163262682197613e-14, -172.20000000000002),27,5,2,yes,x,5,x,0.5781951999961166,1,72,test1,3,0.5784545999995316,-40.0
13,mstp,m,22,r,1,(121.76378772032346, -121.76378772032352),28,7,3,no,m,6,x,0.859998199994152,0,73,test1,3,0.8602361000012024,-40.0
13,mstp,m,22,r,1,(-121.76378772032348, 121.76378772032349),24,3,1,yes,x,5,m,1.533468299996457,0,74,test1,3,1.5335932000016328,-42.0
13,mstp,m,22,r,1,(-172.20000000000002, 2.1088417881317425e-14),25,5,2,no,m,6,x,1.141990000003716,0,75,test1,3,1.1423597000029986,-42.0
13,mstp,m,22,r,1,(121.76378772032346, -121.76378772032352),28,7,3,yes,x,5,x,0.6211980000007316,1,76,test1,3,0.6213118000014219,-38.0
13,mstp,m,22,r,1,(-3.163262682197613e-14, -172.20000000000002),27,3,1,yes,x,5,x,0.6044771999950171,1,77,test1,3,0.6046106999929179,-42.0
13,mstp,m,22,r,1,(121.76378772032346, -121.76378772032352),28,-25,14,yes,x,5,x,0.4758055999991484,1,78,test1,3,0.47590840000339085,-70.0
13,mstp,m,22,r,1,(-172.20000000000002, 2.1088417881317425e-14),25,-25,14,yes,x,5,x,0.481277200000477,1,79,test1,3,0.4813834000015049,-70.0
13,mstp,m,22,r,1,(-172.20000000000002, 2.1088417881317425e-14),25,-7,13,yes,x,5,x,0.5256898000006913,1,80,test1,3,0.5261386999991373,-52.0
13,mstp,m,22,r,1,(121.76378772032346, -121.76378772032352),28,5,2,yes,x,5,x,0.7386197000014363,1,81,test1,3,0.7387279999966267,-40.0
13,mstp,m,22,r,1,(-121.76378772032352, -121.76378772032348),26,-5,12,no,m,6,m,1.613834499999939,1,82,test1,3,1.6142468000034569,-40.0
13,mstp,m,22,r,1,(-121.76378772032348, 121.76378772032349),24,25,4,yes,x,5,x,0.4829306999963592,1,83,test1,3,0.48323000000527827,-20.0
13,mstp,m,22,r,1,(-121.76378772032352, -121.76378772032348),26,-3,11,yes,x,5,x,1.064449900004547,1,84,test1,3,1.0651026999985334,-48.0
13,mstp,m,22,r,1,(-172.20000000000002, 2.1088417881317425e-14),25,3,1,yes,x,5,x,0.9385517000046093,1,85,test1,3,0.9386796000035247,-42.0
13,mstp,m,22,r,1,(-121.76378772032348, 121.76378772032349),24,-25,14,no,m,6,m,0.7903432000020985,1,86,test1,3,0.7906207999985781,-42.0
13,mstp,m,22,r,1,(172.20000000000002, 0.0),21,3,1,no,m,6,m,0.8265535000027739,1,87,test1,3,0.827081100003852,-42.0
13,mstp,m,22,r,1,(-121.76378772032348, 121.76378772032349),24,7,3,yes,x,5,x,0.5232121000008192,1,88,test1,3,0.5234983000045759,-38.0
13,mstp,m,22,r,1,(1.0544208940658713e-14, 172.20000000000002),23,25,4,yes,x,5,x,0.47299850000126753,1,89,test1,3,0.4732210999936797,-20.0
13,mstp,m,22,r,1,(172.20000000000002, 0.0),21,-5,12,no,m,6,m,0.903894199997012,1,90,test1,3,0.9040528000041377,-20.0
13,mstp,m,22,r,1,(-172.20000000000002, 2.1088417881317425e-14),25,7,3,no,m,6,m,0.7238732000041637,1,91,test1,3,0.7241594000006444,-20.0
13,mstp,m,22,r,1,(-3.163262682197613e-14, -172.20000000000002),27,-3,11,no,m,6,m,0.6266586000056122,1,92,test1,3,0.6272332000007736,-20.0
13,mstp,m,22,r,1,(121.76378772032349, 121.76378772032349),22,-7,13,yes,x,5,m,0.7807536999971489,0,93,test1,3,0.7808522999985144,-52.0
13,mstp,m,22,r,1,(-121.76378772032348, 121.76378772032349),24,-3,11,yes,x,5,x,1.0955089999988559,1,94,test1,3,1.095638400001917,-48.0
13,mstp,m,22,r,1,(-3.163262682197613e-14, -172.20000000000002),27,25,4,yes,x,5,x,0.5516764999993029,1,95,test1,3,0.5518367999975453,-20.0
13,mstp,m,22,r,1,(-121.76378772032352, -121.76378772032348),26,-7,13,no,m,6,m,1.0125815000064904,1,96,test1,3,1.0127919000005932,-20.0
13,mstp,m,22,r,1,(121.76378772032346, -121.76378772032352),28,-7,13,yes,x,5,x,0.6243956000034814,1,1,test2,3,0.6246649000022444,-52.0
13,mstp,m,22,r,1,(-121.76378772032352, -121.76378772032348),26,3,1,yes,x,5,x,1.1973045000049751,1,2,test2,3,1.197984300000826,-42.0
13,mstp,m,22,r,1,(-121.76378772032352, -121.76378772032348),26,-7,13,yes,x,5,x,0.5821743000051356,1,3,test2,3,0.5823040999966906,-52.0
13,mstp,m,22,r,1,(-121.76378772032352, -121.76378772032348),26,-5,12,yes,x,5,x,0.7705015000028652,1,4,test2,3,0.770623099997465,-50.0
13,mstp,m,22,r,1,(121.76378772032346, -121.76378772032352),28,-25,14,yes,x,5,x,0.4841694999995525,1,5,test2,3,0.4847668000002159,-70.0
13,mstp,m,22,r,1,(121.76378772032349, 121.76378772032349),22,-5,12,yes,x,5,x,0.684403299994301,1,6,test2,3,0.6850546999994549,-50.0
13,mstp,m,22,r,1,(-121.76378772032352, -121.76378772032348),26,-25,14,no,m,6,m,1.238827900000615,1,7,test2,3,1.2389870999977575,-50.0
13,mstp,m,22,r,1,(172.20000000000002, 0.0),21,-25,14,yes,x,5,x,0.4575706000032369,1,8,test2,3,0.4577843999941251,-70.0
13,mstp,m,22,r,1,(172.20000000000002, 0.0),21,25,4,no,m,6,m,1.1383570000034524,1,9,test2,3,1.1384594999981346,-70.0
13,mstp,m,22,r,1,(172.20000000000002, 0.0),21,-3,11,yes,x,5,x,1.273025200003758,1,10,test2,3,1.2732127999988734,-48.0
13,mstp,m,22,r,1,(121.76378772032349, 121.76378772032349),22,3,1,no,m,6,m,1.1035680999993929,1,11,test2,3,1.1036670000030426,-48.0
13,mstp,m,22,r,1,(-121.76378772032352, -121.76378772032348),26,7,3,yes,x,5,x,0.7838111000019126,1,12,test2,3,0.7840476999990642,-38.0
13,mstp,m,22,r,1,(172.20000000000002, 0.0),21,5,2,no,m,6,m,1.0572517999971751,1,13,test2,3,1.0573866999984602,-38.0
13,mstp,m,22,r,1,(-121.76378772032348, 121.76378772032349),24,-3,11,yes,x,5,m,0.8201971000016783,0,14,test2,3,0.8208453000042937,-48.0
13,mstp,m,22,r,1,(-3.163262682197613e-14, -172.20000000000002),27,-5,12,no,m,6,m,0.7422257999933208,1,15,test2,3,0.7423264999961248,-48.0
13,mstp,m,22,r,1,(-172.20000000000002, 2.1088417881317425e-14),25,5,2,yes,x,5,x,0.5454295999952592,1,16,test2,3,0.5455427999986568,-40.0
13,mstp,m,22,r,1,(-3.163262682197613e-14, -172.20000000000002),27,5,2,no,m,6,m,1.0774850999951013,1,17,test2,3,1.0777792000008048,-40.0
13,mstp,m,22,r,1,(121.76378772032349, 121.76378772032349),22,25,4,yes,x,5,x,0.5100862999970559,1,18,test2,3,0.5101871999941068,-20.0
13,mstp,m,22,r,1,(-3.163262682197613e-14, -172.20000000000002),27,-25,14,yes,x,5,x,0.49416020000353456,1,19,test2,3,0.4946496999982628,-70.0
13,mstp,m,22,r,1,(-172.20000000000002, 2.1088417881317425e-14),25,5,2,yes,x,5,x,0.5096965999982785,1,20,test2,3,0.5098421000002418,-40.0
13,mstp,m,22,r,1,(-172.20000000000002, 2.1088417881317425e-14),25,-3,11,yes,x,5,x,0.6789702999958536,1,21,test2,3,0.6795068999999785,-48.0
13,mstp,m,22,r,1,(1.0544208940658713e-14, 172.20000000000002),23,3,1,yes,x,5,x,0.7185479999970994,1,22,test2,3,0.7186546000011731,-42.0
13,mstp,m,22,r,1,(-172.20000000000002, 2.1088417881317425e-14),25,25,4,no,m,6,x,1.2381198999937624,0,23,test2,3,1.2382185000024037,-42.0
13,mstp,m,22,r,1,(-121.76378772032352, -121.76378772032348),26,25,4,yes,x,5,x,0.5437261999977636,1,24,test2,3,0.5440416999990703,-20.0
13,mstp,m,22,r,1,(121.76378772032349, 121.76378772032349),22,25,4,yes,x,5,x,0.5880286999963573,1,25,test2,3,0.5881921000036527,-20.0
13,mstp,m,22,r,1,(172.20000000000002, 0.0),21,-7,13,yes,x,5,x,0.6438603999995394,1,26,test2,3,0.6439753000013297,-52.0
13,mstp,m,22,r,1,(-121.76378772032348, 121.76378772032349),24,5,2,yes,x,5,x,0.7083132000043406,1,27,test2,3,0.7086496000047191,-40.0
13,mstp,m,22,r,1,(-121.76378772032352, -121.76378772032348),26,3,1,yes,x,5,x,1.0017474999986007,1,28,test2,3,1.0020360000053188,-42.0
13,mstp,m,22,r,1,(-172.20000000000002, 2.1088417881317425e-14),25,3,1,yes,x,5,x,0.7308623999997508,1,29,test2,3,0.7310715999992681,-42.0
13,mstp,m,22,r,1,(-3.163262682197613e-14, -172.20000000000002),27,3,1,yes,x,5,x,0.9643059000009089,1,30,test2,3,0.9644404999999097,-42.0
13,mstp,m,22,r,1,(-172.20000000000002, 2.1088417881317425e-14),25,-7,13,no,m,6,m,1.260953299999528,1,31,test2,3,1.2614093999945908,-42.0
13,mstp,m,22,r,1,(-121.76378772032352, -121.76378772032348),26,7,3,yes,x,5,x,0.6354022999948938,1,32,test2,3,0.6355675000013434,-38.0
13,mstp,m,22,r,1,(-121.76378772032348, 121.76378772032349),24,-5,12,yes,x,5,x,0.5857178999940515,1,33,test2,3,0.5859567999941646,-50.0
13,mstp,m,22,r,1,(1.0544208940658713e-14, 172.20000000000002),23,25,4,yes,x,5,x,0.5037060000031488,1,34,test2,3,0.5039990000004764,-20.0
13,mstp,m,22,r,1,(172.20000000000002, 0.0),21,5,2,yes,x,5,x,0.7488755999947898,1,35,test2,3,0.7491637999992236,-40.0
13,mstp,m,22,r,1,(172.20000000000002, 0.0),21,7,3,yes,x,5,x,0.5878980999987107,1,36,test2,3,0.5883170000015525,-38.0
13,mstp,m,22,r,1,(172.20000000000002, 0.0),21,-5,12,yes,x,5,x,0.6635107999973116,1,37,test2,3,0.6636706999997841,-50.0
13,mstp,m,22,r,1,(121.76378772032346, -121.76378772032352),28,-5,12,yes,x,5,x,1.0458918000003905,1,38,test2,3,1.0460251999975299,-50.0
13,mstp,m,22,r,1,(-172.20000000000002, 2.1088417881317425e-14),25,-5,12,no,m,6,m,1.6315680000043358,1,39,test2,3,1.6316875999982585,-50.0
13,mstp,m,22,r,1,(121.76378772032349, 121.76378772032349),22,7,3,yes,x,5,x,0.6320439000046463,1,40,test2,3,0.6321472999989055,-38.0
13,mstp,m,22,r,1,(121.76378772032349, 121.76378772032349),22,5,2,yes,x,5,x,0.5944989999989048,1,41,test2,3,0.5948654999956489,-40.0
13,mstp,m,22,r,1,(172.20000000000002, 0.0),21,-25,14,yes,x,5,x,0.5692095999984303,1,42,test2,3,0.5693076999959885,-70.0
13,mstp,m,22,r,1,(-3.163262682197613e-14, -172.20000000000002),27,7,3,no,m,6,m,1.5662111999990884,1,43,test2,3,1.5663248999990174,-70.0
13,mstp,m,22,r,1,(121.76378772032346, -121.76378772032352),28,3,1,no,m,6,m,1.0772204999957466,1,44,test2,3,1.0774380000002566,-70.0
13,mstp,m,22,r,1,(121.76378772032349, 121.76378772032349),22,-25,14,yes,x,5,x,0.5276499000028707,1,45,test2,3,0.5277742999969632,-70.0
13,mstp,m,22,r,1,(1.0544208940658713e-14, 172.20000000000002),23,-25,14,yes,x,5,x,0.4649113999985275,1,46,test2,3,0.46519599999737693,-70.0
13,mstp,m,22,r,1,(172.20000000000002, 0.0),21,-3,11,no,m,6,m,1.061486500002502,1,47,test2,3,1.061656199999561,-70.0
13,mstp,m,22,r,1,(-172.20000000000002, 2.1088417881317425e-14),25,-5,12,yes,x,5,x,0.9932779999944614,1,48,test2,3,0.9935874000002514,-50.0
13,mstp,m,22,r,1,(-3.163262682197613e-14, -172.20000000000002),27,-7,13,no,m,6,m,0.8865483999979915,1,49,test2,3,0.8866479999996955,-50.0
13,mstp,m,22,r,1,(-121.76378772032352, -121.76378772032348),26,7,3,no,m,6,m,0.8872765999985859,1,50,test2,3,0.8873824999973294,-50.0
13,mstp,m,22,r,1,(-121.76378772032348, 121.76378772032349),24,-5,12,yes,x,5,x,0.620259299997997,1,51,test2,3,0.6203587999989395,-50.0
13,mstp,m,22,r,1,(-121.76378772032352, -121.76378772032348),26,25,4,no,m,6,m,0.8590120000008028,1,52,test2,3,0.8592356999943149,-50.0
13,mstp,m,22,r,1,(-121.76378772032352, -121.76378772032348),26,-7,13,yes,x,5,x,0.6711062999966089,1,53,test2,3,0.6714525999996113,-52.0
13,mstp,m,22,r,1,(-121.76378772032352, -121.76378772032348),26,5,2,no,m,6,m,1.3654753000009805,1,54,test2,3,1.3656368000010843,-52.0
13,mstp,m,22,r,1,(1.0544208940658713e-14, 172.20000000000002),23,3,1,no,m,6,m,1.3149924000026658,1,55,test2,3,1.3156139999991865,-52.0
13,mstp,m,22,r,1,(-121.76378772032352, -121.76378772032348),26,-25,14,yes,x,5,x,0.5003867999985232,1,56,test2,3,0.5007019999975455,-70.0
13,mstp,m,22,r,1,(-3.163262682197613e-14, -172.20000000000002),27,-5,12,yes,x,5,x,0.6329091000006883,1,57,test2,3,0.633170599998266,-50.0
13,mstp,m,22,r,1,(-3.163262682197613e-14, -172.20000000000002),27,-3,11,yes,x,5,x,0.6714123999990989,1,58,test2,3,0.6717793999996502,-48.0
13,mstp,m,22,r,1,(121.76378772032346, -121.76378772032352),28,5,2,yes,x,5,x,0.5761693000022206,1,59,test2,3,0.5767024000015226,-40.0
13,mstp,m,22,r,1,(121.76378772032346, -121.76378772032352),28,7,3,yes,x,5,x,0.4470703000042704,1,60,test2,3,0.447462700001779,-38.0
13,mstp,m,22,r,1,(-3.163262682197613e-14, -172.20000000000002),27,-5,12,yes,x,5,x,0.8513261999978567,1,61,test2,3,0.8514253999965149,-50.0
13,mstp,m,22,r,1,(121.76378772032349, 121.76378772032349),22,-7,13,no,m,6,m,1.1064228000032017,1,62,test2,3,1.1066324999992503,-50.0
13,mstp,m,22,r,1,(121.76378772032346, -121.76378772032352),28,3,1,yes,x,5,x,1.0139911000005668,1,63,test2,3,1.0141838000054122,-42.0
13,mstp,m,22,r,1,(1.0544208940658713e-14, 172.20000000000002),23,-5,12,yes,x,5,x,0.537995900005626,1,64,test2,3,0.5381598000021768,-50.0
13,mstp,m,22,r,1,(-121.76378772032352, -121.76378772032348),26,-25,14,yes,x,5,x,0.46640389999811305,1,65,test2,3,0.46669430000474676,-70.0
13,mstp,m,22,r,1,(172.20000000000002, 0.0),21,-3,11,yes,x,5,x,1.3939479999971809,1,66,test2,3,1.3940671000018483,-48.0
13,mstp,m,22,r,1,(1.0544208940658713e-14, 172.20000000000002),23,-25,14,yes,x,5,x,0.44261350000306265,1,67,test2,3,0.44276580000587273,-70.0
13,mstp,m,22,r,1,(1.0544208940658713e-14, 172.20000000000002),23,-7,13,no,m,6,m,1.161161500000162,1,68,test2,3,1.161262200002966,-70.0
13,mstp,m,22,r,1,(121.76378772032349, 121.76378772032349),22,-25,14,yes,x,5,x,0.4465602999989642,1,69,test2,3,0.4467207999987295,-70.0
13,mstp,m,22,r,1,(121.76378772032346, -121.76378772032352),28,25,4,yes,x,5,x,0.45944680000684457,1,70,test2,3,0.4599116999961552,-20.0
13,mstp,m,22,r,1,(121.76378772032346, -121.76378772032352),28,-25,14,no,m,6,m,0.9024038999996264,1,71,test2,3,0.9027392999996664,-20.0
13,mstp,m,22,r,1,(121.76378772032346, -121.76378772032352),28,25,4,no,m,6,m,0.8625487999961479,1,72,test2,3,0.8629861000008532,-20.0
13,mstp,m,22,r,1,(-121.76378772032352, -121.76378772032348),26,5,2,yes,x,5,x,0.7891549999985727,1,73,test2,3,0.7892569999967236,-40.0
13,mstp,m,22,r,1,(-121.76378772032348, 121.76378772032349),24,-7,13,no,m,6,m,0.8533387999996194,1,74,test2,3,0.8537599999981467,-40.0
13,mstp,m,22,r,1,(-121.76378772032352, -121.76378772032348),26,-5,12,yes,x,5,x,0.5827521000028355,1,75,test2,3,0.5831446000011056,-50.0
13,mstp,m,22,r,1,(-121.76378772032352, -121.76378772032348),26,3,1,no,m,6,m,0.6735259999986738,1,76,test2,3,0.6736727000024985,-50.0
13,mstp,m,22,r,1,(-121.76378772032348, 121.76378772032349),24,25,4,no,m,6,m,0.5532273999997415,1,77,test2,3,0.5533293999978923,-50.0
13,mstp,m,22,r,1,(1.0544208940658713e-14, 172.20000000000002),23,-7,13,yes,x,5,x,0.5277296999993268,1,78,test2,3,0.528338399999484,-52.0
13,mstp,m,22,r,1,(-172.20000000000002, 2.1088417881317425e-14),25,-7,13,yes,x,5,x,0.5920979999937117,1,79,test2,3,0.5922342999983812,-52.0
13,mstp,m,22,r,1,(-172.20000000000002, 2.1088417881317425e-14),25,-3,11,yes,x,5,x,0.8796237999995355,1,80,test2,3,0.8797216000020853,-48.0
13,mstp,m,22,r,1,(121.76378772032349, 121.76378772032349),22,-3,11,yes,x,5,x,1.1822881999978563,1,81,test2,3,1.182926800000132,-48.0
13,mstp,m,22,r,1,(-3.163262682197613e-14, -172.20000000000002),27,5,2,yes,x,5,x,0.7187074999965262,1,82,test2,3,0.7191955000016605,-40.0
13,mstp,m,22,r,1,(-3.163262682197613e-14, -172.20000000000002),27,25,4,yes,x,5,x,0.4841288000025088,1,83,test2,3,0.484457200000179,-20.0
13,mstp,m,22,r,1,(-3.163262682197613e-14, -172.20000000000002),27,-7,13,yes,x,5,x,0.6858204000018304,1,84,test2,3,0.6859270999993896,-52.0
13,mstp,m,22,r,1,(1.0544208940658713e-14, 172.20000000000002),23,-5,12,no,m,6,m,0.9503526999978931,1,85,test2,3,0.9508035000035306,-52.0
13,mstp,m,22,r,1,(1.0544208940658713e-14, 172.20000000000002),23,-7,13,yes,x,5,x,0.5899671000006492,1,86,test2,3,0.5903436000007787,-52.0
13,mstp,m,22,r,1,(172.20000000000002, 0.0),21,3,1,yes,x,5,m,1.3254487000012887,0,87,test2,3,1.3258315999992192,-42.0
13,mstp,m,22,r,1,(121.76378772032349, 121.76378772032349),22,-25,14,no,m,6,m,0.9906095999976969,1,88,test2,3,0.9909370000023046,-42.0
13,mstp,m,22,r,1,(121.76378772032349, 121.76378772032349),22,7,3,yes,x,5,x,0.6351979999963078,1,89,test2,3,0.6353796999974293,-38.0
13,mstp,m,22,r,1,(121.76378772032349, 121.76378772032349),22,5,2,yes,x,5,x,0.5949503999945591,1,90,test2,3,0.595203600001696,-40.0
13,mstp,m,22,r,1,(172.20000000000002, 0.0),21,25,4,yes,x,5,x,0.4518882999982452,1,91,test2,3,0.45198330000130227,-20.0
13,mstp,m,22,r,1,(121.76378772032346, -121.76378772032352),28,25,4,yes,x,5,x,0.44481709999672603,1,92,test2,3,0.44494459999987157,-20.0
13,mstp,m,22,r,1,(121.76378772032346, -121.76378772032352),28,-3,11,yes,x,5,x,1.3497190999987652,1,93,test2,3,1.350012399998377,-48.0
13,mstp,m,22,r,1,(121.76378772032349, 121.76378772032349),22,-3,11,yes,x,5,x,1.4320929999958025,1,94,test2,3,1.432410900000832,-48.0
13,mstp,m,22,r,1,(-172.20000000000002, 2.1088417881317425e-14),25,-3,11,no,m,6,m,0.925409800001944,1,95,test2,3,0.9258668999973452,-48.0
13,mstp,m,22,r,1,(1.0544208940658713e-14, 172.20000000000002),23,-3,11,no,m,6,m,0.9361982999980683,1,96,test2,3,0.9363560999991023,-48.0
13,mstp,m,22,r,1,(172.20000000000002, 0.0),21,7,3,no,m,6,m,1.8684893000026932,1,1,test1,4,1.8689690999963204,-48.0
13,mstp,m,22,r,1,(121.76378772032349, 121.76378772032349),22,-5,12,no,m,6,m,1.955495600006543,1,2,test1,4,1.9556494999997085,-48.0
13,mstp,m,22,r,1,(-3.163262682197613e-14, -172.20000000000002),27,-3,11,yes,x,5,x,1.333875899996201,1,3,test1,4,1.3343473999993876,-48.0
13,mstp,m,22,r,1,(121.76378772032349, 121.76378772032349),22,5,2,no,m,6,m,1.4826323999950546,1,4,test1,4,1.482946099997207,-48.0
13,mstp,m,22,r,1,(1.0544208940658713e-14, 172.20000000000002),23,5,2,yes,x,5,x,0.6142627999943215,1,5,test1,4,0.6143717999948421,-40.0
13,mstp,m,22,r,1,(-121.76378772032348, 121.76378772032349),24,-3,11,no,m,6,m,1.1996979000032297,1,6,test1,4,1.1998588999995263,-40.0
13,mstp,m,22,r,1,(-121.76378772032348, 121.76378772032349),24,7,3,no,m,6,m,1.2078963999956613,1,7,test1,4,1.2081074000016088,-40.0
13,mstp,m,22,r,1,(121.76378772032346, -121.76378772032352),28,-5,12,yes,x,5,x,0.65397220000159,1,8,test1,4,0.6541431000005105,-50.0
13,mstp,m,22,r,1,(-121.76378772032348, 121.76378772032349),24,5,2,no,m,6,m,1.3521077999976114,1,9,test1,4,1.3526253000018187,-50.0
13,mstp,m,22,r,1,(1.0544208940658713e-14, 172.20000000000002),23,5,2,no,m,6,m,1.2706439000030514,1,10,test1,4,1.2710463000039454,-50.0
13,mstp,m,22,r,1,(-172.20000000000002, 2.1088417881317425e-14),25,-5,12,yes,x,5,x,0.6351493000038317,1,11,test1,4,0.6353994000019156,-50.0
13,mstp,m,22,r,1,(1.0544208940658713e-14, 172.20000000000002),23,-25,14,no,m,6,m,0.85636489999888,1,12,test1,4,0.8564664000004996,-50.0
13,mstp,m,22,r,1,(-121.76378772032348, 121.76378772032349),24,-5,12,no,m,6,m,1.6142955000032089,1,13,test1,4,1.6148962000006577,-50.0
13,mstp,m,22,r,1,(121.76378772032349, 121.76378772032349),22,-3,11,no,m,6,m,0.8446063999945181,1,14,test1,4,0.8451847999967868,-50.0
13,mstp,m,22,r,1,(-121.76378772032352, -121.76378772032348),26,25,4,yes,x,5,x,0.4405304999963846,1,15,test1,4,0.4411093999951845,-20.0
13,mstp,m,22,r,1,(121.76378772032349, 121.76378772032349),22,3,1,yes,x,5,m,1.0924149999991641,0,16,test1,4,1.0926488999975845,-42.0
13,mstp,m,22,r,1,(172.20000000000002, 0.0),21,3,1,yes,x,5,x,1.0035210999994888,1,17,test1,4,1.0036947000044165,-42.0
13,mstp,m,22,r,1,(121.76378772032349, 121.76378772032349),22,7,3,no,m,6,m,0.8377798000001349,1,18,test1,4,0.8381217999994988,-42.0
13,mstp,m,22,r,1,(121.76378772032346, -121.76378772032352),28,5,2,no,m,6,m,1.163889299998118,1,19,test1,4,1.164192099997308,-42.0
13,mstp,m,22,r,1,(-3.163262682197613e-14, -172.20000000000002),27,-25,14,yes,x,5,x,0.5499443000007886,1,20,test1,4,0.5500781999944593,-70.0
13,mstp,m,22,r,1,(1.0544208940658713e-14, 172.20000000000002),23,7,3,no,m,6,m,1.2412448000031873,1,21,test1,4,1.241416199998639,-70.0
13,mstp,m,22,r,1,(1.0544208940658713e-14, 172.20000000000002),23,7,3,yes,x,5,x,0.5746670000007725,1,22,test1,4,0.5747689000054379,-38.0
13,mstp,m,22,r,1,(121.76378772032346, -121.76378772032352),28,-7,13,no,m,6,m,0.9021477999995113,1,23,test1,4,0.9022465999951237,-38.0
13,mstp,m,22,r,1,(-3.163262682197613e-14, -172.20000000000002),27,7,3,yes,x,5,x,0.6300167999943369,1,24,test1,4,0.6303627000015695,-38.0
13,mstp,m,22,r,1,(-121.76378772032348, 121.76378772032349),24,-25,14,yes,x,5,x,0.6427961000008509,1,25,test1,4,0.6429226000036579,-70.0
13,mstp,m,22,r,1,(121.76378772032349, 121.76378772032349),22,-7,13,yes,x,5,x,1.233636099997966,1,26,test1,4,1.2337382000041544,-52.0
13,mstp,m,22,r,1,(172.20000000000002, 0.0),21,-25,14,no,m,6,m,1.6576796000008471,1,27,test1,4,1.6579755000057048,-52.0
13,mstp,m,22,r,1,(-172.20000000000002, 2.1088417881317425e-14),25,7,3,yes,x,5,x,0.47083849999762606,1,28,test1,4,0.47107839999807766,-38.0
13,mstp,m,22,r,1,(-121.76378772032348, 121.76378772032349),24,25,4,yes,x,5,x,0.46690269999817247,1,29,test1,4,0.46700679999776185,-20.0
13,mstp,m,22,r,1,(121.76378772032346, -121.76378772032352),28,-7,13,yes,x,5,x,0.5646434999944177,1,30,test1,4,0.5649395000000368,-52.0
13,mstp,m,22,r,1,(-121.76378772032348, 121.76378772032349),24,5,2,yes,x,5,x,0.9019769000005908,1,31,test1,4,0.9021794000000227,-40.0
13,mstp,m,22,r,1,(-3.163262682197613e-14, -172.20000000000002),27,-7,13,yes,x,5,x,0.4924657000010484,1,32,test1,4,0.49317089999385644,-52.0
13,mstp,m,22,r,1,(121.76378772032349, 121.76378772032349),22,-5,12,yes,x,5,x,1.2260772000008728,1,33,test1,4,1.226404499997443,-50.0
13,mstp,m,22,r,1,(1.0544208940658713e-14, 172.20000000000002),23,5,2,yes,x,5,x,0.8130556999967666,1,34,test1,4,0.8132683999938308,-40.0
13,mstp,m,22,r,1,(1.0544208940658713e-14, 172.20000000000002),23,-3,11,yes,x,5,m,1.6364500999989104,0,35,test1,4,1.6365509999959613,-48.0
13,mstp,m,22,r,1,(1.0544208940658713e-14, 172.20000000000002),23,3,1,yes,x,5,x,0.7243474999995669,1,36,test1,4,0.7247865999961505,-42.0
13,mstp,m,22,r,1,(-172.20000000000002, 2.1088417881317425e-14),25,-25,14,yes,x,5,x,0.49698050000006333,1,37,test1,4,0.4975828999959049,-70.0
13,mstp,m,22,r,1,(172.20000000000002, 0.0),21,-7,13,yes,x,5,x,0.7265161999966949,1,38,test1,4,0.7266833999965456,-52.0
13,mstp,m,22,r,1,(-172.20000000000002, 2.1088417881317425e-14),25,25,4,yes,x,5,x,0.40365939999901457,1,39,test1,4,0.4039545000050566,-20.0
13,mstp,m,22,r,1,(-121.76378772032348, 121.76378772032349),24,-7,13,yes,x,5,x,0.8917329000032623,1,40,test1,4,0.8920161999994889,-52.0
13,mstp,m,22,r,1,(1.0544208940658713e-14, 172.20000000000002),23,-3,11,yes,x,5,x,0.9458817999984603,1,41,test1,4,0.9460703000004287,-48.0
13,mstp,m,22,r,1,(172.20000000000002, 0.0),21,7,3,yes,x,5,x,0.48197809999692254,1,42,test1,4,0.4821486000000732,-38.0
13,mstp,m,22,r,1,(1.0544208940658713e-14, 172.20000000000002),23,25,4,no,m,6,m,0.8900610000055167,1,43,test1,4,0.8903331999972579,-38.0
13,mstp,m,22,r,1,(121.76378772032349, 121.76378772032349),22,25,4,no,m,6,m,0.7931901999982074,1,44,test1,4,0.7933618999959435,-38.0
13,mstp,m,22,r,1,(-172.20000000000002, 2.1088417881317425e-14),25,3,1,no,m,6,m,0.7849405000015395,1,45,test1,4,0.7854126999955042,-38.0
13,mstp,m,22,r,1,(172.20000000000002, 0.0),21,-7,13,no,m,6,m,0.7550422999993316,1,46,test1,4,0.7556012999993982,-38.0
13,mstp,m,22,r,1,(121.76378772032346, -121.76378772032352),28,3,1,yes,x,5,x,0.9247399000014411,1,47,test1,4,0.9249073999963002,-42.0
13,mstp,m,22,r,1,(-172.20000000000002, 2.1088417881317425e-14),25,7,3,yes,x,5,x,0.5889555000030668,1,48,test1,4,0.589085999999952,-38.0
13,mstp,m,22,r,1,(-121.76378772032348, 121.76378772032349),24,7,3,yes,x,5,x,0.6114417999997386,1,49,test1,4,0.6118547000005492,-38.0
13,mstp,m,22,r,1,(121.76378772032346, -121.76378772032352),28,-3,11,no,m,6,m,0.8444537000032142,1,50,test1,4,0.8447088000029908,-38.0
13,mstp,m,22,r,1,(-3.163262682197613e-14, -172.20000000000002),27,25,4,no,m,6,m,0.8502028999937465,1,51,test1,4,0.8504484000004595,-38.0
13,mstp,m,22,r,1,(-3.163262682197613e-14, -172.20000000000002),27,7,3,yes,x,5,x,0.6528504000016255,1,52,test1,4,0.6531293000007281,-38.0
13,mstp,m,22,r,1,(-121.76378772032348, 121.76378772032349),24,-7,13,yes,x,5,x,0.6136295000032987,1,53,test1,4,0.6137283999996725,-52.0
13,mstp,m,22,r,1,(172.20000000000002, 0.0),21,-5,12,yes,x,5,x,0.6628009999985807,1,54,test1,4,0.663071700000728,-50.0
13,mstp,m,22,r,1,(-121.76378772032348, 121.76378772032349),24,3,1,yes,x,5,m,1.2432960999940406,0,55,test1,4,1.2436559999987367,-42.0
13,mstp,m,22,r,1,(-3.163262682197613e-14, -172.20000000000002),27,-25,14,no,m,6,m,1.3258241000003181,1,56,test1,4,1.3260464999984833,-42.0
13,mstp,m,22,r,1,(-172.20000000000002, 2.1088417881317425e-14),25,-25,14,no,m,6,m,0.7666660999966552,1,57,test1,4,0.7667670000009821,-42.0
13,mstp,m,22,r,1,(121.76378772032349, 121.76378772032349),22,3,1,yes,x,5,m,0.9375445999976364,0,58,test1,4,0.9376415000006091,-42.0
13,mstp,m,22,r,1,(1.0544208940658713e-14, 172.20000000000002),23,7,3,yes,x,5,x,0.5933426999981748,1,59,test1,4,0.5935615999987931,-38.0
13,mstp,m,22,r,1,(-121.76378772032348, 121.76378772032349),24,3,1,no,m,6,m,1.1050032999992254,1,60,test1,4,1.105355599996983,-38.0
13,mstp,m,22,r,1,(1.0544208940658713e-14, 172.20000000000002),23,-5,12,yes,x,5,x,0.5840794000032474,1,61,test1,4,0.5841769999969983,-50.0
13,mstp,m,22,r,1,(-121.76378772032352, -121.76378772032348),26,-3,11,yes,x,5,m,0.7463368000026094,0,62,test1,4,0.7464365999985603,-48.0
13,mstp,m,22,r,1,(-121.76378772032352, -121.76378772032348),26,-3,11,no,m,6,m,0.7858687999978429,1,63,test1,4,0.7859729000047082,-48.0
13,mstp,m,22,r,1,(172.20000000000002, 0.0),21,5,2,yes,x,5,x,0.6771584000016446,1,64,test1,4,0.6780699000009918,-40.0
13,mstp,m,22,r,1,(172.20000000000002, 0.0),21,25,4,yes,x,5,x,0.5195678000018233,1,65,test1,4,0.5200874000001932,-20.0
13,mstp,m,22,r,1,(-172.20000000000002, 2.1088417881317425e-14),25,25,4,yes,x,5,x,0.39033930000005057,1,66,test1,4,0.39046650000091176,-20.0
13,mstp,m,22,r,1,(-121.76378772032352, -121.76378772032348),26,5,2,yes,x,5,x,0.9804235999981756,1,67,test1,4,0.980745000000752,-40.0
13,mstp,m,22,r,1,(121.76378772032346, -121.76378772032352),28,-5,12,no,m,6,m,1.1903696000008495,1,68,test1,4,1.1912557000032393,-40.0
13,mstp,m,22,r,1,(121.76378772032346, -121.76378772032352),28,-3,11,yes,x,5,m,0.669336500002828,0,69,test1,4,0.6694349000026705,-48.0
13,mstp,m,22,r,1,(-3.163262682197613e-14, -172.20000000000002),27,3,1,no,m,6,m,0.6601229000007152,1,70,test1,4,0.6608997000003001,-48.0
13,mstp,m,22,r,1,(-121.76378772032348, 121.76378772032349),24,-25,14,yes,x,5,x,0.5835854999968433,1,71,test1,4,0.5840090999990935,-70.0
13,mstp,m,22,r,1,(-3.163262682197613e-14, -172.20000000000002),27,5,2,yes,x,5,x,0.7429182999985642,1,72,test1,4,0.7430182000025525,-40.0
13,mstp,m,22,r,1,(121.76378772032346, -121.76378772032352),28,7,3,no,m,6,m,1.4375553999998374,1,73,test1,4,1.4377858000007109,-40.0
13,mstp,m,22,r,1,(-121.76378772032348, 121.76378772032349),24,3,1,yes,x,5,m,1.3433403000017279,0,74,test1,4,1.3437689000056707,-42.0
13,mstp,m,22,r,1,(-172.20000000000002, 2.1088417881317425e-14),25,5,2,no,m,6,m,0.896524199997657,1,75,test1,4,0.8968047999951523,-42.0
13,mstp,m,22,r,1,(121.76378772032346, -121.76378772032352),28,7,3,yes,x,5,x,0.6277025000017602,1,76,test1,4,0.6279633000012836,-38.0
13,mstp,m,22,r,1,(-3.163262682197613e-14, -172.20000000000002),27,3,1,yes,x,5,x,0.5901058999952511,1,77,test1,4,0.5903323999955319,-42.0
13,mstp,m,22,r,1,(121.76378772032346, -121.76378772032352),28,-25,14,yes,x,5,x,0.4232876999958535,1,78,test1,4,0.4238656999950763,-70.0
13,mstp,m,22,r,1,(-172.20000000000002, 2.1088417881317425e-14),25,-25,14,yes,x,5,x,0.4130340000046999,1,79,test1,4,0.4131361999970977,-70.0
13,mstp,m,22,r,1,(-172.20000000000002, 2.1088417881317425e-14),25,-7,13,yes,x,5,x,0.457452499998908,1,80,test1,4,0.4575667000026442,-52.0
13,mstp,m,22,r,1,(121.76378772032346, -121.76378772032352),28,5,2,yes,x,5,x,0.6067703999942751,1,81,test1,4,0.6068929000030039,-40.0
13,mstp,m,22,r,1,(-121.76378772032352, -121.76378772032348),26,-5,12,no,m,6,m,0.7901358000017353,1,82,test1,4,0.7905799000000115,-40.0
13,mstp,m,22,r,1,(-121.76378772032348, 121.76378772032349),24,25,4,yes,x,5,x,0.4230807999992976,1,83,test1,4,0.42321040000388166,-20.0
13,mstp,m,22,r,1,(-121.76378772032352, -121.76378772032348),26,-3,11,yes,x,5,m,0.8416476999991573,0,84,test1,4,0.8418715000007069,-48.0
13,mstp,m,22,r,1,(-172.20000000000002, 2.1088417881317425e-14),25,3,1,yes,x,5,x,0.8477239999992889,1,85,test1,4,0.8478230999971856,-42.0
13,mstp,m,22,r,1,(-121.76378772032348, 121.76378772032349),24,-25,14,no,m,6,m,0.6763177999964682,1,86,test1,4,0.6764900999987731,-42.0
13,mstp,m,22,r,1,(172.20000000000002, 0.0),21,3,1,no,m,6,m,0.6432283999965875,1,87,test1,4,0.6434882000030484,-42.0
13,mstp,m,22,r,1,(-121.76378772032348, 121.76378772032349),24,7,3,yes,x,5,x,0.5942039000001387,1,88,test1,4,0.5944275999936508,-38.0
13,mstp,m,22,r,1,(1.0544208940658713e-14, 172.20000000000002),23,25,4,yes,x,5,x,0.41426250000222353,1,89,test1,4,0.41476540000439854,-20.0
13,mstp,m,22,r,1,(172.20000000000002, 0.0),21,-5,12,no,m,6,m,0.6704151000012644,1,90,test1,4,0.6706998999943607,-20.0
13,mstp,m,22,r,1,(-172.20000000000002, 2.1088417881317425e-14),25,7,3,no,m,6,m,0.7782175000029383,1,91,test1,4,0.7783869999984745,-20.0
13,mstp,m,22,r,1,(-3.163262682197613e-14, -172.20000000000002),27,-3,11,no,m,6,m,0.500096299998404,1,92,test1,4,0.5003542999984347,-20.0
13,mstp,m,22,r,1,(121.76378772032349, 121.76378772032349),22,-7,13,yes,x,5,x,0.9896760000046925,1,93,test1,4,0.9901473999998416,-52.0
13,mstp,m,22,r,1,(-121.76378772032348, 121.76378772032349),24,-3,11,yes,x,5,x,0.9746646999992663,1,94,test1,4,0.9749632000020938,-48.0
13,mstp,m,22,r,1,(-3.163262682197613e-14, -172.20000000000002),27,25,4,yes,x,5,x,0.460548100003507,1,95,test1,4,0.460653000001912,-20.0
13,mstp,m,22,r,1,(-121.76378772032352, -121.76378772032348),26,-7,13,no,m,6,m,0.6434093999996549,1,96,test1,4,0.6436396999997669,-20.0
13,mstp,m,22,r,1,(121.76378772032346, -121.76378772032352),28,-7,13,yes,x,5,x,0.6173079000000143,1,1,test2,4,0.6175440000006347,-52.0
13,mstp,m,22,r,1,(-121.76378772032352, -121.76378772032348),26,3,1,yes,x,5,m,1.7227388999963296,0,2,test2,4,1.7229090000037104,-42.0
13,mstp,m,22,r,1,(-121.76378772032352, -121.76378772032348),26,-7,13,yes,x,5,x,0.6386463999951957,1,3,test2,4,0.6388166999968234,-52.0
13,mstp,m,22,r,1,(-121.76378772032352, -121.76378772032348),26,-5,12,yes,x,5,x,1.0815598999979557,1,4,test2,4,1.081943199998932,-50.0
13,mstp,m,22,r,1,(121.76378772032346, -121.76378772032352),28,-25,14,yes,x,5,x,0.45747429999755695,1,5,test2,4,0.45760100000188686,-70.0
13,mstp,m,22,r,1,(121.76378772032349, 121.76378772032349),22,-5,12,yes,x,5,x,0.9399873000002117,1,6,test2,4,0.9403714000000036,-50.0
13,mstp,m,22,r,1,(-121.76378772032352, -121.76378772032348),26,-25,14,no,m,6,m,1.4566237000035471,1,7,test2,4,1.4567218000011053,-50.0
13,mstp,m,22,r,1,(172.20000000000002, 0.0),21,-25,14,yes,x,5,x,0.45662409999931697,1,8,test2,4,0.4567631000027177,-70.0
13,mstp,m,22,r,1,(172.20000000000002, 0.0),21,25,4,no,m,6,m,0.7659015999961412,1,9,test2,4,0.7661794000014197,-70.0
13,mstp,m,22,r,1,(172.20000000000002, 0.0),21,-3,11,yes,x,5,x,1.4230777000047965,1,10,test2,4,1.4232241999998223,-48.0
13,mstp,m,22,r,1,(121.76378772032349, 121.76378772032349),22,3,1,no,m,6,m,0.9147628999999142,1,11,test2,4,0.9148815999942599,-48.0
13,mstp,m,22,r,1,(-121.76378772032352, -121.76378772032348),26,7,3,yes,x,5,x,0.4661351000031573,1,12,test2,4,0.4662954000013997,-38.0
13,mstp,m,22,r,1,(172.20000000000002, 0.0),21,5,2,no,m,6,m,0.9726427999994485,1,13,test2,4,0.9731481999988318,-38.0
13,mstp,m,22,r,1,(-121.76378772032348, 121.76378772032349),24,-3,11,yes,x,5,x,1.1408450000017183,1,14,test2,4,1.1412914999964414,-48.0
13,mstp,m,22,r,1,(-3.163262682197613e-14, -172.20000000000002),27,-5,12,no,m,6,m,1.2148136000032537,1,15,test2,4,1.2149142999987816,-48.0
13,mstp,m,22,r,1,(-172.20000000000002, 2.1088417881317425e-14),25,5,2,yes,x,5,x,0.5818298000012874,1,16,test2,4,0.5819464000014705,-40.0
13,mstp,m,22,r,1,(-3.163262682197613e-14, -172.20000000000002),27,5,2,no,m,6,m,1.1507153999991715,1,17,test2,4,1.1510043000016594,-40.0
13,mstp,m,22,r,1,(121.76378772032349, 121.76378772032349),22,25,4,yes,x,5,x,0.4437298000048031,1,18,test2,4,0.44397459999891,-20.0
13,mstp,m,22,r,1,(-3.163262682197613e-14, -172.20000000000002),27,-25,14,yes,x,5,x,0.4457216000009794,1,19,test2,4,0.44631569999910425,-70.0
13,mstp,m,22,r,1,(-172.20000000000002, 2.1088417881317425e-14),25,5,2,yes,x,5,x,0.8830794999958016,1,20,test2,4,0.8832059999986086,-40.0
13,mstp,m,22,r,1,(-172.20000000000002, 2.1088417881317425e-14),25,-3,11,yes,x,5,x,0.5639019999944139,1,21,test2,4,0.5641280999989249,-48.0
13,mstp,m,22,r,1,(1.0544208940658713e-14, 172.20000000000002),23,3,1,yes,x,5,x,1.1480929999961518,1,22,test2,4,1.1482925999953295,-42.0
13,mstp,m,22,r,1,(-172.20000000000002, 2.1088417881317425e-14),25,25,4,no,m,6,m,1.44647210000403,1,23,test2,4,1.4466253999999026,-42.0
13,mstp,m,22,r,1,(-121.76378772032352, -121.76378772032348),26,25,4,yes,x,5,x,0.3989422000013292,1,24,test2,4,0.39905629999702796,-20.0
13,mstp,m,22,r,1,(121.76378772032349, 121.76378772032349),22,25,4,yes,x,5,x,0.45690369999647373,1,25,test2,4,0.4570037000012235,-20.0
13,mstp,m,22,r,1,(172.20000000000002, 0.0),21,-7,13,yes,x,5,x,0.5972529999999097,1,26,test2,4,0.5973770000055083,-52.0
13,mstp,m,22,r,1,(-121.76378772032348, 121.76378772032349),24,5,2,yes,x,5,x,0.8077624999932596,1,27,test2,4,0.8080179999960819,-40.0
13,mstp,m,22,r,1,(-121.76378772032352, -121.76378772032348),26,3,1,yes,x,5,x,0.7041765999965719,1,28,test2,4,0.7044796999980463,-42.0
13,mstp,m,22,r,1,(-172.20000000000002, 2.1088417881317425e-14),25,3,1,yes,x,5,x,0.9422116999994614,1,29,test2,4,0.9426740999988397,-42.0
13,mstp,m,22,r,1,(-3.163262682197613e-14, -172.20000000000002),27,3,1,yes,x,5,x,0.923495200004254,1,30,test2,4,0.9237150999979349,-42.0
13,mstp,m,22,r,1,(-172.20000000000002, 2.1088417881317425e-14),25,-7,13,no,m,6,m,0.8552049999998417,1,31,test2,4,0.8553067000029841,-42.0
13,mstp,m,22,r,1,(-121.76378772032352, -121.76378772032348),26,7,3,yes,x,5,x,0.5992934999958379,1,32,test2,4,0.5995992000025581,-38.0
13,mstp,m,22,r,1,(-121.76378772032348, 121.76378772032349),24,-5,12,yes,x,5,x,0.6705763999998453,1,33,test2,4,0.6708116000008886,-50.0
13,mstp,m,22,r,1,(1.0544208940658713e-14, 172.20000000000002),23,25,4,yes,x,5,x,0.4846858999953838,1,34,test2,4,0.4853492999973241,-20.0
13,mstp,m,22,r,1,(172.20000000000002, 0.0),21,5,2,yes,x,5,x,0.8121633999980986,1,35,test2,4,0.812585500003479,-40.0
13,mstp,m,22,r,1,(172.20000000000002, 0.0),21,7,3,yes,x,5,x,0.7397281999947154,1,36,test2,4,0.7398432999980287,-38.0
13,mstp,m,22,r,1,(172.20000000000002, 0.0),21,-5,12,yes,x,5,x,1.284372500005702,1,37,test2,4,1.2845202999960748,-50.0
13,mstp,m,22,r,1,(121.76378772032346, -121.76378772032352),28,-5,12,yes,x,5,x,1.4566204000002472,1,38,test2,4,1.4570172000021557,-50.0
13,mstp,m,22,r,1,(-172.20000000000002, 2.1088417881317425e-14),25,-5,12,no,m,6,m,1.2033579999988433,1,39,test2,4,1.2034548000010545,-50.0
13,mstp,m,22,r,1,(121.76378772032349, 121.76378772032349),22,7,3,yes,x,5,x,0.5610329999981332,1,40,test2,4,0.561339300002146,-38.0
13,mstp,m,22,r,1,(121.76378772032349, 121.76378772032349),22,5,2,yes,x,5,x,0.5963011999992887,1,41,test2,4,0.5965165000015986,-40.0
13,mstp,m,22,r,1,(172.20000000000002, 0.0),21,-25,14,yes,x,5,x,0.42058320000069216,1,42,test2,4,0.4209400000036112,-70.0
13,mstp,m,22,r,1,(-3.163262682197613e-14, -172.20000000000002),27,7,3,no,m,6,m,1.0980256000038935,1,43,test2,4,1.0982592000000295,-70.0
13,mstp,m,22,r,1,(121.76378772032346, -121.76378772032352),28,3,1,no,m,6,m,1.1053421999968123,1,44,test2,4,1.1057383000006666,-70.0
13,mstp,m,22,r,1,(121.76378772032349, 121.76378772032349),22,-25,14,yes,x,5,x,0.5101988000023994,1,45,test2,4,0.5103018000008888,-70.0
13,mstp,m,22,r,1,(1.0544208940658713e-14, 172.20000000000002),23,-25,14,yes,x,5,x,0.45523839999805205,1,46,test2,4,0.45533749999594875,-70.0
13,mstp,m,22,r,1,(172.20000000000002, 0.0),21,-3,11,no,m,6,m,1.242455899999186,1,47,test2,4,1.2426379000025918,-70.0
13,mstp,m,22,r,1,(-172.20000000000002, 2.1088417881317425e-14),25,-5,12,yes,x,5,x,0.6704498000035528,1,48,test2,4,0.6707806999984314,-50.0
13,mstp,m,22,r,1,(-3.163262682197613e-14, -172.20000000000002),27,-7,13,no,m,6,m,0.8569843000004767,1,49,test2,4,0.8573551000008592,-50.0
13,mstp,m,22,r,1,(-121.76378772032352, -121.76378772032348),26,7,3,no,m,6,m,0.9242738999964786,1,50,test2,4,0.9245062000045436,-50.0
13,mstp,m,22,r,1,(-121.76378772032348, 121.76378772032349),24,-5,12,yes,x,5,x,0.788059799997427,1,51,test2,4,0.7882408000004943,-50.0
13,mstp,m,22,r,1,(-121.76378772032352, -121.76378772032348),26,25,4,no,m,6,m,1.3608073000068543,1,52,test2,4,1.3609254000039073,-50.0
13,mstp,m,22,r,1,(-121.76378772032352, -121.76378772032348),26,-7,13,yes,x,5,x,0.5759319999997388,1,53,test2,4,0.5760566999961156,-52.0
