subj_id,subj_name,subj_gender ,subj_age,subj_handedness,subj_runNum,tar_l_x,tar_l_y,loc_code,tar_ori,tar_code,tar_pre ,cor_response,pre_code,subj_response,RT,correct,trial_num,type,bloc_num,dur, real_tar
13,mstp,m,22,r,2,(121.76378772032346, -121.76378772032352),28,7,3,yes,x,5,x,0.7139422000000195,1,1,test1,1,0.7140359000004537,-38.0
13,mstp,m,22,r,2,(172.20000000000002, 0.0),21,3,1,yes,x,5,m,0.9473387000007278,0,2,test1,1,0.9474759000004269,-42.0
13,mstp,m,22,r,2,(-121.76378772032348, 121.76378772032349),24,5,2,yes,x,5,x,0.5596277000004193,1,3,test1,1,0.5597606999999698,-40.0
13,mstp,m,22,r,2,(-121.76378772032348, 121.76378772032349),24,-5,12,yes,x,5,x,0.6369058000000223,1,4,test1,1,0.6375402000003305,-50.0
13,mstp,m,22,r,2,(-172.20000000000002, 2.1088417881317425e-14),25,-25,14,yes,x,5,x,0.43352170000071055,1,5,test1,1,0.43374579999999696,-70.0
13,mstp,m,22,r,2,(121.76378772032346, -121.76378772032352),28,-5,12,yes,x,5,m,0.8520537999993394,0,6,test1,1,0.8521872000001167,-50.0
13,mstp,m,22,r,2,(121.76378772032349, 121.76378772032349),22,7,3,no,m,6,m,0.9252645999995366,1,7,test1,1,0.9254949999995006,-50.0
13,mstp,m,22,r,2,(121.76378772032346, -121.76378772032352),28,5,2,yes,x,5,x,0.622477699999763,1,8,test1,1,0.622597799999312,-40.0
13,mstp,m,22,r,2,(121.76378772032349, 121.76378772032349),22,3,1,no,m,6,m,1.016838500000631,1,9,test1,1,1.017099299999245,-40.0
13,mstp,m,22,r,2,(172.20000000000002, 0.0),21,-3,11,yes,x,5,m,1.1325324999997974,0,10,test1,1,1.1327547000000777,-48.0
13,mstp,m,22,r,2,(-172.20000000000002, 2.1088417881317425e-14),25,3,1,yes,x,5,m,1.6462097000003268,0,11,test1,1,1.6463420999998561,-42.0
13,mstp,m,22,r,2,(1.0544208940658713e-14, 172.20000000000002),23,3,1,no,m,6,m,1.0325732999999673,1,12,test1,1,1.0327839000001404,-42.0
13,mstp,m,22,r,2,(1.0544208940658713e-14, 172.20000000000002),23,25,4,no,m,6,m,1.0846647000007579,1,13,test1,1,1.084801800000605,-42.0
13,mstp,m,22,r,2,(1.0544208940658713e-14, 172.20000000000002),23,-5,12,yes,x,5,x,0.6863455000002432,1,14,test1,1,0.6864862000002177,-50.0
13,mstp,m,22,r,2,(-172.20000000000002, 2.1088417881317425e-14),25,5,2,yes,x,5,x,0.6957941000000574,1,15,test1,1,0.6961560999998255,-40.0
13,mstp,m,22,r,2,(-121.76378772032352, -121.76378772032348),26,-5,12,yes,x,5,x,0.8874273999999787,1,16,test1,1,0.8877978999998959,-50.0
13,mstp,m,22,r,2,(1.0544208940658713e-14, 172.20000000000002),23,-25,14,no,m,6,m,1.082624300000134,1,17,test1,1,1.0829324999995151,-50.0
13,mstp,m,22,r,2,(-3.163262682197613e-14, -172.20000000000002),27,3,1,yes,x,5,x,0.5663230000000112,1,18,test1,1,0.5664897999995446,-42.0
13,mstp,m,22,r,2,(-3.163262682197613e-14, -172.20000000000002),27,-7,13,no,m,6,m,0.9624342999995861,1,19,test1,1,0.9625473000005513,-42.0
13,mstp,m,22,r,2,(-121.76378772032352, -121.76378772032348),26,7,3,no,m,6,x,1.244629800000439,0,20,test1,1,1.2447306000003664,-42.0
13,mstp,m,22,r,2,(121.76378772032349, 121.76378772032349),22,-3,11,yes,x,5,m,0.7229717000000164,0,21,test1,1,0.723073099999965,-48.0
13,mstp,m,22,r,2,(1.0544208940658713e-14, 172.20000000000002),23,-25,14,yes,x,5,x,0.49626360000002023,1,22,test1,1,0.4964739000006375,-70.0
13,mstp,m,22,r,2,(-172.20000000000002, 2.1088417881317425e-14),25,-7,13,yes,x,5,x,0.5995500999997603,1,23,test1,1,0.5997061999996731,-52.0
13,mstp,m,22,r,2,(1.0544208940658713e-14, 172.20000000000002),23,-5,12,no,m,6,m,0.9473964999997406,1,24,test1,1,0.9476073000005272,-52.0
13,mstp,m,22,r,2,(172.20000000000002, 0.0),21,5,2,yes,x,5,x,0.5475753999999142,1,25,test1,1,0.5477062999998452,-40.0
13,mstp,m,22,r,2,(121.76378772032349, 121.76378772032349),22,-25,14,yes,x,5,x,0.43448690000059287,1,26,test1,1,0.4346568999999363,-70.0
13,mstp,m,22,r,2,(-3.163262682197613e-14, -172.20000000000002),27,7,3,yes,x,5,x,0.5421135999995386,1,27,test1,1,0.542213200000333,-38.0
13,mstp,m,22,r,2,(-3.163262682197613e-14, -172.20000000000002),27,-25,14,no,m,6,m,0.7116833999998562,1,28,test1,1,0.711963900000228,-38.0
13,mstp,m,22,r,2,(121.76378772032349, 121.76378772032349),22,-7,13,yes,x,5,x,0.4585781000005227,1,29,test1,1,0.4586841000000277,-52.0
13,mstp,m,22,r,2,(-172.20000000000002, 2.1088417881317425e-14),25,3,1,yes,x,5,m,0.9052038999998331,0,30,test1,1,0.905419200000324,-42.0
13,mstp,m,22,r,2,(-3.163262682197613e-14, -172.20000000000002),27,5,2,yes,x,5,x,0.8995025999993231,1,31,test1,1,0.899615299999823,-40.0
13,mstp,m,22,r,2,(121.76378772032346, -121.76378772032352),28,7,3,yes,x,5,x,0.5449710000002597,1,32,test1,1,0.5451075000000856,-38.0
13,mstp,m,22,r,2,(-121.76378772032348, 121.76378772032349),24,7,3,no,m,6,m,0.9054710999998861,1,33,test1,1,0.9055688000007649,-38.0
13,mstp,m,22,r,2,(-121.76378772032348, 121.76378772032349),24,3,1,no,m,6,m,0.815486299999975,1,34,test1,1,0.8157555999996475,-38.0
13,mstp,m,22,r,2,(-3.163262682197613e-14, -172.20000000000002),27,-5,12,no,m,6,m,0.6994845000008354,1,35,test1,1,0.6997750000000451,-38.0
13,mstp,m,22,r,2,(1.0544208940658713e-14, 172.20000000000002),23,3,1,yes,x,5,x,0.8881928999999218,1,36,test1,1,0.8883207999997467,-42.0
13,mstp,m,22,r,2,(121.76378772032346, -121.76378772032352),28,-5,12,no,m,6,m,1.125950799999373,1,37,test1,1,1.126046999999744,-42.0
13,mstp,m,22,r,2,(172.20000000000002, 0.0),21,-3,11,no,m,6,m,0.882454399999915,1,38,test1,1,0.8831313000000591,-42.0
13,mstp,m,22,r,2,(-121.76378772032352, -121.76378772032348),26,-25,14,yes,x,5,x,0.515345900000284,1,39,test1,1,0.5154591000000437,-70.0
13,mstp,m,22,r,2,(-3.163262682197613e-14, -172.20000000000002),27,25,4,yes,x,5,x,0.4104180999993332,1,40,test1,1,0.41079609999997047,-20.0
13,mstp,m,22,r,2,(-121.76378772032348, 121.76378772032349),24,25,4,yes,x,5,x,0.4184795999999551,1,41,test1,1,0.41870100000051025,-20.0
13,mstp,m,22,r,2,(172.20000000000002, 0.0),21,25,4,yes,x,5,x,0.47617300000001705,1,42,test1,1,0.4762768999999025,-20.0
13,mstp,m,22,r,2,(-121.76378772032352, -121.76378772032348),26,-3,11,yes,x,5,m,0.9286138999996183,0,43,test1,1,0.928919599999972,-48.0
13,mstp,m,22,r,2,(-172.20000000000002, 2.1088417881317425e-14),25,7,3,no,m,6,m,0.8701804000002085,1,44,test1,1,0.870306900000287,-48.0
13,mstp,m,22,r,2,(172.20000000000002, 0.0),21,-25,14,yes,x,5,x,0.40853730000071664,1,45,test1,1,0.4086520999999266,-70.0
13,mstp,m,22,r,2,(-3.163262682197613e-14, -172.20000000000002),27,-7,13,yes,x,5,x,0.5619328000002497,1,46,test1,1,0.5620595999998841,-52.0
13,mstp,m,22,r,2,(172.20000000000002, 0.0),21,7,3,no,m,6,m,0.6905660000002172,1,47,test1,1,0.6906612999991921,-52.0
13,mstp,m,22,r,2,(1.0544208940658713e-14, 172.20000000000002),23,-25,14,yes,x,5,x,0.4191694000001007,1,48,test1,1,0.4192990000001373,-70.0
13,mstp,m,22,r,2,(-121.76378772032352, -121.76378772032348),26,7,3,yes,x,5,x,0.5123849999999948,1,49,test1,1,0.5125165999997989,-38.0
13,mstp,m,22,r,2,(-121.76378772032348, 121.76378772032349),24,-3,11,yes,x,5,m,1.0268407000003208,0,50,test1,1,1.0274239000000307,-48.0
13,mstp,m,22,r,2,(-121.76378772032348, 121.76378772032349),24,3,1,yes,x,5,m,1.3813067000000956,0,51,test1,1,1.3815741999997044,-42.0
13,mstp,m,22,r,2,(121.76378772032349, 121.76378772032349),22,-5,12,yes,x,5,x,0.7580809000000954,1,52,test1,1,0.7588570000007167,-50.0
13,mstp,m,22,r,2,(-172.20000000000002, 2.1088417881317425e-14),25,-5,12,yes,x,5,x,0.6711674999996831,1,53,test1,1,0.6712784000001193,-50.0
13,mstp,m,22,r,2,(1.0544208940658713e-14, 172.20000000000002),23,-5,12,yes,x,5,x,0.8296690999995917,1,54,test1,1,0.8297732999999425,-50.0
13,mstp,m,22,r,2,(172.20000000000002, 0.0),21,25,4,yes,x,5,x,0.41968919999999343,1,55,test1,1,0.4198127999998178,-20.0
13,mstp,m,22,r,2,(-172.20000000000002, 2.1088417881317425e-14),25,7,3,yes,x,5,x,0.42806629999995494,1,56,test1,1,0.428191599999991,-38.0
13,mstp,m,22,r,2,(121.76378772032349, 121.76378772032349),22,5,2,yes,x,5,x,0.6435051999997086,1,57,test1,1,0.6436045999998896,-40.0
13,mstp,m,22,r,2,(-3.163262682197613e-14, -172.20000000000002),27,7,3,no,m,6,m,0.7820042000003014,1,58,test1,1,0.7826531000000614,-40.0
13,mstp,m,22,r,2,(172.20000000000002, 0.0),21,-5,12,no,m,6,m,0.8898645999997825,1,59,test1,1,0.8899830000000293,-40.0
13,mstp,m,22,r,2,(121.76378772032349, 121.76378772032349),22,-5,12,yes,x,5,x,0.6464155000003302,1,60,test1,1,0.6465445000003456,-50.0
13,mstp,m,22,r,2,(-121.76378772032348, 121.76378772032349),24,-25,14,yes,x,5,x,0.38234019999981683,1,61,test1,1,0.38251750000017637,-70.0
13,mstp,m,22,r,2,(-121.76378772032352, -121.76378772032348),26,3,1,yes,x,5,x,1.119347700000617,1,62,test1,1,1.1194608000005246,-42.0
13,mstp,m,22,r,2,(-172.20000000000002, 2.1088417881317425e-14),25,-3,11,yes,x,5,x,0.4597192000001087,1,63,test1,1,0.45981769999980315,-48.0
13,mstp,m,22,r,2,(-3.163262682197613e-14, -172.20000000000002),27,3,1,yes,x,5,m,1.1402060999998866,0,64,test1,1,1.1403215000000273,-42.0
13,mstp,m,22,r,2,(1.0544208940658713e-14, 172.20000000000002),23,25,4,yes,x,5,x,0.467217299999902,1,65,test1,1,0.46738640000057785,-20.0
13,mstp,m,22,r,2,(121.76378772032346, -121.76378772032352),28,-7,13,yes,x,5,x,0.5879207999996652,1,66,test1,1,0.5881827000002886,-52.0
13,mstp,m,22,r,2,(-3.163262682197613e-14, -172.20000000000002),27,5,2,yes,x,5,x,0.577849199999946,1,67,test1,1,0.5779512999997678,-40.0
13,mstp,m,22,r,2,(-3.163262682197613e-14, -172.20000000000002),27,5,2,no,m,6,m,1.0994202000001678,1,68,test1,1,1.1001696000002994,-40.0
13,mstp,m,22,r,2,(-121.76378772032348, 121.76378772032349),24,-7,13,yes,x,5,x,0.597949800000606,1,69,test1,1,0.598178199999893,-52.0
13,mstp,m,22,r,2,(-121.76378772032352, -121.76378772032348),26,5,2,yes,x,5,x,0.6452374000000418,1,70,test1,1,0.6454811000003247,-40.0
13,mstp,m,22,r,2,(1.0544208940658713e-14, 172.20000000000002),23,3,1,yes,x,5,x,1.052935499999876,1,71,test1,1,1.053104099999473,-42.0
13,mstp,m,22,r,2,(121.76378772032346, -121.76378772032352),28,25,4,yes,x,5,x,0.4152409999996962,1,72,test1,1,0.4154843999995137,-20.0
13,mstp,m,22,r,2,(-172.20000000000002, 2.1088417881317425e-14),25,25,4,yes,x,5,x,0.36116799999945215,1,73,test1,1,0.3615304000004471,-20.0
13,mstp,m,22,r,2,(121.76378772032346, -121.76378772032352),28,-25,14,yes,x,5,x,0.44818779999968683,1,74,test1,1,0.4483503000001292,-70.0
13,mstp,m,22,r,2,(121.76378772032349, 121.76378772032349),22,-25,14,no,m,6,m,0.9431875000000218,1,75,test1,1,0.9436958999995113,-70.0
13,mstp,m,22,r,2,(121.76378772032346, -121.76378772032352),28,-7,13,yes,x,5,x,0.48464659999990545,1,76,test1,1,0.4847737000000052,-52.0
13,mstp,m,22,r,2,(-121.76378772032348, 121.76378772032349),24,25,4,no,m,6,m,0.948902399999497,1,77,test1,1,0.9492639000000054,-52.0
13,mstp,m,22,r,2,(1.0544208940658713e-14, 172.20000000000002),23,5,2,yes,x,5,x,0.4843217999996341,1,78,test1,1,0.4844454999993104,-40.0
13,mstp,m,22,r,2,(-121.76378772032352, -121.76378772032348),26,3,1,no,m,6,m,1.196825500000159,1,79,test1,1,1.1969466999998986,-40.0
13,mstp,m,22,r,2,(121.76378772032346, -121.76378772032352),28,3,1,yes,x,5,x,0.8757750999993732,1,80,test1,1,0.8759348000003229,-42.0
13,mstp,m,22,r,2,(-121.76378772032352, -121.76378772032348),26,25,4,yes,x,5,x,0.4193525000000591,1,81,test1,1,0.4200162999995882,-20.0
13,mstp,m,22,r,2,(172.20000000000002, 0.0),21,7,3,yes,x,5,x,0.5120061000006899,1,82,test1,1,0.5123046999997314,-38.0
13,mstp,m,22,r,2,(172.20000000000002, 0.0),21,5,2,yes,x,5,x,0.5649890999993659,1,83,test1,1,0.5654513999998017,-40.0
13,mstp,m,22,r,2,(-172.20000000000002, 2.1088417881317425e-14),25,5,2,yes,x,5,x,0.6836562999997113,1,84,test1,1,0.6837507000000187,-40.0
13,mstp,m,22,r,2,(-121.76378772032352, -121.76378772032348),26,7,3,yes,x,5,x,0.4935620000005656,1,85,test1,1,0.49368890000005194,-38.0
13,mstp,m,22,r,2,(-121.76378772032348, 121.76378772032349),24,-7,13,no,m,6,m,0.9483121000002939,1,86,test1,1,0.9487838000004558,-38.0
13,mstp,m,22,r,2,(-121.76378772032352, -121.76378772032348),26,-3,11,yes,x,5,x,1.0927502999993521,1,87,test1,1,1.092999399999826,-48.0
13,mstp,m,22,r,2,(-121.76378772032348, 121.76378772032349),24,-3,11,no,m,6,m,1.5123864000006506,1,88,test1,1,1.512604000000465,-48.0
13,mstp,m,22,r,2,(-3.163262682197613e-14, -172.20000000000002),27,7,3,yes,x,5,x,0.5330234000002747,1,89,test1,1,0.5331366999998863,-38.0
13,mstp,m,22,r,2,(1.0544208940658713e-14, 172.20000000000002),23,-7,13,no,m,6,m,1.078010500000346,1,90,test1,1,1.0785179999993488,-38.0
13,mstp,m,22,r,2,(-172.20000000000002, 2.1088417881317425e-14),25,7,3,yes,x,5,x,0.48784340000020165,1,91,test1,1,0.488129299999855,-38.0
13,mstp,m,22,r,2,(1.0544208940658713e-14, 172.20000000000002),23,-7,13,yes,x,5,x,0.45759389999966515,1,92,test1,1,0.4577224999993632,-52.0
13,mstp,m,22,r,2,(-172.20000000000002, 2.1088417881317425e-14),25,-25,14,yes,x,5,x,0.45535170000039216,1,93,test1,1,0.4557310000000143,-70.0
13,mstp,m,22,r,2,(172.20000000000002, 0.0),21,7,3,yes,x,5,x,0.4500175000002855,1,94,test1,1,0.45015330000023823,-38.0
13,mstp,m,22,r,2,(-121.76378772032348, 121.76378772032349),24,-5,12,no,m,6,m,0.8766341999998986,1,95,test1,1,0.8768577999999252,-38.0
13,mstp,m,22,r,2,(121.76378772032349, 121.76378772032349),22,-3,11,yes,x,5,x,0.9741436000003887,1,96,test1,1,0.974308399999245,-48.0
13,mstp,m,22,r,2,(1.0544208940658713e-14, 172.20000000000002),23,-3,11,no,m,6,m,1.4290014999996856,1,1,test2,1,1.4298165999998673,-48.0
13,mstp,m,22,r,2,(1.0544208940658713e-14, 172.20000000000002),23,-3,11,yes,x,5,x,0.6346118999999817,1,2,test2,1,0.6347256999997626,-48.0
13,mstp,m,22,r,2,(-3.163262682197613e-14, -172.20000000000002),27,3,1,no,m,6,m,1.4038621999998213,1,3,test2,1,1.4041989999996076,-48.0
13,mstp,m,22,r,2,(-3.163262682197613e-14, -172.20000000000002),27,-3,11,no,m,6,m,1.1053068999999596,1,4,test2,1,1.105951599999571,-48.0
13,mstp,m,22,r,2,(172.20000000000002, 0.0),21,-25,14,no,m,6,m,1.1190851000001203,1,5,test2,1,1.1197385000004942,-48.0
13,mstp,m,22,r,2,(-121.76378772032348, 121.76378772032349),24,7,3,yes,x,5,x,0.47861029999967286,1,6,test2,1,0.47896789999958855,-38.0
13,mstp,m,22,r,2,(172.20000000000002, 0.0),21,-7,13,yes,x,5,x,0.5579052000002775,1,7,test2,1,0.5582014000001436,-52.0
13,mstp,m,22,r,2,(-3.163262682197613e-14, -172.20000000000002),27,-3,11,yes,x,5,x,0.9550942000005307,1,8,test2,1,0.95519510000031,-48.0
13,mstp,m,22,r,2,(-121.76378772032348, 121.76378772032349),24,-3,11,yes,x,5,x,0.775530400000207,1,9,test2,1,0.7756550000003699,-48.0
13,mstp,m,22,r,2,(121.76378772032349, 121.76378772032349),22,-5,12,no,m,6,m,1.2322598000000653,1,10,test2,1,1.2326517000001331,-48.0
13,mstp,m,22,r,2,(-121.76378772032352, -121.76378772032348),26,25,4,no,m,6,m,1.4922030000006998,1,11,test2,1,1.4924129999999423,-48.0
13,mstp,m,22,r,2,(172.20000000000002, 0.0),21,-5,12,yes,x,5,x,0.665375500000664,1,12,test2,1,0.6655896000002031,-50.0
13,mstp,m,22,r,2,(-172.20000000000002, 2.1088417881317425e-14),25,-7,13,yes,x,5,x,0.6013696999998501,1,13,test2,1,0.601465200000348,-52.0
13,mstp,m,22,r,2,(-172.20000000000002, 2.1088417881317425e-14),25,-3,11,yes,x,5,x,0.5975208999998358,1,14,test2,1,0.597651300000507,-48.0
13,mstp,m,22,r,2,(121.76378772032346, -121.76378772032352),28,25,4,no,m,6,m,1.2316690999996354,1,15,test2,1,1.2318273999999292,-48.0
13,mstp,m,22,r,2,(-121.76378772032352, -121.76378772032348),26,-7,13,no,m,6,m,0.8952778000002581,1,16,test2,1,0.8959967999999208,-48.0
13,mstp,m,22,r,2,(-172.20000000000002, 2.1088417881317425e-14),25,-5,12,yes,x,5,x,0.566496599999482,1,17,test2,1,0.5670248000005813,-50.0
13,mstp,m,22,r,2,(121.76378772032349, 121.76378772032349),22,-7,13,no,m,6,m,0.6754982000002201,1,18,test2,1,0.6757519000002503,-50.0
13,mstp,m,22,r,2,(121.76378772032346, -121.76378772032352),28,-5,12,yes,x,5,x,0.6402140999998664,1,19,test2,1,0.6403420999995433,-50.0
13,mstp,m,22,r,2,(121.76378772032346, -121.76378772032352),28,-3,11,yes,x,5,x,0.7776286999996955,1,20,test2,1,0.778358799999296,-48.0
13,mstp,m,22,r,2,(-3.163262682197613e-14, -172.20000000000002),27,25,4,yes,x,5,x,0.5454803000002357,1,21,test2,1,0.546024899999793,-20.0
13,mstp,m,22,r,2,(121.76378772032349, 121.76378772032349),22,3,1,yes,x,5,m,1.1001136000004408,0,22,test2,1,1.1002155000005587,-42.0
13,mstp,m,22,r,2,(172.20000000000002, 0.0),21,-5,12,yes,x,5,x,0.7259831000001213,1,23,test2,1,0.7263989000002766,-50.0
13,mstp,m,22,r,2,(-121.76378772032348, 121.76378772032349),24,5,2,yes,x,5,x,0.8153339999998934,1,24,test2,1,0.815465900000163,-40.0
13,mstp,m,22,r,2,(-3.163262682197613e-14, -172.20000000000002),27,-7,13,yes,x,5,x,0.6639633000004324,1,25,test2,1,0.6643883000006099,-52.0
13,mstp,m,22,r,2,(-172.20000000000002, 2.1088417881317425e-14),25,-25,14,no,m,6,m,0.8361213999996835,1,26,test2,1,0.8364251000002696,-52.0
13,mstp,m,22,r,2,(121.76378772032349, 121.76378772032349),22,7,3,yes,x,5,x,0.7099551000001156,1,27,test2,1,0.7103614999996353,-38.0
13,mstp,m,22,r,2,(121.76378772032349, 121.76378772032349),22,3,1,yes,x,5,x,0.8411787000004551,1,28,test2,1,0.8412995999997293,-42.0
13,mstp,m,22,r,2,(121.76378772032346, -121.76378772032352),28,5,2,no,m,6,m,1.2887195000002976,1,29,test2,1,1.2888379000005443,-42.0
13,mstp,m,22,r,2,(-172.20000000000002, 2.1088417881317425e-14),25,-3,11,no,m,6,m,1.3396925000006377,1,30,test2,1,1.339861800000108,-42.0
13,mstp,m,22,r,2,(-121.76378772032352, -121.76378772032348),26,25,4,yes,x,5,x,0.517646600000262,1,31,test2,1,0.517851999999948,-20.0
13,mstp,m,22,r,2,(1.0544208940658713e-14, 172.20000000000002),23,7,3,no,m,6,m,1.2108892000005653,1,32,test2,1,1.2115576000005603,-20.0
13,mstp,m,22,r,2,(121.76378772032349, 121.76378772032349),22,-7,13,yes,x,5,x,1.0605838000001313,1,33,test2,1,1.0606870999999956,-52.0
13,mstp,m,22,r,2,(172.20000000000002, 0.0),21,5,2,no,m,6,m,0.9634384000000864,1,34,test2,1,0.9637862999998106,-52.0
13,mstp,m,22,r,2,(1.0544208940658713e-14, 172.20000000000002),23,7,3,yes,x,5,x,1.1133453999991616,1,35,test2,1,1.1134458000005907,-38.0
13,mstp,m,22,r,2,(172.20000000000002, 0.0),21,25,4,no,m,6,m,1.3377683999997316,1,36,test2,1,1.3380026999993788,-38.0
13,mstp,m,22,r,2,(172.20000000000002, 0.0),21,-3,11,yes,x,5,x,1.326837699999487,1,37,test2,1,1.3270125999997617,-48.0
13,mstp,m,22,r,2,(-172.20000000000002, 2.1088417881317425e-14),25,25,4,yes,x,5,x,0.6226061999996091,1,38,test2,1,0.6228709999995772,-20.0
13,mstp,m,22,r,2,(-121.76378772032352, -121.76378772032348),26,5,2,no,m,6,m,1.0672283000003517,1,39,test2,1,1.0673626999996486,-20.0
13,mstp,m,22,r,2,(1.0544208940658713e-14, 172.20000000000002),23,25,4,yes,x,5,x,1.0538614999995843,1,40,test2,1,1.054137800000717,-20.0
13,mstp,m,22,r,2,(-3.163262682197613e-14, -172.20000000000002),27,-25,14,yes,x,5,x,0.7334022999993977,1,41,test2,1,0.7335029999994731,-70.0
13,mstp,m,22,r,2,(-121.76378772032352, -121.76378772032348),26,-25,14,yes,x,5,x,0.767033299999639,1,42,test2,1,0.7671452000004138,-70.0
13,mstp,m,22,r,2,(172.20000000000002, 0.0),21,3,1,no,m,6,m,1.2270466999998462,1,43,test2,1,1.2271482000005562,-70.0
13,mstp,m,22,r,2,(-172.20000000000002, 2.1088417881317425e-14),25,5,2,no,m,6,m,1.0789509999995062,1,44,test2,1,1.0792095999995581,-70.0
13,mstp,m,22,r,2,(172.20000000000002, 0.0),21,-7,13,no,m,6,m,1.2369995999997627,1,45,test2,1,1.2373034000002008,-70.0
13,mstp,m,22,r,2,(121.76378772032349, 121.76378772032349),22,25,4,yes,x,5,x,0.8689389999999548,1,46,test2,1,0.8691562000003614,-20.0
13,mstp,m,22,r,2,(121.76378772032349, 121.76378772032349),22,25,4,yes,x,5,x,0.5539671999995335,1,47,test2,1,0.5543206000002101,-20.0
13,mstp,m,22,r,2,(121.76378772032346, -121.76378772032352),28,5,2,yes,x,5,x,1.0037043000002086,1,48,test2,1,1.0039980999999898,-40.0
13,mstp,m,22,r,2,(-3.163262682197613e-14, -172.20000000000002),27,25,4,no,m,6,m,1.0310301999998046,1,49,test2,1,1.0311945000003107,-40.0
13,mstp,m,22,r,2,(-121.76378772032352, -121.76378772032348),26,-5,12,no,m,6,m,1.161946000000171,1,50,test2,1,1.1620732000001226,-40.0
13,mstp,m,22,r,2,(1.0544208940658713e-14, 172.20000000000002),23,5,2,no,m,6,m,1.328479900000275,1,51,test2,1,1.3286893000004056,-40.0
13,mstp,m,22,r,2,(121.76378772032346, -121.76378772032352),28,3,1,no,m,6,m,1.619346200000109,1,52,test2,1,1.6196172999998453,-40.0
13,mstp,m,22,r,2,(121.76378772032349, 121.76378772032349),22,7,3,yes,x,5,x,0.7268107999998392,1,53,test2,1,0.7269544999999198,-38.0
13,mstp,m,22,r,2,(-172.20000000000002, 2.1088417881317425e-14),25,-5,12,no,m,6,m,1.5765878000001976,1,54,test2,1,1.5766813999998703,-38.0
13,mstp,m,22,r,2,(172.20000000000002, 0.0),21,3,1,yes,x,5,x,1.2140501000003496,1,55,test2,1,1.2141871999992873,-42.0
13,mstp,m,22,r,2,(172.20000000000002, 0.0),21,-25,14,yes,x,5,x,0.5431060999999318,1,56,test2,1,0.5433481000000029,-70.0
13,mstp,m,22,r,2,(-121.76378772032348, 121.76378772032349),24,-25,14,no,m,6,m,1.1408020999997461,1,57,test2,1,1.141096800000014,-70.0
13,mstp,m,22,r,2,(-121.76378772032352, -121.76378772032348),26,-3,11,no,m,6,m,1.4188933000004909,1,58,test2,1,1.4191522999999506,-70.0
13,mstp,m,22,r,2,(1.0544208940658713e-14, 172.20000000000002),23,7,3,yes,x,5,x,0.9241754000004221,1,59,test2,1,0.9247603000003437,-38.0
13,mstp,m,22,r,2,(-3.163262682197613e-14, -172.20000000000002),27,-3,11,yes,x,5,x,1.3548908000002484,1,60,test2,1,1.3553554000000076,-48.0
13,mstp,m,22,r,2,(-172.20000000000002, 2.1088417881317425e-14),25,3,1,no,m,6,m,1.7663572999999815,1,61,test2,1,1.7667166999999608,-48.0
13,mstp,m,22,r,2,(-172.20000000000002, 2.1088417881317425e-14),25,-7,13,no,m,6,m,1.6741015999996307,1,62,test2,1,1.6742629999998826,-48.0
13,mstp,m,22,r,2,(-3.163262682197613e-14, -172.20000000000002),27,-5,12,yes,x,5,x,1.1337870999996085,1,63,test2,1,1.1340770999995584,-50.0
13,mstp,m,22,r,2,(172.20000000000002, 0.0),21,-7,13,yes,x,5,x,0.7729418999997506,1,64,test2,1,0.773266500000318,-52.0
13,mstp,m,22,r,2,(121.76378772032349, 121.76378772032349),22,-25,14,yes,x,5,x,0.5685922000002392,1,65,test2,1,0.5689271000001099,-70.0
13,mstp,m,22,r,2,(121.76378772032346, -121.76378772032352),28,7,3,no,m,6,m,1.4991629999994984,1,66,test2,1,1.4992621000001236,-70.0
13,mstp,m,22,r,2,(-121.76378772032348, 121.76378772032349),24,3,1,yes,x,5,x,1.710681300000033,1,67,test2,1,1.7109000999998898,-42.0
13,mstp,m,22,r,2,(121.76378772032349, 121.76378772032349),22,-3,11,no,m,6,m,1.3514872000005198,1,68,test2,1,1.3517068000001018,-42.0
13,mstp,m,22,r,2,(121.76378772032346, -121.76378772032352),28,-25,14,yes,x,5,x,0.5683116999998674,1,69,test2,1,0.5685281000005489,-70.0
13,mstp,m,22,r,2,(121.76378772032346, -121.76378772032352),28,25,4,yes,x,5,x,0.4945519000002605,1,70,test2,1,0.4947983000001841,-20.0
13,mstp,m,22,r,2,(-3.163262682197613e-14, -172.20000000000002),27,-5,12,yes,x,5,x,0.5956022000000303,1,71,test2,1,0.5957003999992594,-50.0
13,mstp,m,22,r,2,(121.76378772032346, -121.76378772032352),28,-3,11,no,m,6,m,1.3038014000003386,1,72,test2,1,1.3039488000003985,-50.0
13,mstp,m,22,r,2,(1.0544208940658713e-14, 172.20000000000002),23,-3,11,yes,x,5,x,0.8753232000008211,1,73,test2,1,0.8754473999997572,-48.0
13,mstp,m,22,r,2,(121.76378772032346, -121.76378772032352),28,-25,14,no,m,6,m,1.4293807999993078,1,74,test2,1,1.429695200000424,-48.0
13,mstp,m,22,r,2,(-121.76378772032348, 121.76378772032349),24,-25,14,yes,x,5,x,0.5622860000003129,1,75,test2,1,0.562397300000157,-70.0
13,mstp,m,22,r,2,(-121.76378772032352, -121.76378772032348),26,-25,14,no,m,6,m,1.459390699999858,1,76,test2,1,1.4594950999999128,-70.0
13,mstp,m,22,r,2,(-121.76378772032348, 121.76378772032349),24,25,4,yes,x,5,x,0.49029950000021927,1,77,test2,1,0.490426600000319,-20.0
13,mstp,m,22,r,2,(121.76378772032349, 121.76378772032349),22,5,2,yes,x,5,x,1.2447474000000511,1,78,test2,1,1.244973900000332,-40.0
13,mstp,m,22,r,2,(-3.163262682197613e-14, -172.20000000000002),27,-25,14,yes,x,5,x,0.5832657999999356,1,79,test2,1,0.5833861000000979,-70.0
13,mstp,m,22,r,2,(-121.76378772032348, 121.76378772032349),24,-5,12,yes,x,5,x,1.1521001999999498,1,80,test2,1,1.152313900000081,-50.0
13,mstp,m,22,r,2,(-121.76378772032348, 121.76378772032349),24,7,3,yes,x,5,x,0.6935002000000168,1,81,test2,1,0.693636100000731,-38.0
13,mstp,m,22,r,2,(1.0544208940658713e-14, 172.20000000000002),23,5,2,yes,x,5,x,1.0558723000003738,1,82,test2,1,1.0560013000003892,-40.0
13,mstp,m,22,r,2,(121.76378772032346, -121.76378772032352),28,-3,11,yes,x,5,x,1.069029700000101,1,83,test2,1,1.0691575999999259,-48.0
13,mstp,m,22,r,2,(121.76378772032349, 121.76378772032349),22,25,4,no,m,6,m,1.2203429000001051,1,84,test2,1,1.2204494999996314,-48.0
13,mstp,m,22,r,2,(121.76378772032346, -121.76378772032352),28,3,1,yes,x,5,x,1.081665300000168,1,85,test2,1,1.0820371999998315,-42.0
13,mstp,m,22,r,2,(-121.76378772032352, -121.76378772032348),26,3,1,yes,x,5,x,1.1006197000006068,1,86,test2,1,1.1009014000001116,-42.0
13,mstp,m,22,r,2,(-121.76378772032348, 121.76378772032349),24,5,2,no,m,6,m,1.2558822000000873,1,87,test2,1,1.256080600000132,-42.0
13,mstp,m,22,r,2,(1.0544208940658713e-14, 172.20000000000002),23,-7,13,yes,x,5,x,0.5690011999995477,1,88,test2,1,0.569575900000018,-52.0
13,mstp,m,22,r,2,(-121.76378772032352, -121.76378772032348),26,-5,12,yes,x,5,x,0.5829982999994172,1,89,test2,1,0.5833867999999711,-50.0
13,mstp,m,22,r,2,(-172.20000000000002, 2.1088417881317425e-14),25,25,4,no,m,6,m,1.2622111999999106,1,90,test2,1,1.2623093000001973,-50.0
13,mstp,m,22,r,2,(121.76378772032346, -121.76378772032352),28,-7,13,no,m,6,m,1.0068520000004355,1,91,test2,1,1.0070757999992566,-50.0
13,mstp,m,22,r,2,(121.76378772032349, 121.76378772032349),22,5,2,no,m,6,m,1.2744993999995131,1,92,test2,1,1.2754954000001817,-50.0
13,mstp,m,22,r,2,(-121.76378772032352, -121.76378772032348),26,5,2,yes,x,5,x,0.6822025999999823,1,93,test2,1,0.6825967000004312,-40.0
13,mstp,m,22,r,2,(-121.76378772032352, -121.76378772032348),26,-7,13,yes,x,5,x,0.7749932000006083,1,94,test2,1,0.7752036000001681,-52.0
13,mstp,m,22,r,2,(-121.76378772032348, 121.76378772032349),24,-7,13,yes,x,5,x,0.6203077000000121,1,95,test2,1,0.6205950999992638,-52.0
13,mstp,m,22,r,2,(-121.76378772032352, -121.76378772032348),26,-7,13,yes,x,5,x,0.47652370000014344,1,96,test2,1,0.47681660000034753,-52.0
13,mstp,m,22,r,2,(121.76378772032346, -121.76378772032352),28,7,3,yes,x,5,x,0.5494231000002401,1,1,test1,2,0.5499071999993248,-38.0
13,mstp,m,22,r,2,(172.20000000000002, 0.0),21,3,1,yes,x,5,x,1.1315365999998903,1,2,test1,2,1.1319349000004877,-42.0
13,mstp,m,22,r,2,(-121.76378772032348, 121.76378772032349),24,5,2,yes,x,5,x,0.640471400000024,1,3,test1,2,0.6405647999999928,-40.0
13,mstp,m,22,r,2,(-121.76378772032348, 121.76378772032349),24,-5,12,yes,x,5,x,0.6990850000001956,1,4,test1,2,0.6992902000001777,-50.0
13,mstp,m,22,r,2,(-172.20000000000002, 2.1088417881317425e-14),25,-25,14,yes,x,5,x,0.5490812999996706,1,5,test1,2,0.5492098999993686,-70.0
13,mstp,m,22,r,2,(121.76378772032346, -121.76378772032352),28,-5,12,yes,x,5,x,1.1844060999992507,1,6,test1,2,1.184734500000559,-50.0
13,mstp,m,22,r,2,(121.76378772032349, 121.76378772032349),22,7,3,no,m,6,m,1.5497402999999395,1,7,test1,2,1.550373899999613,-50.0
13,mstp,m,22,r,2,(121.76378772032346, -121.76378772032352),28,5,2,yes,x,5,x,1.1507947000000058,1,8,test1,2,1.1509670000004917,-40.0
13,mstp,m,22,r,2,(121.76378772032349, 121.76378772032349),22,3,1,no,m,6,m,1.5264309000003777,1,9,test1,2,1.526659699999982,-40.0
13,mstp,m,22,r,2,(172.20000000000002, 0.0),21,-3,11,yes,x,5,x,1.172301999999945,1,10,test1,2,1.1727311999993617,-48.0
13,mstp,m,22,r,2,(-172.20000000000002, 2.1088417881317425e-14),25,3,1,yes,x,5,x,1.5640583000003971,1,11,test1,2,1.5641599000000497,-42.0
13,mstp,m,22,r,2,(1.0544208940658713e-14, 172.20000000000002),23,3,1,no,m,6,m,1.5013990999996167,1,12,test1,2,1.5018271999997523,-42.0
13,mstp,m,22,r,2,(1.0544208940658713e-14, 172.20000000000002),23,25,4,no,m,6,m,1.107350199999928,1,13,test1,2,1.1074814000003244,-42.0
13,mstp,m,22,r,2,(1.0544208940658713e-14, 172.20000000000002),23,-5,12,yes,x,5,x,0.8473798000004535,1,14,test1,2,0.8476086999999097,-50.0
13,mstp,m,22,r,2,(-172.20000000000002, 2.1088417881317425e-14),25,5,2,yes,x,5,x,0.6407113000004756,1,15,test1,2,0.6410289000004923,-40.0
13,mstp,m,22,r,2,(-121.76378772032352, -121.76378772032348),26,-5,12,yes,x,5,x,0.8195494000001418,1,16,test1,2,0.8196513000002597,-50.0
13,mstp,m,22,r,2,(1.0544208940658713e-14, 172.20000000000002),23,-25,14,no,m,6,m,0.9802391000002899,1,17,test1,2,0.9803406000000905,-50.0
13,mstp,m,22,r,2,(-3.163262682197613e-14, -172.20000000000002),27,3,1,yes,x,5,m,1.1179585000008956,0,18,test1,2,1.1182846000001518,-42.0
13,mstp,m,22,r,2,(-3.163262682197613e-14, -172.20000000000002),27,-7,13,no,m,6,m,1.6527258999994956,1,19,test1,2,1.6530274000006102,-42.0
13,mstp,m,22,r,2,(-121.76378772032352, -121.76378772032348),26,7,3,no,m,6,m,1.9516595999994024,1,20,test1,2,1.9518204000005426,-42.0
13,mstp,m,22,r,2,(121.76378772032349, 121.76378772032349),22,-3,11,yes,x,5,x,1.1463567999999213,1,21,test1,2,1.1464810000006764,-48.0
13,mstp,m,22,r,2,(1.0544208940658713e-14, 172.20000000000002),23,-25,14,yes,x,5,x,0.5529512000002796,1,22,test1,2,0.5531080000000657,-70.0
13,mstp,m,22,r,2,(-172.20000000000002, 2.1088417881317425e-14),25,-7,13,yes,x,5,x,0.5713447000007363,1,23,test1,2,0.5715919999993275,-52.0
13,mstp,m,22,r,2,(1.0544208940658713e-14, 172.20000000000002),23,-5,12,no,m,6,m,1.3242055000000619,1,24,test1,2,1.3244335000008505,-52.0
13,mstp,m,22,r,2,(172.20000000000002, 0.0),21,5,2,yes,x,5,x,0.5539061999998012,1,25,test1,2,0.5540898999997808,-40.0
13,mstp,m,22,r,2,(121.76378772032349, 121.76378772032349),22,-25,14,yes,x,5,x,0.4293385999999373,1,26,test1,2,0.42946930000016437,-70.0
13,mstp,m,22,r,2,(-3.163262682197613e-14, -172.20000000000002),27,7,3,yes,x,5,x,0.6681466,1,27,test1,2,0.6683286999996199,-38.0
13,mstp,m,22,r,2,(-3.163262682197613e-14, -172.20000000000002),27,-25,14,no,m,6,m,1.2245075000000725,1,28,test1,2,1.2246040999998513,-38.0
13,mstp,m,22,r,2,(121.76378772032349, 121.76378772032349),22,-7,13,yes,x,5,x,0.7813345000004119,1,29,test1,2,0.7814716000002591,-52.0
13,mstp,m,22,r,2,(-172.20000000000002, 2.1088417881317425e-14),25,3,1,yes,x,5,x,1.1443072999991273,1,30,test1,2,1.1445065999996586,-42.0
13,mstp,m,22,r,2,(-3.163262682197613e-14, -172.20000000000002),27,5,2,yes,x,5,x,0.5422268000002077,1,31,test1,2,0.5423861999997825,-40.0
13,mstp,m,22,r,2,(121.76378772032346, -121.76378772032352),28,7,3,yes,x,5,x,0.6276009000002887,1,32,test1,2,0.6278740000007019,-38.0
13,mstp,m,22,r,2,(-121.76378772032348, 121.76378772032349),24,7,3,no,m,6,m,1.3868439999996554,1,33,test1,2,1.3870771000001696,-38.0
13,mstp,m,22,r,2,(-121.76378772032348, 121.76378772032349),24,3,1,no,m,6,m,1.322001100000307,1,34,test1,2,1.3222602999994706,-38.0
13,mstp,m,22,r,2,(-3.163262682197613e-14, -172.20000000000002),27,-5,12,no,m,6,m,1.4598382000003767,1,35,test1,2,1.4599688999996943,-38.0
13,mstp,m,22,r,2,(1.0544208940658713e-14, 172.20000000000002),23,3,1,yes,x,5,x,0.9240903999998409,1,36,test1,2,0.924693699999807,-42.0
13,mstp,m,22,r,2,(121.76378772032346, -121.76378772032352),28,-5,12,no,m,6,m,1.2537160000001677,1,37,test1,2,1.2539563000000271,-42.0
13,mstp,m,22,r,2,(172.20000000000002, 0.0),21,-3,11,no,m,6,m,1.0735102999997252,1,38,test1,2,1.0737546999998813,-42.0
13,mstp,m,22,r,2,(-121.76378772032352, -121.76378772032348),26,-25,14,yes,x,5,x,0.4581321999994543,1,39,test1,2,0.4582510000000184,-70.0
13,mstp,m,22,r,2,(-3.163262682197613e-14, -172.20000000000002),27,25,4,yes,x,5,x,0.49779120000039256,1,40,test1,2,0.49794529999962833,-20.0
13,mstp,m,22,r,2,(-121.76378772032348, 121.76378772032349),24,25,4,yes,x,5,x,0.4705619000005754,1,41,test1,2,0.4708157000004576,-20.0
13,mstp,m,22,r,2,(172.20000000000002, 0.0),21,25,4,yes,x,5,x,0.42992860000049404,1,42,test1,2,0.43028700000013487,-20.0
13,mstp,m,22,r,2,(-121.76378772032352, -121.76378772032348),26,-3,11,yes,x,5,x,0.9726153000001432,1,43,test1,2,0.9727111000001969,-48.0
13,mstp,m,22,r,2,(-172.20000000000002, 2.1088417881317425e-14),25,7,3,no,m,6,m,1.2233047999998234,1,44,test1,2,1.223914899999727,-48.0
13,mstp,m,22,r,2,(172.20000000000002, 0.0),21,-25,14,yes,x,5,x,0.47293160000026546,1,45,test1,2,0.47306360000038694,-70.0
13,mstp,m,22,r,2,(-3.163262682197613e-14, -172.20000000000002),27,-7,13,yes,x,5,x,0.6139718000003995,1,46,test1,2,0.614701999999852,-52.0
13,mstp,m,22,r,2,(172.20000000000002, 0.0),21,7,3,no,m,6,m,1.2769878999997673,1,47,test1,2,1.2772865999995702,-52.0
13,mstp,m,22,r,2,(1.0544208940658713e-14, 172.20000000000002),23,-25,14,yes,x,5,x,0.40590380000048754,1,48,test1,2,0.4065872000001036,-70.0
13,mstp,m,22,r,2,(-121.76378772032352, -121.76378772032348),26,7,3,yes,x,5,x,0.6074007999995956,1,49,test1,2,0.6076798000003691,-38.0
13,mstp,m,22,r,2,(-121.76378772032348, 121.76378772032349),24,-3,11,yes,x,5,x,1.0591053999996802,1,50,test1,2,1.0591997000001356,-48.0
13,mstp,m,22,r,2,(-121.76378772032348, 121.76378772032349),24,3,1,yes,x,5,x,1.332438400000683,1,51,test1,2,1.3327150000004622,-42.0
13,mstp,m,22,r,2,(121.76378772032349, 121.76378772032349),22,-5,12,yes,x,5,x,0.986511199999768,1,52,test1,2,0.9866406999999526,-50.0
13,mstp,m,22,r,2,(-172.20000000000002, 2.1088417881317425e-14),25,-5,12,yes,x,5,x,0.6341367000004539,1,53,test1,2,0.6346226000005117,-50.0
13,mstp,m,22,r,2,(1.0544208940658713e-14, 172.20000000000002),23,-5,12,yes,x,5,x,0.9521358000001783,1,54,test1,2,0.9522308000005069,-50.0
13,mstp,m,22,r,2,(172.20000000000002, 0.0),21,25,4,yes,x,5,x,0.4279495999999199,1,55,test1,2,0.42808549999972456,-20.0
13,mstp,m,22,r,2,(-172.20000000000002, 2.1088417881317425e-14),25,7,3,yes,x,5,x,0.6414259000002858,1,56,test1,2,0.6416074999997363,-38.0
13,mstp,m,22,r,2,(121.76378772032349, 121.76378772032349),22,5,2,yes,x,5,x,0.7653579999996509,1,57,test1,2,0.7655731999993804,-40.0
13,mstp,m,22,r,2,(-3.163262682197613e-14, -172.20000000000002),27,7,3,no,m,6,m,1.1103401999998823,1,58,test1,2,1.1106251999999586,-40.0
13,mstp,m,22,r,2,(172.20000000000002, 0.0),21,-5,12,no,m,6,m,1.2259227999993527,1,59,test1,2,1.2260233999995762,-40.0
13,mstp,m,22,r,2,(121.76378772032349, 121.76378772032349),22,-5,12,yes,x,5,x,0.8151493999994273,1,60,test1,2,0.8152698999992936,-50.0
13,mstp,m,22,r,2,(-121.76378772032348, 121.76378772032349),24,-25,14,yes,x,5,x,0.5088992999999391,1,61,test1,2,0.5091277999999875,-70.0
13,mstp,m,22,r,2,(-121.76378772032352, -121.76378772032348),26,3,1,yes,x,5,x,0.8269261000004917,1,62,test1,2,0.8271764999999505,-42.0
13,mstp,m,22,r,2,(-172.20000000000002, 2.1088417881317425e-14),25,-3,11,yes,x,5,x,0.7220745999993596,1,63,test1,2,0.7223170000006576,-48.0
13,mstp,m,22,r,2,(-3.163262682197613e-14, -172.20000000000002),27,3,1,yes,x,5,x,0.7869028000004619,1,64,test1,2,0.7870704999995723,-42.0
13,mstp,m,22,r,2,(1.0544208940658713e-14, 172.20000000000002),23,25,4,yes,x,5,x,0.47120710000035615,1,65,test1,2,0.471301499999754,-20.0
13,mstp,m,22,r,2,(121.76378772032346, -121.76378772032352),28,-7,13,yes,x,5,x,0.5023482999995394,1,66,test1,2,0.5025728999999046,-52.0
13,mstp,m,22,r,2,(-3.163262682197613e-14, -172.20000000000002),27,5,2,yes,x,5,x,0.5395321999994849,1,67,test1,2,0.5402721000000383,-40.0
13,mstp,m,22,r,2,(-3.163262682197613e-14, -172.20000000000002),27,5,2,no,m,6,m,0.9758529999999155,1,68,test1,2,0.9761811999997008,-40.0
13,mstp,m,22,r,2,(-121.76378772032348, 121.76378772032349),24,-7,13,yes,x,5,x,0.5286740000001373,1,69,test1,2,0.5289913000005981,-52.0
13,mstp,m,22,r,2,(-121.76378772032352, -121.76378772032348),26,5,2,yes,x,5,x,0.5141702999999325,1,70,test1,2,0.5143046000002869,-40.0
13,mstp,m,22,r,2,(1.0544208940658713e-14, 172.20000000000002),23,3,1,yes,x,5,x,1.3486403999995673,1,71,test1,2,1.3491675000004761,-42.0
13,mstp,m,22,r,2,(121.76378772032346, -121.76378772032352),28,25,4,yes,x,5,x,0.4723282000004474,1,72,test1,2,0.47308189999967,-20.0
13,mstp,m,22,r,2,(-172.20000000000002, 2.1088417881317425e-14),25,25,4,yes,x,5,x,0.45584990000043035,1,73,test1,2,0.4559761000000435,-20.0
13,mstp,m,22,r,2,(121.76378772032346, -121.76378772032352),28,-25,14,yes,x,5,x,0.4423243999999613,1,74,test1,2,0.44242469999971945,-70.0
13,mstp,m,22,r,2,(121.76378772032349, 121.76378772032349),22,-25,14,no,m,6,m,1.3158620000003793,1,75,test1,2,1.315961100000095,-70.0
13,mstp,m,22,r,2,(121.76378772032346, -121.76378772032352),28,-7,13,yes,x,5,x,0.8757527999996455,1,76,test1,2,0.876152899999397,-52.0
13,mstp,m,22,r,2,(-121.76378772032348, 121.76378772032349),24,25,4,no,m,6,m,0.9645966999996745,1,77,test1,2,0.9646947999999611,-52.0
13,mstp,m,22,r,2,(1.0544208940658713e-14, 172.20000000000002),23,5,2,yes,x,5,x,0.8324495000006209,1,78,test1,2,0.832769499999813,-40.0
13,mstp,m,22,r,2,(-121.76378772032352, -121.76378772032348),26,3,1,no,m,6,m,0.9468163000001368,1,79,test1,2,0.9470131999996738,-40.0
13,mstp,m,22,r,2,(121.76378772032346, -121.76378772032352),28,3,1,yes,x,5,x,1.1375041999999667,1,80,test1,2,1.1381345999998302,-42.0
13,mstp,m,22,r,2,(-121.76378772032352, -121.76378772032348),26,25,4,yes,x,5,x,0.43791849999979604,1,81,test1,2,0.4381463999998232,-20.0
13,mstp,m,22,r,2,(172.20000000000002, 0.0),21,7,3,yes,x,5,x,0.48269970000001194,1,82,test1,2,0.48287059999984194,-38.0
13,mstp,m,22,r,2,(172.20000000000002, 0.0),21,5,2,yes,x,5,x,0.5956668999997419,1,83,test1,2,0.5957894000002852,-40.0
13,mstp,m,22,r,2,(-172.20000000000002, 2.1088417881317425e-14),25,5,2,yes,x,5,x,0.679134900000463,1,84,test1,2,0.6794157000003906,-40.0
13,mstp,m,22,r,2,(-121.76378772032352, -121.76378772032348),26,7,3,yes,x,5,x,0.4928416999991896,1,85,test1,2,0.4930647000001045,-38.0
13,mstp,m,22,r,2,(-121.76378772032348, 121.76378772032349),24,-7,13,no,m,6,m,1.277191799999855,1,86,test1,2,1.277373500000067,-38.0
13,mstp,m,22,r,2,(-121.76378772032352, -121.76378772032348),26,-3,11,yes,x,5,x,0.7578476999997292,1,87,test1,2,0.7579476999999315,-48.0
13,mstp,m,22,r,2,(-121.76378772032348, 121.76378772032349),24,-3,11,no,m,6,m,0.9684389999993073,1,88,test1,2,0.9686629000007088,-48.0
13,mstp,m,22,r,2,(-3.163262682197613e-14, -172.20000000000002),27,7,3,yes,x,5,x,0.5970856999992975,1,89,test1,2,0.5973233999993681,-38.0
13,mstp,m,22,r,2,(1.0544208940658713e-14, 172.20000000000002),23,-7,13,no,m,6,m,1.0139321999995445,1,90,test1,2,1.0144400999997742,-38.0
13,mstp,m,22,r,2,(-172.20000000000002, 2.1088417881317425e-14),25,7,3,yes,x,5,x,0.49604050000016287,1,91,test1,2,0.4962314999993396,-38.0
13,mstp,m,22,r,2,(1.0544208940658713e-14, 172.20000000000002),23,-7,13,yes,x,5,x,0.618145700000241,1,92,test1,2,0.618811000000278,-52.0
13,mstp,m,22,r,2,(-172.20000000000002, 2.1088417881317425e-14),25,-25,14,yes,x,5,x,0.4779658000006748,1,93,test1,2,0.4784570000001622,-70.0
13,mstp,m,22,r,2,(172.20000000000002, 0.0),21,7,3,yes,x,5,x,0.3953758999996353,1,94,test1,2,0.3956239999997706,-38.0
13,mstp,m,22,r,2,(-121.76378772032348, 121.76378772032349),24,-5,12,no,m,6,m,0.8790662000001248,1,95,test1,2,0.8794549999993251,-38.0
13,mstp,m,22,r,2,(121.76378772032349, 121.76378772032349),22,-3,11,yes,x,5,x,0.9634711000007883,1,96,test1,2,0.963741100000334,-48.0
13,mstp,m,22,r,2,(1.0544208940658713e-14, 172.20000000000002),23,-3,11,no,m,6,m,1.4682975000005172,1,1,test2,2,1.4691023000004861,-48.0
13,mstp,m,22,r,2,(1.0544208940658713e-14, 172.20000000000002),23,-3,11,yes,x,5,x,0.9822203000003356,1,2,test2,2,0.982371900000544,-48.0
13,mstp,m,22,r,2,(-3.163262682197613e-14, -172.20000000000002),27,3,1,no,m,6,m,1.3999460000004547,1,3,test2,2,1.400155000000268,-48.0
13,mstp,m,22,r,2,(-3.163262682197613e-14, -172.20000000000002),27,-3,11,no,m,6,m,1.7227860000002693,1,4,test2,2,1.7230247999996209,-48.0
13,mstp,m,22,r,2,(172.20000000000002, 0.0),21,-25,14,no,m,6,m,1.372715700000299,1,5,test2,2,1.37289200000032,-48.0
13,mstp,m,22,r,2,(-121.76378772032348, 121.76378772032349),24,7,3,yes,x,5,x,0.6869699999997465,1,6,test2,2,0.6872070999997959,-38.0
13,mstp,m,22,r,2,(172.20000000000002, 0.0),21,-7,13,yes,x,5,x,0.8054035999994085,1,7,test2,2,0.8056915000006484,-52.0
13,mstp,m,22,r,2,(-3.163262682197613e-14, -172.20000000000002),27,-3,11,yes,x,5,x,1.271777299999485,1,8,test2,2,1.2719356999996307,-48.0
13,mstp,m,22,r,2,(-121.76378772032348, 121.76378772032349),24,-3,11,yes,x,5,x,0.8730625999996846,1,9,test2,2,0.873202400000082,-48.0
13,mstp,m,22,r,2,(121.76378772032349, 121.76378772032349),22,-5,12,no,m,6,m,1.4784841000000597,1,10,test2,2,1.4788432000004832,-48.0
13,mstp,m,22,r,2,(-121.76378772032352, -121.76378772032348),26,25,4,no,m,6,m,1.6819498000004387,1,11,test2,2,1.6824988999997004,-48.0
13,mstp,m,22,r,2,(172.20000000000002, 0.0),21,-5,12,yes,x,5,x,1.431199800000286,1,12,test2,2,1.431330700000217,-50.0
13,mstp,m,22,r,2,(-172.20000000000002, 2.1088417881317425e-14),25,-7,13,yes,x,5,x,0.889111899999989,1,13,test2,2,0.8894918999994843,-52.0
13,mstp,m,22,r,2,(-172.20000000000002, 2.1088417881317425e-14),25,-3,11,yes,x,5,x,1.8378982000003816,1,14,test2,2,1.8383956999996371,-48.0
13,mstp,m,22,r,2,(121.76378772032346, -121.76378772032352),28,25,4,no,m,6,m,1.7120846999996502,1,15,test2,2,1.7121999999999389,-48.0
13,mstp,m,22,r,2,(-121.76378772032352, -121.76378772032348),26,-7,13,no,m,6,m,1.5982307000003857,1,16,test2,2,1.5983673000000636,-48.0
13,mstp,m,22,r,2,(-172.20000000000002, 2.1088417881317425e-14),25,-5,12,yes,x,5,x,0.7352731999999378,1,17,test2,2,0.7353880999999092,-50.0
13,mstp,m,22,r,2,(121.76378772032349, 121.76378772032349),22,-7,13,no,m,6,m,1.1493798000001334,1,18,test2,2,1.1495081000002756,-50.0
13,mstp,m,22,r,2,(121.76378772032346, -121.76378772032352),28,-5,12,yes,x,5,x,1.7270853999998508,1,19,test2,2,1.7275173999996696,-50.0
13,mstp,m,22,r,2,(121.76378772032346, -121.76378772032352),28,-3,11,yes,x,5,None,None,0,20,test2,2,1.980080799999996,-48.0
13,mstp,m,22,r,2,(-3.163262682197613e-14, -172.20000000000002),27,25,4,yes,x,5,x,0.513626299999487,1,21,test2,2,0.5137705999995887,-20.0
13,mstp,m,22,r,2,(121.76378772032349, 121.76378772032349),22,3,1,yes,x,5,m,1.154042400000435,0,22,test2,2,1.154461999999512,-42.0
13,mstp,m,22,r,2,(172.20000000000002, 0.0),21,-5,12,yes,x,5,x,1.1738959999993313,1,23,test2,2,1.1740658999997322,-50.0
13,mstp,m,22,r,2,(-121.76378772032348, 121.76378772032349),24,5,2,yes,x,5,x,1.0564574999998513,1,24,test2,2,1.0568521999994118,-40.0
13,mstp,m,22,r,2,(-3.163262682197613e-14, -172.20000000000002),27,-7,13,yes,x,5,x,0.8970030000000406,1,25,test2,2,0.8971222000000125,-52.0
13,mstp,m,22,r,2,(-172.20000000000002, 2.1088417881317425e-14),25,-25,14,no,m,6,m,1.3419821999996202,1,26,test2,2,1.3422601000002032,-52.0
13,mstp,m,22,r,2,(121.76378772032349, 121.76378772032349),22,7,3,yes,x,5,x,0.6577088000003641,1,27,test2,2,0.657950200000414,-38.0
13,mstp,m,22,r,2,(121.76378772032349, 121.76378772032349),22,3,1,yes,x,5,x,1.2300013000003673,1,28,test2,2,1.2300984000003155,-42.0
13,mstp,m,22,r,2,(121.76378772032346, -121.76378772032352),28,5,2,no,m,6,m,1.309369599999627,1,29,test2,2,1.3098842999997942,-42.0
13,mstp,m,22,r,2,(-172.20000000000002, 2.1088417881317425e-14),25,-3,11,no,m,6,m,1.2038744000001316,1,30,test2,2,1.204124199999569,-42.0
13,mstp,m,22,r,2,(-121.76378772032352, -121.76378772032348),26,25,4,yes,x,5,x,0.5527409000005719,1,31,test2,2,0.553134200000386,-20.0
13,mstp,m,22,r,2,(1.0544208940658713e-14, 172.20000000000002),23,7,3,no,m,6,m,0.9592663000003085,1,32,test2,2,0.9593944999996893,-20.0
13,mstp,m,22,r,2,(121.76378772032349, 121.76378772032349),22,-7,13,yes,x,5,x,0.7337899000003745,1,33,test2,2,0.7340075000001889,-52.0
13,mstp,m,22,r,2,(172.20000000000002, 0.0),21,5,2,no,m,6,m,0.832177799999954,1,34,test2,2,0.8322799999996278,-52.0
13,mstp,m,22,r,2,(1.0544208940658713e-14, 172.20000000000002),23,7,3,yes,x,5,x,0.6274584000002505,1,35,test2,2,0.6277282000000923,-38.0
13,mstp,m,22,r,2,(172.20000000000002, 0.0),21,25,4,no,m,6,m,1.1127966000003653,1,36,test2,2,1.1128955999993195,-38.0
13,mstp,m,22,r,2,(172.20000000000002, 0.0),21,-3,11,yes,x,5,m,1.2128397000005862,0,37,test2,2,1.2129695000003267,-48.0
13,mstp,m,22,r,2,(-172.20000000000002, 2.1088417881317425e-14),25,25,4,yes,x,5,x,0.49810400000023947,1,38,test2,2,0.4982156000005489,-20.0
13,mstp,m,22,r,2,(-121.76378772032352, -121.76378772032348),26,5,2,no,m,6,m,1.0146107000000484,1,39,test2,2,1.014760699999897,-20.0
13,mstp,m,22,r,2,(1.0544208940658713e-14, 172.20000000000002),23,25,4,yes,x,5,x,0.5235653999998249,1,40,test2,2,0.5236802999997963,-20.0
13,mstp,m,22,r,2,(-3.163262682197613e-14, -172.20000000000002),27,-25,14,yes,x,5,x,0.5335396000000401,1,41,test2,2,0.5337196000000404,-70.0
13,mstp,m,22,r,2,(-121.76378772032352, -121.76378772032348),26,-25,14,yes,x,5,x,0.517396600000211,1,42,test2,2,0.5176217999996879,-70.0
13,mstp,m,22,r,2,(172.20000000000002, 0.0),21,3,1,no,m,6,m,0.7988463000001502,1,43,test2,2,0.7992086000003837,-70.0
13,mstp,m,22,r,2,(-172.20000000000002, 2.1088417881317425e-14),25,5,2,no,m,6,m,0.9529350000002523,1,44,test2,2,0.9531165999997029,-70.0
13,mstp,m,22,r,2,(172.20000000000002, 0.0),21,-7,13,no,m,6,m,0.9760079999996378,1,45,test2,2,0.9761225000002014,-70.0
13,mstp,m,22,r,2,(121.76378772032349, 121.76378772032349),22,25,4,yes,x,5,x,0.5702166000000943,1,46,test2,2,0.5703340999998545,-20.0
13,mstp,m,22,r,2,(121.76378772032349, 121.76378772032349),22,25,4,yes,x,5,x,0.5919931999997061,1,47,test2,2,0.5923111000001882,-20.0
13,mstp,m,22,r,2,(121.76378772032346, -121.76378772032352),28,5,2,yes,x,5,x,0.857828199999858,1,48,test2,2,0.8583252999997057,-40.0
13,mstp,m,22,r,2,(-3.163262682197613e-14, -172.20000000000002),27,25,4,no,m,6,m,0.9768668999995498,1,49,test2,2,0.9769995999995444,-40.0
13,mstp,m,22,r,2,(-121.76378772032352, -121.76378772032348),26,-5,12,no,m,6,m,0.9655976000003648,1,50,test2,2,0.9656942999999956,-40.0
13,mstp,m,22,r,2,(1.0544208940658713e-14, 172.20000000000002),23,5,2,no,m,6,m,0.6871908000002804,1,51,test2,2,0.6873618000008719,-40.0
13,mstp,m,22,r,2,(121.76378772032346, -121.76378772032352),28,3,1,no,m,6,m,0.8671159999994416,1,52,test2,2,0.867218800000046,-40.0
13,mstp,m,22,r,2,(121.76378772032349, 121.76378772032349),22,7,3,yes,x,5,x,0.5310216999996555,1,53,test2,2,0.5311629999996512,-38.0
13,mstp,m,22,r,2,(-172.20000000000002, 2.1088417881317425e-14),25,-5,12,no,m,6,m,1.091552099999717,1,54,test2,2,1.0920077000000674,-38.0
13,mstp,m,22,r,2,(172.20000000000002, 0.0),21,3,1,yes,x,5,m,1.3082787000003009,0,55,test2,2,1.308382399999573,-42.0
13,mstp,m,22,r,2,(172.20000000000002, 0.0),21,-25,14,yes,x,5,x,0.4499479000005522,1,56,test2,2,0.4500489000001835,-70.0
13,mstp,m,22,r,2,(-121.76378772032348, 121.76378772032349),24,-25,14,no,m,6,m,0.9844013000001723,1,57,test2,2,0.9852918999995381,-70.0
13,mstp,m,22,r,2,(-121.76378772032352, -121.76378772032348),26,-3,11,no,m,6,m,0.7589520999999877,1,58,test2,2,0.7590503999999783,-70.0
13,mstp,m,22,r,2,(1.0544208940658713e-14, 172.20000000000002),23,7,3,yes,x,5,x,0.6551949000004242,1,59,test2,2,0.6554058000001532,-38.0
13,mstp,m,22,r,2,(-3.163262682197613e-14, -172.20000000000002),27,-3,11,yes,x,5,x,0.8691128999998909,1,60,test2,2,0.8692375999999058,-48.0
13,mstp,m,22,r,2,(-172.20000000000002, 2.1088417881317425e-14),25,3,1,no,m,6,m,1.1177926000000298,1,61,test2,2,1.1179914000003919,-48.0
13,mstp,m,22,r,2,(-172.20000000000002, 2.1088417881317425e-14),25,-7,13,no,m,6,m,0.8693255999996836,1,62,test2,2,0.8697841000002882,-48.0
13,mstp,m,22,r,2,(-3.163262682197613e-14, -172.20000000000002),27,-5,12,yes,x,5,x,0.6131143000002339,1,63,test2,2,0.613226699999359,-50.0
13,mstp,m,22,r,2,(172.20000000000002, 0.0),21,-7,13,yes,x,5,x,0.5858425999995234,1,64,test2,2,0.5861186000001908,-52.0
13,mstp,m,22,r,2,(121.76378772032349, 121.76378772032349),22,-25,14,yes,x,5,x,0.5081182000003537,1,65,test2,2,0.5086308999998437,-70.0
13,mstp,m,22,r,2,(121.76378772032346, -121.76378772032352),28,7,3,no,m,6,m,1.1750780000002123,1,66,test2,2,1.1751769999991666,-70.0
13,mstp,m,22,r,2,(-121.76378772032348, 121.76378772032349),24,3,1,yes,x,5,m,0.9625554999993255,0,67,test2,2,0.9628123000002233,-42.0
13,mstp,m,22,r,2,(121.76378772032349, 121.76378772032349),22,-3,11,no,m,6,m,0.8967317000006005,1,68,test2,2,0.8968531999998959,-42.0
13,mstp,m,22,r,2,(121.76378772032346, -121.76378772032352),28,-25,14,yes,x,5,x,0.54876989999957,1,69,test2,2,0.549152900000081,-70.0
13,mstp,m,22,r,2,(121.76378772032346, -121.76378772032352),28,25,4,yes,x,5,x,0.5092592000000877,1,70,test2,2,0.5093567000003532,-20.0
13,mstp,m,22,r,2,(-3.163262682197613e-14, -172.20000000000002),27,-5,12,yes,x,5,x,0.5600487000001522,1,71,test2,2,0.5602116000000024,-50.0
13,mstp,m,22,r,2,(121.76378772032346, -121.76378772032352),28,-3,11,no,m,6,m,0.8565312999999151,1,72,test2,2,0.8566916999998284,-50.0
13,mstp,m,22,r,2,(1.0544208940658713e-14, 172.20000000000002),23,-3,11,yes,x,5,x,0.8845510999999533,1,73,test2,2,0.8851156000000628,-48.0
13,mstp,m,22,r,2,(121.76378772032346, -121.76378772032352),28,-25,14,no,m,6,m,0.7865914000003613,1,74,test2,2,0.7867170999998052,-48.0
13,mstp,m,22,r,2,(-121.76378772032348, 121.76378772032349),24,-25,14,yes,x,5,x,0.43975159999990865,1,75,test2,2,0.44031249999989086,-70.0
13,mstp,m,22,r,2,(-121.76378772032352, -121.76378772032348),26,-25,14,no,m,6,m,0.7155710000006366,1,76,test2,2,0.7156944999996995,-70.0
13,mstp,m,22,r,2,(-121.76378772032348, 121.76378772032349),24,25,4,yes,x,5,x,0.48025620000044,1,77,test2,2,0.480558000000201,-20.0
13,mstp,m,22,r,2,(121.76378772032349, 121.76378772032349),22,5,2,yes,x,5,x,0.7091000999998869,1,78,test2,2,0.7093837000002168,-40.0
13,mstp,m,22,r,2,(-3.163262682197613e-14, -172.20000000000002),27,-25,14,yes,x,5,x,0.507552800000667,1,79,test2,2,0.507684799999879,-70.0
13,mstp,m,22,r,2,(-121.76378772032348, 121.76378772032349),24,-5,12,yes,x,5,x,0.8405548999999155,1,80,test2,2,0.8406981000007363,-50.0
13,mstp,m,22,r,2,(-121.76378772032348, 121.76378772032349),24,7,3,yes,x,5,x,0.5240346999999019,1,81,test2,2,0.5243497000001298,-38.0
13,mstp,m,22,r,2,(1.0544208940658713e-14, 172.20000000000002),23,5,2,yes,x,5,x,0.9932533000001058,1,82,test2,2,0.993351399999483,-40.0
13,mstp,m,22,r,2,(121.76378772032346, -121.76378772032352),28,-3,11,yes,x,5,x,1.1005408000000898,1,83,test2,2,1.1006557000000612,-48.0
13,mstp,m,22,r,2,(121.76378772032349, 121.76378772032349),22,25,4,no,m,6,m,0.9656027000000904,1,84,test2,2,0.9657023999998273,-48.0
13,mstp,m,22,r,2,(121.76378772032346, -121.76378772032352),28,3,1,yes,x,5,x,1.175549300000057,1,85,test2,2,1.1757154000006267,-42.0
13,mstp,m,22,r,2,(-121.76378772032352, -121.76378772032348),26,3,1,yes,x,5,x,1.3128946999995605,1,86,test2,2,1.3135834999993676,-42.0
13,mstp,m,22,r,2,(-121.76378772032348, 121.76378772032349),24,5,2,no,m,6,x,1.054979700000331,0,87,test2,2,1.055162399999972,-42.0
13,mstp,m,22,r,2,(1.0544208940658713e-14, 172.20000000000002),23,-7,13,yes,x,5,x,0.5306284999996933,1,88,test2,2,0.5311216000000059,-52.0
13,mstp,m,22,r,2,(-121.76378772032352, -121.76378772032348),26,-5,12,yes,x,5,x,0.6370218000001842,1,89,test2,2,0.6371272000005774,-50.0
13,mstp,m,22,r,2,(-172.20000000000002, 2.1088417881317425e-14),25,25,4,no,m,6,m,1.259196800000609,1,90,test2,2,1.259319300000243,-50.0
13,mstp,m,22,r,2,(121.76378772032346, -121.76378772032352),28,-7,13,no,m,6,m,1.149034500000198,1,91,test2,2,1.1492456000005404,-50.0
13,mstp,m,22,r,2,(121.76378772032349, 121.76378772032349),22,5,2,no,m,6,m,1.0726000000004206,1,92,test2,2,1.0731059999998251,-50.0
13,mstp,m,22,r,2,(-121.76378772032352, -121.76378772032348),26,5,2,yes,x,5,m,0.9446979999993346,0,93,test2,2,0.9452384999995047,-40.0
13,mstp,m,22,r,2,(-121.76378772032352, -121.76378772032348),26,-7,13,yes,x,5,x,0.5106589999995776,1,94,test2,2,0.5109695999999531,-52.0
13,mstp,m,22,r,2,(-121.76378772032348, 121.76378772032349),24,-7,13,yes,x,5,x,0.6290595000000394,1,95,test2,2,0.6291819999996733,-52.0
13,mstp,m,22,r,2,(-121.76378772032352, -121.76378772032348),26,-7,13,yes,x,5,x,0.5931024999999863,1,96,test2,2,0.5931984000008015,-52.0
13,mstp,m,22,r,2,(121.76378772032346, -121.76378772032352),28,7,3,yes,x,5,x,0.7254352999998446,1,1,test1,3,0.7255709999999453,-38.0
13,mstp,m,22,r,2,(172.20000000000002, 0.0),21,3,1,yes,x,5,x,0.8700601000000461,1,2,test1,3,0.8704888000002029,-42.0
13,mstp,m,22,r,2,(-121.76378772032348, 121.76378772032349),24,5,2,yes,x,5,x,0.8142513000002509,1,3,test1,3,0.8143932999992103,-40.0
13,mstp,m,22,r,2,(-121.76378772032348, 121.76378772032349),24,-5,12,yes,x,5,x,0.7388340999996217,1,4,test1,3,0.7392313000000286,-50.0
13,mstp,m,22,r,2,(-172.20000000000002, 2.1088417881317425e-14),25,-25,14,yes,x,5,x,0.4576686999998856,1,5,test1,3,0.45778619999964576,-70.0
13,mstp,m,22,r,2,(121.76378772032346, -121.76378772032352),28,-5,12,yes,x,5,x,0.7192408000000796,1,6,test1,3,0.7193968000001405,-50.0
13,mstp,m,22,r,2,(121.76378772032349, 121.76378772032349),22,7,3,no,m,6,m,1.1621587999998155,1,7,test1,3,1.1624763999998322,-50.0
13,mstp,m,22,r,2,(121.76378772032346, -121.76378772032352),28,5,2,yes,x,5,x,0.848959000000832,1,8,test1,3,0.8494526999993468,-40.0
13,mstp,m,22,r,2,(121.76378772032349, 121.76378772032349),22,3,1,no,m,6,m,1.3378453999994235,1,9,test1,3,1.3380118000004586,-40.0
13,mstp,m,22,r,2,(172.20000000000002, 0.0),21,-3,11,yes,x,5,x,0.9744978999997329,1,10,test1,3,0.9747315000004164,-48.0
13,mstp,m,22,r,2,(-172.20000000000002, 2.1088417881317425e-14),25,3,1,yes,x,5,x,0.8665892999997595,1,11,test1,3,0.8674551000003703,-42.0
13,mstp,m,22,r,2,(1.0544208940658713e-14, 172.20000000000002),23,3,1,no,m,6,m,1.2572989000000234,1,12,test1,3,1.2576349999999366,-42.0
13,mstp,m,22,r,2,(1.0544208940658713e-14, 172.20000000000002),23,25,4,no,m,6,m,1.0261559000000489,1,13,test1,3,1.0263696999991225,-42.0
13,mstp,m,22,r,2,(1.0544208940658713e-14, 172.20000000000002),23,-5,12,yes,x,5,x,0.7359886000003826,1,14,test1,3,0.7365008999995553,-50.0
13,mstp,m,22,r,2,(-172.20000000000002, 2.1088417881317425e-14),25,5,2,yes,x,5,x,0.6564453000000867,1,15,test1,3,0.6566946000002645,-40.0
13,mstp,m,22,r,2,(-121.76378772032352, -121.76378772032348),26,-5,12,yes,x,5,x,0.5298552999993262,1,16,test1,3,0.5299543000000995,-50.0
13,mstp,m,22,r,2,(1.0544208940658713e-14, 172.20000000000002),23,-25,14,no,m,6,m,0.8165995999997904,1,17,test1,3,0.816721499999403,-50.0
13,mstp,m,22,r,2,(-3.163262682197613e-14, -172.20000000000002),27,3,1,yes,x,5,x,0.8612648999996964,1,18,test1,3,0.8613735999997516,-42.0
13,mstp,m,22,r,2,(-3.163262682197613e-14, -172.20000000000002),27,-7,13,no,m,6,m,1.1008575999994719,1,19,test1,3,1.1011057999994591,-42.0
13,mstp,m,22,r,2,(-121.76378772032352, -121.76378772032348),26,7,3,no,m,6,m,0.897908599999937,1,20,test1,3,0.8985708000000159,-42.0
13,mstp,m,22,r,2,(121.76378772032349, 121.76378772032349),22,-3,11,yes,x,5,x,0.9961555999998382,1,21,test1,3,0.996283599999515,-48.0
13,mstp,m,22,r,2,(1.0544208940658713e-14, 172.20000000000002),23,-25,14,yes,x,5,x,0.445142699999451,1,22,test1,3,0.4452406999998857,-70.0
13,mstp,m,22,r,2,(-172.20000000000002, 2.1088417881317425e-14),25,-7,13,yes,x,5,x,0.4955736000001707,1,23,test1,3,0.4958353000001807,-52.0
13,mstp,m,22,r,2,(1.0544208940658713e-14, 172.20000000000002),23,-5,12,no,m,6,m,0.8288636999996015,1,24,test1,3,0.8290928999995231,-52.0
13,mstp,m,22,r,2,(172.20000000000002, 0.0),21,5,2,yes,x,5,x,0.6194248000001608,1,25,test1,3,0.619521600000553,-40.0
13,mstp,m,22,r,2,(121.76378772032349, 121.76378772032349),22,-25,14,yes,x,5,x,0.43588760000056936,1,26,test1,3,0.4361926000001404,-70.0
13,mstp,m,22,r,2,(-3.163262682197613e-14, -172.20000000000002),27,7,3,yes,x,5,x,0.5788636000006591,1,27,test1,3,0.5789813999999751,-38.0
13,mstp,m,22,r,2,(-3.163262682197613e-14, -172.20000000000002),27,-25,14,no,m,6,m,1.2505909999999858,1,28,test1,3,1.250713700000233,-38.0
13,mstp,m,22,r,2,(121.76378772032349, 121.76378772032349),22,-7,13,yes,x,5,x,0.48629889999938314,1,29,test1,3,0.4865157000003819,-52.0
13,mstp,m,22,r,2,(-172.20000000000002, 2.1088417881317425e-14),25,3,1,yes,x,5,x,0.7023985000005268,1,30,test1,3,0.7026236000001518,-42.0
13,mstp,m,22,r,2,(-3.163262682197613e-14, -172.20000000000002),27,5,2,yes,x,5,x,0.7107992000001104,1,31,test1,3,0.710965700000088,-40.0
13,mstp,m,22,r,2,(121.76378772032346, -121.76378772032352),28,7,3,yes,x,5,x,0.6225241000001915,1,32,test1,3,0.6226825000003373,-38.0
13,mstp,m,22,r,2,(-121.76378772032348, 121.76378772032349),24,7,3,no,m,6,m,0.7706551999999647,1,33,test1,3,0.7708564999993541,-38.0
13,mstp,m,22,r,2,(-121.76378772032348, 121.76378772032349),24,3,1,no,m,6,m,0.8236195999998017,1,34,test1,3,0.8239754000005632,-38.0
13,mstp,m,22,r,2,(-3.163262682197613e-14, -172.20000000000002),27,-5,12,no,m,6,m,0.9284022000001642,1,35,test1,3,0.9285023000002184,-38.0
13,mstp,m,22,r,2,(1.0544208940658713e-14, 172.20000000000002),23,3,1,yes,x,5,x,0.8005198999999266,1,36,test1,3,0.8006759999998394,-42.0
13,mstp,m,22,r,2,(121.76378772032346, -121.76378772032352),28,-5,12,no,m,6,x,0.7902722000007998,0,37,test1,3,0.7903977000005398,-42.0
13,mstp,m,22,r,2,(172.20000000000002, 0.0),21,-3,11,no,m,6,m,0.9222767000001113,1,38,test1,3,0.9225864999998521,-42.0
13,mstp,m,22,r,2,(-121.76378772032352, -121.76378772032348),26,-25,14,yes,x,5,x,0.44523600000047736,1,39,test1,3,0.4455508999999438,-70.0
13,mstp,m,22,r,2,(-3.163262682197613e-14, -172.20000000000002),27,25,4,yes,x,5,x,0.4071991999999227,1,40,test1,3,0.4073403000002145,-20.0
13,mstp,m,22,r,2,(-121.76378772032348, 121.76378772032349),24,25,4,yes,x,5,x,0.4046750000006796,1,41,test1,3,0.4049623999999312,-20.0
13,mstp,m,22,r,2,(172.20000000000002, 0.0),21,25,4,yes,x,5,x,0.41236969999954454,1,42,test1,3,0.4124684000007619,-20.0
13,mstp,m,22,r,2,(-121.76378772032352, -121.76378772032348),26,-3,11,yes,x,5,x,0.8843741999999111,1,43,test1,3,0.884612400000151,-48.0
13,mstp,m,22,r,2,(-172.20000000000002, 2.1088417881317425e-14),25,7,3,no,m,6,m,1.0449834999999439,1,44,test1,3,1.0451831000000311,-48.0
13,mstp,m,22,r,2,(172.20000000000002, 0.0),21,-25,14,yes,x,5,x,0.4743890999998257,1,45,test1,3,0.4745029000005161,-70.0
13,mstp,m,22,r,2,(-3.163262682197613e-14, -172.20000000000002),27,-7,13,yes,x,5,x,0.46341469999970286,1,46,test1,3,0.463516000000709,-52.0
13,mstp,m,22,r,2,(172.20000000000002, 0.0),21,7,3,no,m,6,m,1.039964599999621,1,47,test1,3,1.040682700000616,-52.0
13,mstp,m,22,r,2,(1.0544208940658713e-14, 172.20000000000002),23,-25,14,yes,x,5,x,0.4353141000001415,1,48,test1,3,0.435543300000063,-70.0
13,mstp,m,22,r,2,(-121.76378772032352, -121.76378772032348),26,7,3,yes,x,5,x,0.500215300000491,1,49,test1,3,0.5006036999993739,-38.0
13,mstp,m,22,r,2,(-121.76378772032348, 121.76378772032349),24,-3,11,yes,x,5,x,1.1117829999993774,1,50,test1,3,1.1120780000001105,-48.0
13,mstp,m,22,r,2,(-121.76378772032348, 121.76378772032349),24,3,1,yes,x,5,x,0.7307421999994403,1,51,test1,3,0.7308989000002839,-42.0
13,mstp,m,22,r,2,(121.76378772032349, 121.76378772032349),22,-5,12,yes,x,5,x,0.6462322999996104,1,52,test1,3,0.6464041999997789,-50.0
13,mstp,m,22,r,2,(-172.20000000000002, 2.1088417881317425e-14),25,-5,12,yes,x,5,x,0.4939810000005309,1,53,test1,3,0.49410790000001725,-50.0
13,mstp,m,22,r,2,(1.0544208940658713e-14, 172.20000000000002),23,-5,12,yes,x,5,x,0.7787855999995372,1,54,test1,3,0.7788872000000993,-50.0
13,mstp,m,22,r,2,(172.20000000000002, 0.0),21,25,4,yes,x,5,x,0.3920048999998471,1,55,test1,3,0.39231479999943986,-20.0
13,mstp,m,22,r,2,(-172.20000000000002, 2.1088417881317425e-14),25,7,3,yes,x,5,x,0.41610820000005333,1,56,test1,3,0.4162333000003855,-38.0
13,mstp,m,22,r,2,(121.76378772032349, 121.76378772032349),22,5,2,yes,x,5,x,0.8504414999997607,1,57,test1,3,0.8506314000005659,-40.0
13,mstp,m,22,r,2,(-3.163262682197613e-14, -172.20000000000002),27,7,3,no,m,6,m,1.0781831000003876,1,58,test1,3,1.0783095999995567,-40.0
13,mstp,m,22,r,2,(172.20000000000002, 0.0),21,-5,12,no,m,6,m,0.8652744000000894,1,59,test1,3,0.8655776999994487,-40.0
13,mstp,m,22,r,2,(121.76378772032349, 121.76378772032349),22,-5,12,yes,x,5,x,0.5259869000001345,1,60,test1,3,0.5262097999993784,-50.0
13,mstp,m,22,r,2,(-121.76378772032348, 121.76378772032349),24,-25,14,yes,x,5,x,0.41173280000020895,1,61,test1,3,0.4118669999998019,-70.0
13,mstp,m,22,r,2,(-121.76378772032352, -121.76378772032348),26,3,1,yes,x,5,x,0.6275024999995367,1,62,test1,3,0.6277768999998443,-42.0
13,mstp,m,22,r,2,(-172.20000000000002, 2.1088417881317425e-14),25,-3,11,yes,x,5,x,0.9053791000005731,1,63,test1,3,0.9055981000001339,-48.0
13,mstp,m,22,r,2,(-3.163262682197613e-14, -172.20000000000002),27,3,1,yes,x,5,x,0.691348399999697,1,64,test1,3,0.6917997999998988,-42.0
13,mstp,m,22,r,2,(1.0544208940658713e-14, 172.20000000000002),23,25,4,yes,x,5,x,0.44925639999928535,1,65,test1,3,0.4493871000004219,-20.0
13,mstp,m,22,r,2,(121.76378772032346, -121.76378772032352),28,-7,13,yes,x,5,x,0.49321839999993244,1,66,test1,3,0.49341499999991356,-52.0
13,mstp,m,22,r,2,(-3.163262682197613e-14, -172.20000000000002),27,5,2,yes,x,5,x,0.5396482000005562,1,67,test1,3,0.539807699999983,-40.0
13,mstp,m,22,r,2,(-3.163262682197613e-14, -172.20000000000002),27,5,2,no,m,6,m,1.1216119999999137,1,68,test1,3,1.122000900000785,-40.0
13,mstp,m,22,r,2,(-121.76378772032348, 121.76378772032349),24,-7,13,yes,x,5,x,0.43703370000002906,1,69,test1,3,0.4372873000002073,-52.0
13,mstp,m,22,r,2,(-121.76378772032352, -121.76378772032348),26,5,2,yes,x,5,x,0.4721386999999595,1,70,test1,3,0.4723780000003899,-40.0
13,mstp,m,22,r,2,(1.0544208940658713e-14, 172.20000000000002),23,3,1,yes,x,5,x,1.3473738000002413,1,71,test1,3,1.347504499999559,-42.0
13,mstp,m,22,r,2,(121.76378772032346, -121.76378772032352),28,25,4,yes,x,5,x,0.434679099999812,1,72,test1,3,0.43483500000002095,-20.0
13,mstp,m,22,r,2,(-172.20000000000002, 2.1088417881317425e-14),25,25,4,yes,x,5,x,0.4038096000003861,1,73,test1,3,0.4039489999995567,-20.0
13,mstp,m,22,r,2,(121.76378772032346, -121.76378772032352),28,-25,14,yes,x,5,x,0.4239328999992722,1,74,test1,3,0.42410040000049776,-70.0
13,mstp,m,22,r,2,(121.76378772032349, 121.76378772032349),22,-25,14,no,m,6,m,1.014913500000148,1,75,test1,3,1.0151541999994151,-70.0
13,mstp,m,22,r,2,(121.76378772032346, -121.76378772032352),28,-7,13,yes,x,5,x,0.48424859999977343,1,76,test1,3,0.4843747999993866,-52.0
13,mstp,m,22,r,2,(-121.76378772032348, 121.76378772032349),24,25,4,no,m,6,m,1.0971699000001536,1,77,test1,3,1.0972948999997243,-52.0
13,mstp,m,22,r,2,(1.0544208940658713e-14, 172.20000000000002),23,5,2,yes,x,5,x,0.8446045999999114,1,78,test1,3,0.8447402000001603,-40.0
13,mstp,m,22,r,2,(-121.76378772032352, -121.76378772032348),26,3,1,no,m,6,m,0.7934640999992553,1,79,test1,3,0.7939711999997598,-40.0
13,mstp,m,22,r,2,(121.76378772032346, -121.76378772032352),28,3,1,yes,x,5,x,0.5859190000001036,1,80,test1,3,0.5861371000000872,-42.0
13,mstp,m,22,r,2,(-121.76378772032352, -121.76378772032348),26,25,4,yes,x,5,x,0.4815312000000631,1,81,test1,3,0.48175049999917974,-20.0
13,mstp,m,22,r,2,(172.20000000000002, 0.0),21,7,3,yes,x,5,x,0.6651216999998724,1,82,test1,3,0.6652718999994249,-38.0
13,mstp,m,22,r,2,(172.20000000000002, 0.0),21,5,2,yes,x,5,x,0.7554543999995076,1,83,test1,3,0.7555787999999666,-40.0
13,mstp,m,22,r,2,(-172.20000000000002, 2.1088417881317425e-14),25,5,2,yes,x,5,x,0.7460956000004444,1,84,test1,3,0.7462257999995927,-40.0
13,mstp,m,22,r,2,(-121.76378772032352, -121.76378772032348),26,7,3,yes,x,5,x,0.6187970999999379,1,85,test1,3,0.6188928999999916,-38.0
13,mstp,m,22,r,2,(-121.76378772032348, 121.76378772032349),24,-7,13,no,m,6,m,0.8995796999997765,1,86,test1,3,0.9004447999996046,-38.0
13,mstp,m,22,r,2,(-121.76378772032352, -121.76378772032348),26,-3,11,yes,x,5,x,0.5656526000002486,1,87,test1,3,0.5661098000000493,-48.0
13,mstp,m,22,r,2,(-121.76378772032348, 121.76378772032349),24,-3,11,no,m,6,m,1.356568299999708,1,88,test1,3,1.3570173999996769,-48.0
13,mstp,m,22,r,2,(-3.163262682197613e-14, -172.20000000000002),27,7,3,yes,x,5,x,0.454055199999857,1,89,test1,3,0.4541761000000406,-38.0
13,mstp,m,22,r,2,(1.0544208940658713e-14, 172.20000000000002),23,-7,13,no,m,6,m,0.8940473000002385,1,90,test1,3,0.8941482999998698,-38.0
13,mstp,m,22,r,2,(-172.20000000000002, 2.1088417881317425e-14),25,7,3,yes,x,5,x,0.3959002000001419,1,91,test1,3,0.39610590000029333,-38.0
13,mstp,m,22,r,2,(1.0544208940658713e-14, 172.20000000000002),23,-7,13,yes,x,5,x,0.5343493000000308,1,92,test1,3,0.534659200000533,-52.0
13,mstp,m,22,r,2,(-172.20000000000002, 2.1088417881317425e-14),25,-25,14,yes,x,5,x,0.40158730000075593,1,93,test1,3,0.4017475000000559,-70.0
13,mstp,m,22,r,2,(172.20000000000002, 0.0),21,7,3,yes,x,5,x,0.515480000000025,1,94,test1,3,0.5156906000001982,-38.0
13,mstp,m,22,r,2,(-121.76378772032348, 121.76378772032349),24,-5,12,no,m,6,m,1.0998946999998225,1,95,test1,3,1.1000064999998358,-38.0
13,mstp,m,22,r,2,(121.76378772032349, 121.76378772032349),22,-3,11,yes,x,5,m,1.013640299999679,0,96,test1,3,1.0140391000004456,-48.0
13,mstp,m,22,r,2,(1.0544208940658713e-14, 172.20000000000002),23,-3,11,no,m,6,m,1.5503466999998636,1,1,test2,3,1.5505158000005395,-48.0
13,mstp,m,22,r,2,(1.0544208940658713e-14, 172.20000000000002),23,-3,11,yes,x,5,x,0.6676086000006762,1,2,test2,3,0.6678235999997923,-48.0
13,mstp,m,22,r,2,(-3.163262682197613e-14, -172.20000000000002),27,3,1,no,m,6,m,1.322895199999948,1,3,test2,3,1.323182199999792,-48.0
13,mstp,m,22,r,2,(-3.163262682197613e-14, -172.20000000000002),27,-3,11,no,m,6,m,1.3608749000004536,1,4,test2,3,1.36105359999965,-48.0
13,mstp,m,22,r,2,(172.20000000000002, 0.0),21,-25,14,no,m,6,m,1.6633825999997498,1,5,test2,3,1.6635145999998713,-48.0
13,mstp,m,22,r,2,(-121.76378772032348, 121.76378772032349),24,7,3,yes,x,5,x,0.5165458999999828,1,6,test2,3,0.516765999999734,-38.0
13,mstp,m,22,r,2,(172.20000000000002, 0.0),21,-7,13,yes,x,5,m,0.5828261999995448,0,7,test2,3,0.5829549000000043,-52.0
13,mstp,m,22,r,2,(-3.163262682197613e-14, -172.20000000000002),27,-3,11,yes,x,5,x,0.8010543999998845,1,8,test2,3,0.8012686999991274,-48.0
13,mstp,m,22,r,2,(-121.76378772032348, 121.76378772032349),24,-3,11,yes,x,5,x,0.8989472000002934,1,9,test2,3,0.8992754000000787,-48.0
13,mstp,m,22,r,2,(121.76378772032349, 121.76378772032349),22,-5,12,no,m,6,m,0.9580294999996113,1,10,test2,3,0.9581723000001148,-48.0
13,mstp,m,22,r,2,(-121.76378772032352, -121.76378772032348),26,25,4,no,m,6,m,0.865504499999588,1,11,test2,3,0.8657340999998269,-48.0
13,mstp,m,22,r,2,(172.20000000000002, 0.0),21,-5,12,yes,x,5,x,0.4507287999995242,1,12,test2,3,0.4508466999996017,-50.0
13,mstp,m,22,r,2,(-172.20000000000002, 2.1088417881317425e-14),25,-7,13,yes,x,5,x,0.4587399000001824,1,13,test2,3,0.45914209999955347,-52.0
13,mstp,m,22,r,2,(-172.20000000000002, 2.1088417881317425e-14),25,-3,11,yes,x,5,x,0.5566773999998986,1,14,test2,3,0.5567915000001449,-48.0
13,mstp,m,22,r,2,(121.76378772032346, -121.76378772032352),28,25,4,no,m,6,m,1.157086000000163,1,15,test2,3,1.1573095000003377,-48.0
13,mstp,m,22,r,2,(-121.76378772032352, -121.76378772032348),26,-7,13,no,m,6,m,0.9336080000002767,1,16,test2,3,0.9337076000001616,-48.0
13,mstp,m,22,r,2,(-172.20000000000002, 2.1088417881317425e-14),25,-5,12,yes,x,5,x,0.40829279999979917,1,17,test2,3,0.40846630000032746,-50.0
13,mstp,m,22,r,2,(121.76378772032349, 121.76378772032349),22,-7,13,no,m,6,m,0.8367901999999958,1,18,test2,3,0.8368915000000925,-50.0
13,mstp,m,22,r,2,(121.76378772032346, -121.76378772032352),28,-5,12,yes,x,5,x,0.5160061999995378,1,19,test2,3,0.5161128999998255,-50.0
13,mstp,m,22,r,2,(121.76378772032346, -121.76378772032352),28,-3,11,yes,x,5,x,0.7486310000003868,1,20,test2,3,0.748760499999662,-48.0
13,mstp,m,22,r,2,(-3.163262682197613e-14, -172.20000000000002),27,25,4,yes,x,5,x,0.38381759999992937,1,21,test2,3,0.38448460000017803,-20.0
13,mstp,m,22,r,2,(121.76378772032349, 121.76378772032349),22,3,1,yes,x,5,m,1.161838899999566,0,22,test2,3,1.162111100000402,-42.0
13,mstp,m,22,r,2,(172.20000000000002, 0.0),21,-5,12,yes,x,5,x,0.4852052000005642,1,23,test2,3,0.48533709999992425,-50.0
13,mstp,m,22,r,2,(-121.76378772032348, 121.76378772032349),24,5,2,yes,x,5,x,0.6673789999995279,1,24,test2,3,0.6675980999998501,-40.0
13,mstp,m,22,r,2,(-3.163262682197613e-14, -172.20000000000002),27,-7,13,yes,x,5,x,0.4836236999999528,1,25,test2,3,0.4839113999996698,-52.0
13,mstp,m,22,r,2,(-172.20000000000002, 2.1088417881317425e-14),25,-25,14,no,m,6,m,1.1300407999997333,1,26,test2,3,1.1301612999995996,-52.0
13,mstp,m,22,r,2,(121.76378772032349, 121.76378772032349),22,7,3,yes,x,5,x,0.49100559999988036,1,27,test2,3,0.49112009999953443,-38.0
13,mstp,m,22,r,2,(121.76378772032349, 121.76378772032349),22,3,1,yes,x,5,x,0.65993730000082,1,28,test2,3,0.6605822999999873,-42.0
13,mstp,m,22,r,2,(121.76378772032346, -121.76378772032352),28,5,2,no,m,6,m,0.9890358000002379,1,29,test2,3,0.9897945000002437,-42.0
13,mstp,m,22,r,2,(-172.20000000000002, 2.1088417881317425e-14),25,-3,11,no,m,6,m,1.099330099999861,1,30,test2,3,1.0994586000006166,-42.0
13,mstp,m,22,r,2,(-121.76378772032352, -121.76378772032348),26,25,4,yes,x,5,x,0.4757857000004151,1,31,test2,3,0.47597070000028907,-20.0
13,mstp,m,22,r,2,(1.0544208940658713e-14, 172.20000000000002),23,7,3,no,m,6,m,1.0170326000006753,1,32,test2,3,1.0171304000004966,-20.0
13,mstp,m,22,r,2,(121.76378772032349, 121.76378772032349),22,-7,13,yes,x,5,x,0.534491700000217,1,33,test2,3,0.534787900000083,-52.0
13,mstp,m,22,r,2,(172.20000000000002, 0.0),21,5,2,no,m,6,m,1.531670800000029,1,34,test2,3,1.531898100000035,-52.0
13,mstp,m,22,r,2,(1.0544208940658713e-14, 172.20000000000002),23,7,3,yes,x,5,x,0.5983765999999378,1,35,test2,3,0.5986590000002252,-38.0
13,mstp,m,22,r,2,(172.20000000000002, 0.0),21,25,4,no,m,6,m,1.0041909999999916,1,36,test2,3,1.0044935999994777,-38.0
13,mstp,m,22,r,2,(172.20000000000002, 0.0),21,-3,11,yes,x,5,x,0.7820535000000746,1,37,test2,3,0.7821957999994993,-48.0
13,mstp,m,22,r,2,(-172.20000000000002, 2.1088417881317425e-14),25,25,4,yes,x,5,x,0.40994750000027125,1,38,test2,3,0.41007530000024417,-20.0
13,mstp,m,22,r,2,(-121.76378772032352, -121.76378772032348),26,5,2,no,m,6,m,0.9191715999995722,1,39,test2,3,0.9195426000005682,-20.0
13,mstp,m,22,r,2,(1.0544208940658713e-14, 172.20000000000002),23,25,4,yes,x,5,x,0.3596976999997423,1,40,test2,3,0.3599064999998518,-20.0
13,mstp,m,22,r,2,(-3.163262682197613e-14, -172.20000000000002),27,-25,14,yes,x,5,x,0.3600877999997465,1,41,test2,3,0.36049999999977445,-70.0
13,mstp,m,22,r,2,(-121.76378772032352, -121.76378772032348),26,-25,14,yes,x,5,x,0.40590270000029705,1,42,test2,3,0.4061352999997325,-70.0
13,mstp,m,22,r,2,(172.20000000000002, 0.0),21,3,1,no,m,6,m,0.8893606999999975,1,43,test2,3,0.8895676000001913,-70.0
13,mstp,m,22,r,2,(-172.20000000000002, 2.1088417881317425e-14),25,5,2,no,m,6,m,0.994437199999993,1,44,test2,3,0.9946171999999933,-70.0
13,mstp,m,22,r,2,(172.20000000000002, 0.0),21,-7,13,no,m,6,m,0.7212907000002815,1,45,test2,3,0.7213910000000396,-70.0
13,mstp,m,22,r,2,(121.76378772032349, 121.76378772032349),22,25,4,yes,x,5,x,0.41981880000003,1,46,test2,3,0.420050299999275,-20.0
13,mstp,m,22,r,2,(121.76378772032349, 121.76378772032349),22,25,4,yes,x,5,x,0.4930583999994269,1,47,test2,3,0.4931728999999905,-20.0
13,mstp,m,22,r,2,(121.76378772032346, -121.76378772032352),28,5,2,yes,x,5,x,0.5583779999997205,1,48,test2,3,0.5585839999994278,-40.0
13,mstp,m,22,r,2,(-3.163262682197613e-14, -172.20000000000002),27,25,4,no,m,6,m,0.8197733000006338,1,49,test2,3,0.819872199999736,-40.0
13,mstp,m,22,r,2,(-121.76378772032352, -121.76378772032348),26,-5,12,no,m,6,m,0.7177880999997797,1,50,test2,3,0.7184104999996634,-40.0
13,mstp,m,22,r,2,(1.0544208940658713e-14, 172.20000000000002),23,5,2,no,m,6,m,0.670773900000313,1,51,test2,3,0.6708741000002192,-40.0
13,mstp,m,22,r,2,(121.76378772032346, -121.76378772032352),28,3,1,no,m,6,m,0.7557569999999032,1,52,test2,3,0.7560853000004499,-40.0
13,mstp,m,22,r,2,(121.76378772032349, 121.76378772032349),22,7,3,yes,x,5,x,0.6249990999995134,1,53,test2,3,0.6252902999995058,-38.0
13,mstp,m,22,r,2,(-172.20000000000002, 2.1088417881317425e-14),25,-5,12,no,m,6,m,0.7940847999998368,1,54,test2,3,0.7943035000007512,-38.0
13,mstp,m,22,r,2,(172.20000000000002, 0.0),21,3,1,yes,x,5,x,1.0429799000003186,1,55,test2,3,1.0431782999994539,-42.0
13,mstp,m,22,r,2,(172.20000000000002, 0.0),21,-25,14,yes,x,5,x,0.6119018999997934,1,56,test2,3,0.6120301000000836,-70.0
13,mstp,m,22,r,2,(-121.76378772032348, 121.76378772032349),24,-25,14,no,m,6,m,0.9406863000003796,1,57,test2,3,0.940997900000184,-70.0
13,mstp,m,22,r,2,(-121.76378772032352, -121.76378772032348),26,-3,11,no,m,6,m,0.9157922000003964,1,58,test2,3,0.9160214999992604,-70.0
13,mstp,m,22,r,2,(1.0544208940658713e-14, 172.20000000000002),23,7,3,yes,x,5,x,0.4544244000007893,1,59,test2,3,0.4546141999999236,-38.0
13,mstp,m,22,r,2,(-3.163262682197613e-14, -172.20000000000002),27,-3,11,yes,x,5,x,1.357771099999809,1,60,test2,3,1.3582469000002675,-48.0
13,mstp,m,22,r,2,(-172.20000000000002, 2.1088417881317425e-14),25,3,1,no,m,6,m,0.813296100000116,1,61,test2,3,0.8135143999998036,-48.0
13,mstp,m,22,r,2,(-172.20000000000002, 2.1088417881317425e-14),25,-7,13,no,m,6,m,1.088212999999996,1,62,test2,3,1.0883707000002687,-48.0
13,mstp,m,22,r,2,(-3.163262682197613e-14, -172.20000000000002),27,-5,12,yes,x,5,x,0.5076933000000281,1,63,test2,3,0.5078130000001693,-50.0
13,mstp,m,22,r,2,(172.20000000000002, 0.0),21,-7,13,yes,x,5,x,0.6027831000001243,1,64,test2,3,0.6029982999998538,-52.0
13,mstp,m,22,r,2,(121.76378772032349, 121.76378772032349),22,-25,14,yes,x,5,x,0.45013960000051156,1,65,test2,3,0.4505829999998241,-70.0
13,mstp,m,22,r,2,(121.76378772032346, -121.76378772032352),28,7,3,no,m,6,m,0.9152973000000202,1,66,test2,3,0.9157407000002422,-70.0
13,mstp,m,22,r,2,(-121.76378772032348, 121.76378772032349),24,3,1,yes,x,5,x,1.1618712999998024,1,67,test2,3,1.1620020999998815,-42.0
13,mstp,m,22,r,2,(121.76378772032349, 121.76378772032349),22,-3,11,no,m,6,m,1.0364789000004748,1,68,test2,3,1.0366032000001724,-42.0
13,mstp,m,22,r,2,(121.76378772032346, -121.76378772032352),28,-25,14,yes,x,5,x,0.46765120000054594,1,69,test2,3,0.4677646000000095,-70.0
13,mstp,m,22,r,2,(121.76378772032346, -121.76378772032352),28,25,4,yes,x,5,x,0.5204606999996031,1,70,test2,3,0.5206454000008307,-20.0
13,mstp,m,22,r,2,(-3.163262682197613e-14, -172.20000000000002),27,-5,12,yes,x,5,x,0.6142117999997936,1,71,test2,3,0.6146018999997978,-50.0
13,mstp,m,22,r,2,(121.76378772032346, -121.76378772032352),28,-3,11,no,m,6,m,0.7517471000001024,1,72,test2,3,0.7518956000003527,-50.0
13,mstp,m,22,r,2,(1.0544208940658713e-14, 172.20000000000002),23,-3,11,yes,x,5,x,1.1711268999997628,1,73,test2,3,1.1712622000004558,-48.0
13,mstp,m,22,r,2,(121.76378772032346, -121.76378772032352),28,-25,14,no,m,6,m,0.9536692000001494,1,74,test2,3,0.9537940000000162,-48.0
13,mstp,m,22,r,2,(-121.76378772032348, 121.76378772032349),24,-25,14,yes,x,5,x,0.48667659999955504,1,75,test2,3,0.48797430000013264,-70.0
13,mstp,m,22,r,2,(-121.76378772032352, -121.76378772032348),26,-25,14,no,m,6,m,0.8128192999993189,1,76,test2,3,0.8129621999996743,-70.0
13,mstp,m,22,r,2,(-121.76378772032348, 121.76378772032349),24,25,4,yes,x,5,x,0.4359185000002981,1,77,test2,3,0.4360484999997425,-20.0
13,mstp,m,22,r,2,(121.76378772032349, 121.76378772032349),22,5,2,yes,x,5,x,0.7120242999999391,1,78,test2,3,0.7125490999997055,-40.0
13,mstp,m,22,r,2,(-3.163262682197613e-14, -172.20000000000002),27,-25,14,yes,x,5,x,0.4773015000000669,1,79,test2,3,0.4775422000002436,-70.0
13,mstp,m,22,r,2,(-121.76378772032348, 121.76378772032349),24,-5,12,yes,x,5,x,0.7244310000005498,1,80,test2,3,0.7245326000002024,-50.0
13,mstp,m,22,r,2,(-121.76378772032348, 121.76378772032349),24,7,3,yes,x,5,x,0.43848960000013903,1,81,test2,3,0.4385894000006374,-38.0
13,mstp,m,22,r,2,(1.0544208940658713e-14, 172.20000000000002),23,5,2,yes,x,5,x,0.6498344000001453,1,82,test2,3,0.6501738999995723,-40.0
13,mstp,m,22,r,2,(121.76378772032346, -121.76378772032352),28,-3,11,yes,x,5,x,1.0205920999997034,1,83,test2,3,1.0209264000004623,-48.0
13,mstp,m,22,r,2,(121.76378772032349, 121.76378772032349),22,25,4,no,m,6,m,1.1528315999994447,1,84,test2,3,1.1531408999999258,-48.0
13,mstp,m,22,r,2,(121.76378772032346, -121.76378772032352),28,3,1,yes,x,5,x,0.7893429000005199,1,85,test2,3,0.7896870000004128,-42.0
13,mstp,m,22,r,2,(-121.76378772032352, -121.76378772032348),26,3,1,yes,x,5,m,0.8138030000000072,0,86,test2,3,0.8142485999997007,-42.0
13,mstp,m,22,r,2,(-121.76378772032348, 121.76378772032349),24,5,2,no,m,6,m,0.9898779999994076,1,87,test2,3,0.990569399999913,-42.0
13,mstp,m,22,r,2,(1.0544208940658713e-14, 172.20000000000002),23,-7,13,yes,x,5,x,0.5094957999999679,1,88,test2,3,0.5097170999997616,-52.0
13,mstp,m,22,r,2,(-121.76378772032352, -121.76378772032348),26,-5,12,yes,x,5,x,0.49240379999992,1,89,test2,3,0.49255840000023454,-50.0
13,mstp,m,22,r,2,(-172.20000000000002, 2.1088417881317425e-14),25,25,4,no,m,6,m,0.939445799999703,1,90,test2,3,0.9396792999996251,-50.0
13,mstp,m,22,r,2,(121.76378772032346, -121.76378772032352),28,-7,13,no,m,6,m,1.1293118000003233,1,91,test2,3,1.129513699999734,-50.0
13,mstp,m,22,r,2,(121.76378772032349, 121.76378772032349),22,5,2,no,m,6,m,1.1407443999996758,1,92,test2,3,1.1410439999999653,-50.0
13,mstp,m,22,r,2,(-121.76378772032352, -121.76378772032348),26,5,2,yes,x,5,x,0.476418599999306,1,93,test2,3,0.47673930000019027,-40.0
13,mstp,m,22,r,2,(-121.76378772032352, -121.76378772032348),26,-7,13,yes,x,5,x,0.5370167999999467,1,94,test2,3,0.5373367000001963,-52.0
13,mstp,m,22,r,2,(-121.76378772032348, 121.76378772032349),24,-7,13,yes,x,5,x,0.5361548999999286,1,95,test2,3,0.5362729000007675,-52.0
13,mstp,m,22,r,2,(-121.76378772032352, -121.76378772032348),26,-7,13,yes,x,5,x,0.4776649000004909,1,96,test2,3,0.4777783999998064,-52.0
13,mstp,m,22,r,2,(121.76378772032346, -121.76378772032352),28,7,3,yes,x,5,x,0.7364608999996562,1,1,test1,4,0.7365970000000743,-38.0
13,mstp,m,22,r,2,(172.20000000000002, 0.0),21,3,1,yes,x,5,x,1.5705248999993273,1,2,test1,4,1.5709970999996585,-42.0
13,mstp,m,22,r,2,(-121.76378772032348, 121.76378772032349),24,5,2,yes,x,5,x,0.9435093000001871,1,3,test1,4,0.9437932000000728,-40.0
13,mstp,m,22,r,2,(-121.76378772032348, 121.76378772032349),24,-5,12,yes,x,5,x,0.6647261999996772,1,4,test1,4,0.6649692999999388,-50.0
13,mstp,m,22,r,2,(-172.20000000000002, 2.1088417881317425e-14),25,-25,14,yes,x,5,x,0.4690477000003739,1,5,test1,4,0.4693270999996457,-70.0
13,mstp,m,22,r,2,(121.76378772032346, -121.76378772032352),28,-5,12,yes,x,5,x,0.6631663999996817,1,6,test1,4,0.6632957000001625,-50.0
13,mstp,m,22,r,2,(121.76378772032349, 121.76378772032349),22,7,3,no,m,6,x,1.1523551000000225,0,7,test1,4,1.1525494000006802,-50.0
13,mstp,m,22,r,2,(121.76378772032346, -121.76378772032352),28,5,2,yes,x,5,m,0.6298922000005405,0,8,test1,4,0.6301370000001043,-40.0
13,mstp,m,22,r,2,(121.76378772032349, 121.76378772032349),22,3,1,no,m,6,m,0.9664533999994092,1,9,test1,4,0.966624600000614,-40.0
13,mstp,m,22,r,2,(172.20000000000002, 0.0),21,-3,11,yes,x,5,x,1.256674799999928,1,10,test1,4,1.2568013000000064,-48.0
13,mstp,m,22,r,2,(-172.20000000000002, 2.1088417881317425e-14),25,3,1,yes,x,5,x,1.1371368000000075,1,11,test1,4,1.1372541999999157,-42.0
13,mstp,m,22,r,2,(1.0544208940658713e-14, 172.20000000000002),23,3,1,no,m,6,m,1.1003630000004705,1,12,test1,4,1.1006133000000773,-42.0
13,mstp,m,22,r,2,(1.0544208940658713e-14, 172.20000000000002),23,25,4,no,m,6,m,1.1524295999997776,1,13,test1,4,1.1525887999996485,-42.0
13,mstp,m,22,r,2,(1.0544208940658713e-14, 172.20000000000002),23,-5,12,yes,x,5,x,0.5250643999997919,1,14,test1,4,0.5254037000004246,-50.0
13,mstp,m,22,r,2,(-172.20000000000002, 2.1088417881317425e-14),25,5,2,yes,x,5,x,0.5426655000001119,1,15,test1,4,0.5428202000002784,-40.0
13,mstp,m,22,r,2,(-121.76378772032352, -121.76378772032348),26,-5,12,yes,x,5,x,0.5749313999995138,1,16,test1,4,0.5750460999997813,-50.0
13,mstp,m,22,r,2,(1.0544208940658713e-14, 172.20000000000002),23,-25,14,no,m,6,m,1.0109425999999075,1,17,test1,4,1.0110554000002594,-50.0
13,mstp,m,22,r,2,(-3.163262682197613e-14, -172.20000000000002),27,3,1,yes,x,5,x,1.058421400000043,1,18,test1,4,1.0585178999999698,-42.0
13,mstp,m,22,r,2,(-3.163262682197613e-14, -172.20000000000002),27,-7,13,no,m,6,m,1.024899699999878,1,19,test1,4,1.0250573999992412,-42.0
13,mstp,m,22,r,2,(-121.76378772032352, -121.76378772032348),26,7,3,no,m,6,m,1.066802600000301,1,20,test1,4,1.0670884999999544,-42.0
13,mstp,m,22,r,2,(121.76378772032349, 121.76378772032349),22,-3,11,yes,x,5,m,0.8446835000004285,0,21,test1,4,0.8447779999996783,-48.0
13,mstp,m,22,r,2,(1.0544208940658713e-14, 172.20000000000002),23,-25,14,yes,x,5,x,0.5275312000003396,1,22,test1,4,0.5278478000000177,-70.0
13,mstp,m,22,r,2,(-172.20000000000002, 2.1088417881317425e-14),25,-7,13,yes,x,5,x,0.5358765999999378,1,23,test1,4,0.5360641000006581,-52.0
13,mstp,m,22,r,2,(1.0544208940658713e-14, 172.20000000000002),23,-5,12,no,m,6,m,1.306228800000099,1,24,test1,4,1.306462599999577,-52.0
13,mstp,m,22,r,2,(172.20000000000002, 0.0),21,5,2,yes,x,5,x,0.8614972999994279,1,25,test1,4,0.8618389000002935,-40.0
13,mstp,m,22,r,2,(121.76378772032349, 121.76378772032349),22,-25,14,yes,x,5,x,0.45730099999946106,1,26,test1,4,0.45742059999975027,-70.0
13,mstp,m,22,r,2,(-3.163262682197613e-14, -172.20000000000002),27,7,3,yes,x,5,x,0.49916489999941405,1,27,test1,4,0.49926179999965825,-38.0
13,mstp,m,22,r,2,(-3.163262682197613e-14, -172.20000000000002),27,-25,14,no,m,6,m,1.0130237000003035,1,28,test1,4,1.0131404000003386,-38.0
13,mstp,m,22,r,2,(121.76378772032349, 121.76378772032349),22,-7,13,yes,x,5,x,0.5217259000000922,1,29,test1,4,0.5218677000002572,-52.0
13,mstp,m,22,r,2,(-172.20000000000002, 2.1088417881317425e-14),25,3,1,yes,x,5,m,0.9591575000004013,0,30,test1,4,0.9592715999997381,-42.0
13,mstp,m,22,r,2,(-3.163262682197613e-14, -172.20000000000002),27,5,2,yes,x,5,x,0.4940311999998812,1,31,test1,4,0.49450359999991633,-40.0
13,mstp,m,22,r,2,(121.76378772032346, -121.76378772032352),28,7,3,yes,x,5,x,0.5800771999993231,1,32,test1,4,0.5805076000006011,-38.0
13,mstp,m,22,r,2,(-121.76378772032348, 121.76378772032349),24,7,3,no,m,6,m,1.1289325999996436,1,33,test1,4,1.1290557999991506,-38.0
13,mstp,m,22,r,2,(-121.76378772032348, 121.76378772032349),24,3,1,no,m,6,m,1.0744015999998737,1,34,test1,4,1.0744987999996738,-38.0
13,mstp,m,22,r,2,(-3.163262682197613e-14, -172.20000000000002),27,-5,12,no,m,6,m,1.1393143999994209,1,35,test1,4,1.1396187999998801,-38.0
13,mstp,m,22,r,2,(1.0544208940658713e-14, 172.20000000000002),23,3,1,yes,x,5,m,1.2896298999994542,0,36,test1,4,1.2897609000001466,-42.0
13,mstp,m,22,r,2,(121.76378772032346, -121.76378772032352),28,-5,12,no,m,6,m,1.1319174999998722,1,37,test1,4,1.13241139999991,-42.0
13,mstp,m,22,r,2,(172.20000000000002, 0.0),21,-3,11,no,m,6,m,0.9814014000003226,1,38,test1,4,0.9817136000001483,-42.0
13,mstp,m,22,r,2,(-121.76378772032352, -121.76378772032348),26,-25,14,yes,x,5,x,0.527034900000217,1,39,test1,4,0.5272444000001997,-70.0
13,mstp,m,22,r,2,(-3.163262682197613e-14, -172.20000000000002),27,25,4,yes,x,5,x,0.5464944000004834,1,40,test1,4,0.546755999999732,-20.0
13,mstp,m,22,r,2,(-121.76378772032348, 121.76378772032349),24,25,4,yes,x,5,x,0.4962484999996377,1,41,test1,4,0.4969006999999692,-20.0
13,mstp,m,22,r,2,(172.20000000000002, 0.0),21,25,4,yes,x,5,x,0.40384850000009465,1,42,test1,4,0.4040187999999034,-20.0
13,mstp,m,22,r,2,(-121.76378772032352, -121.76378772032348),26,-3,11,yes,x,5,x,0.8719642000005479,1,43,test1,4,0.8722448999997141,-48.0
13,mstp,m,22,r,2,(-172.20000000000002, 2.1088417881317425e-14),25,7,3,no,m,6,m,1.1383887000001778,1,44,test1,4,1.1384944999999789,-48.0
13,mstp,m,22,r,2,(172.20000000000002, 0.0),21,-25,14,yes,x,5,x,0.4862421000007089,1,45,test1,4,0.4863671000002796,-70.0
13,mstp,m,22,r,2,(-3.163262682197613e-14, -172.20000000000002),27,-7,13,yes,x,5,x,0.562132300000485,1,46,test1,4,0.5627321000001757,-52.0
13,mstp,m,22,r,2,(172.20000000000002, 0.0),21,7,3,no,m,6,m,1.0785407000003033,1,47,test1,4,1.0786404000000402,-52.0
13,mstp,m,22,r,2,(1.0544208940658713e-14, 172.20000000000002),23,-25,14,yes,x,5,x,0.4443279999995866,1,48,test1,4,0.4444917999999234,-70.0
13,mstp,m,22,r,2,(-121.76378772032352, -121.76378772032348),26,7,3,yes,x,5,x,0.6783258999994359,1,49,test1,4,0.6787253000002238,-38.0
13,mstp,m,22,r,2,(-121.76378772032348, 121.76378772032349),24,-3,11,yes,x,5,m,0.7180530000005092,0,50,test1,4,0.7185189000001628,-48.0
13,mstp,m,22,r,2,(-121.76378772032348, 121.76378772032349),24,3,1,yes,x,5,x,1.0293768000001364,1,51,test1,4,1.029746399999567,-42.0
13,mstp,m,22,r,2,(121.76378772032349, 121.76378772032349),22,-5,12,yes,x,5,x,0.8658208999995622,1,52,test1,4,0.8659223000004204,-50.0
13,mstp,m,22,r,2,(-172.20000000000002, 2.1088417881317425e-14),25,-5,12,yes,x,5,x,0.6329444000002695,1,53,test1,4,0.6336845999994694,-50.0
13,mstp,m,22,r,2,(1.0544208940658713e-14, 172.20000000000002),23,-5,12,yes,x,5,x,0.7676824999998644,1,54,test1,4,0.7678793999994014,-50.0
13,mstp,m,22,r,2,(172.20000000000002, 0.0),21,25,4,yes,x,5,x,0.49056000000018685,1,55,test1,4,0.4908046000000468,-20.0
13,mstp,m,22,r,2,(-172.20000000000002, 2.1088417881317425e-14),25,7,3,yes,x,5,x,0.5393798999994033,1,56,test1,4,0.539480000000367,-38.0
13,mstp,m,22,r,2,(121.76378772032349, 121.76378772032349),22,5,2,yes,x,5,x,0.6913804999994682,1,57,test1,4,0.691765900000064,-40.0
13,mstp,m,22,r,2,(-3.163262682197613e-14, -172.20000000000002),27,7,3,no,m,6,m,0.650261199999477,1,58,test1,4,0.6505544000001464,-40.0
13,mstp,m,22,r,2,(172.20000000000002, 0.0),21,-5,12,no,m,6,m,0.7235594999992827,1,59,test1,4,0.7236914000004617,-40.0
13,mstp,m,22,r,2,(121.76378772032349, 121.76378772032349),22,-5,12,yes,x,5,x,0.5893281999997271,1,60,test1,4,0.5894619999999122,-50.0
13,mstp,m,22,r,2,(-121.76378772032348, 121.76378772032349),24,-25,14,yes,x,5,x,0.46521389999998064,1,61,test1,4,0.46550920000026963,-70.0
13,mstp,m,22,r,2,(-121.76378772032352, -121.76378772032348),26,3,1,yes,x,5,m,0.9746413000002576,0,62,test1,4,0.9748429000001124,-42.0
13,mstp,m,22,r,2,(-172.20000000000002, 2.1088417881317425e-14),25,-3,11,yes,x,5,m,1.0416242999999668,0,63,test1,4,1.0420586999998704,-48.0
13,mstp,m,22,r,2,(-3.163262682197613e-14, -172.20000000000002),27,3,1,yes,x,5,x,1.2051533000003474,1,64,test1,4,1.2053163000000495,-42.0
13,mstp,m,22,r,2,(1.0544208940658713e-14, 172.20000000000002),23,25,4,yes,x,5,x,0.5585003999995024,1,65,test1,4,0.5591114999997444,-20.0
13,mstp,m,22,r,2,(121.76378772032346, -121.76378772032352),28,-7,13,yes,x,5,x,0.6508039000000281,1,66,test1,4,0.6511104999999588,-52.0
13,mstp,m,22,r,2,(-3.163262682197613e-14, -172.20000000000002),27,5,2,yes,x,5,x,0.8297677999998996,1,67,test1,4,0.8299721000003046,-40.0
13,mstp,m,22,r,2,(-3.163262682197613e-14, -172.20000000000002),27,5,2,no,m,6,m,1.3300826000004236,1,68,test1,4,1.330241699999533,-40.0
13,mstp,m,22,r,2,(-121.76378772032348, 121.76378772032349),24,-7,13,yes,x,5,x,0.5765781000000061,1,69,test1,4,0.5773384000003716,-52.0
13,mstp,m,22,r,2,(-121.76378772032352, -121.76378772032348),26,5,2,yes,x,5,x,0.6062480999999025,1,70,test1,4,0.6064086999995197,-40.0
13,mstp,m,22,r,2,(1.0544208940658713e-14, 172.20000000000002),23,3,1,yes,x,5,x,1.8085729999993418,1,71,test1,4,1.8087829000005513,-42.0
13,mstp,m,22,r,2,(121.76378772032346, -121.76378772032352),28,25,4,yes,x,5,x,0.5677620000005845,1,72,test1,4,0.5680338000001939,-20.0
13,mstp,m,22,r,2,(-172.20000000000002, 2.1088417881317425e-14),25,25,4,yes,x,5,x,0.4874736000001576,1,73,test1,4,0.4876083999997718,-20.0
13,mstp,m,22,r,2,(121.76378772032346, -121.76378772032352),28,-25,14,yes,x,5,x,0.5305572999996002,1,74,test1,4,0.5306501000004573,-70.0
13,mstp,m,22,r,2,(121.76378772032349, 121.76378772032349),22,-25,14,no,m,6,m,1.1757260000003953,1,75,test1,4,1.1758280999993076,-70.0
13,mstp,m,22,r,2,(121.76378772032346, -121.76378772032352),28,-7,13,yes,x,5,x,0.5151180000002569,1,76,test1,4,0.5153229999996256,-52.0
13,mstp,m,22,r,2,(-121.76378772032348, 121.76378772032349),24,25,4,no,m,6,m,1.1853716999994504,1,77,test1,4,1.1862522999999783,-52.0
13,mstp,m,22,r,2,(1.0544208940658713e-14, 172.20000000000002),23,5,2,yes,x,5,x,1.2165703999999096,1,78,test1,4,1.2167864999992162,-40.0
13,mstp,m,22,r,2,(-121.76378772032352, -121.76378772032348),26,3,1,no,m,6,m,0.867631000000074,1,79,test1,4,0.8677566999995179,-40.0
13,mstp,m,22,r,2,(121.76378772032346, -121.76378772032352),28,3,1,yes,x,5,x,0.9001754000000801,1,80,test1,4,0.9003391000005649,-42.0
13,mstp,m,22,r,2,(-121.76378772032352, -121.76378772032348),26,25,4,yes,x,5,x,0.47364899999956833,1,81,test1,4,0.4741899000000558,-20.0
13,mstp,m,22,r,2,(172.20000000000002, 0.0),21,7,3,yes,x,5,x,0.7088288000004468,1,82,test1,4,0.7091805000000022,-38.0
13,mstp,m,22,r,2,(172.20000000000002, 0.0),21,5,2,yes,x,5,x,0.863048200000776,1,83,test1,4,0.8633725999998205,-40.0
13,mstp,m,22,r,2,(-172.20000000000002, 2.1088417881317425e-14),25,5,2,yes,x,5,x,0.7536679999993794,1,84,test1,4,0.7539345999994111,-40.0
13,mstp,m,22,r,2,(-121.76378772032352, -121.76378772032348),26,7,3,yes,x,5,x,0.43708109999988665,1,85,test1,4,0.4372395000000324,-38.0
13,mstp,m,22,r,2,(-121.76378772032348, 121.76378772032349),24,-7,13,no,m,6,m,1.1739804000008007,1,86,test1,4,1.1741020999998,-38.0
13,mstp,m,22,r,2,(-121.76378772032352, -121.76378772032348),26,-3,11,yes,x,5,x,1.202946399999746,1,87,test1,4,1.2030745000001843,-48.0
13,mstp,m,22,r,2,(-121.76378772032348, 121.76378772032349),24,-3,11,no,m,6,m,0.9405016000000614,1,88,test1,4,0.9407828000003065,-48.0
13,mstp,m,22,r,2,(-3.163262682197613e-14, -172.20000000000002),27,7,3,yes,x,5,x,0.5580591999996614,1,89,test1,4,0.5581586999996944,-38.0
13,mstp,m,22,r,2,(1.0544208940658713e-14, 172.20000000000002),23,-7,13,no,m,6,m,0.8835834000001341,1,90,test1,4,0.8837682000003042,-38.0
13,mstp,m,22,r,2,(-172.20000000000002, 2.1088417881317425e-14),25,7,3,yes,x,5,x,0.4824295999997048,1,91,test1,4,0.48254719999931694,-38.0
13,mstp,m,22,r,2,(1.0544208940658713e-14, 172.20000000000002),23,-7,13,yes,x,5,x,0.5121673999992709,1,92,test1,4,0.5122804000002361,-52.0
13,mstp,m,22,r,2,(-172.20000000000002, 2.1088417881317425e-14),25,-25,14,yes,x,5,x,0.39266330000009475,1,93,test1,4,0.3927631000005931,-70.0
13,mstp,m,22,r,2,(172.20000000000002, 0.0),21,7,3,yes,x,5,x,0.533997399999862,1,94,test1,4,0.534266700000444,-38.0
13,mstp,m,22,r,2,(-121.76378772032348, 121.76378772032349),24,-5,12,no,m,6,m,1.2538244999996095,1,95,test1,4,1.254010499999822,-38.0
13,mstp,m,22,r,2,(121.76378772032349, 121.76378772032349),22,-3,11,yes,x,5,x,0.8783009999997375,1,96,test1,4,0.8786431999997149,-48.0
13,mstp,m,22,r,2,(1.0544208940658713e-14, 172.20000000000002),23,-3,11,no,m,6,m,1.0413324000001012,1,1,test2,4,1.041813199999524,-48.0
13,mstp,m,22,r,2,(1.0544208940658713e-14, 172.20000000000002),23,-3,11,yes,x,5,x,0.9334312999999383,1,2,test2,4,0.9335328999995909,-48.0
13,mstp,m,22,r,2,(-3.163262682197613e-14, -172.20000000000002),27,3,1,no,m,6,m,1.151235500000439,1,3,test2,4,1.1513613999995869,-48.0
13,mstp,m,22,r,2,(-3.163262682197613e-14, -172.20000000000002),27,-3,11,no,m,6,m,1.3757209000004877,1,4,test2,4,1.3759562000004735,-48.0
13,mstp,m,22,r,2,(172.20000000000002, 0.0),21,-25,14,no,m,6,m,1.1557226000004448,1,5,test2,4,1.1558375999993586,-48.0
13,mstp,m,22,r,2,(-121.76378772032348, 121.76378772032349),24,7,3,yes,x,5,x,0.5938727000002473,1,6,test2,4,0.5939914999999019,-38.0
13,mstp,m,22,r,2,(172.20000000000002, 0.0),21,-7,13,yes,x,5,x,0.8624613000001773,1,7,test2,4,0.8627600999998322,-52.0
13,mstp,m,22,r,2,(-3.163262682197613e-14, -172.20000000000002),27,-3,11,yes,x,5,x,1.3080181999994238,1,8,test2,4,1.3082420999999158,-48.0
13,mstp,m,22,r,2,(-121.76378772032348, 121.76378772032349),24,-3,11,yes,x,5,x,0.9306844000002457,1,9,test2,4,0.9308596999999281,-48.0
13,mstp,m,22,r,2,(121.76378772032349, 121.76378772032349),22,-5,12,no,m,6,m,0.8475105999996231,1,10,test2,4,0.8477447000004759,-48.0
13,mstp,m,22,r,2,(-121.76378772032352, -121.76378772032348),26,25,4,no,m,6,m,0.8236369999995077,1,11,test2,4,0.8241585000005216,-48.0
13,mstp,m,22,r,2,(172.20000000000002, 0.0),21,-5,12,yes,x,5,x,0.5887792000003174,1,12,test2,4,0.5889336000000185,-50.0
13,mstp,m,22,r,2,(-172.20000000000002, 2.1088417881317425e-14),25,-7,13,yes,x,5,x,0.4941721000004691,1,13,test2,4,0.4944618999998056,-52.0
13,mstp,m,22,r,2,(-172.20000000000002, 2.1088417881317425e-14),25,-3,11,yes,x,5,x,0.5647136999996292,1,14,test2,4,0.5648509000002377,-48.0
13,mstp,m,22,r,2,(121.76378772032346, -121.76378772032352),28,25,4,no,m,6,m,0.9664304000007178,1,15,test2,4,0.9666884000007485,-48.0
13,mstp,m,22,r,2,(-121.76378772032352, -121.76378772032348),26,-7,13,no,m,6,m,0.8215230000005249,1,16,test2,4,0.8218850000002931,-48.0
13,mstp,m,22,r,2,(-172.20000000000002, 2.1088417881317425e-14),25,-5,12,yes,x,5,x,0.5132030000004306,1,17,test2,4,0.513302699999258,-50.0
13,mstp,m,22,r,2,(121.76378772032349, 121.76378772032349),22,-7,13,no,m,6,m,0.8845064999995884,1,18,test2,4,0.8847632999995767,-50.0
13,mstp,m,22,r,2,(121.76378772032346, -121.76378772032352),28,-5,12,yes,x,5,x,0.6403002999995806,1,19,test2,4,0.6404578000001493,-50.0
13,mstp,m,22,r,2,(121.76378772032346, -121.76378772032352),28,-3,11,yes,x,5,x,0.9465826000005109,1,20,test2,4,0.946680699999888,-48.0
13,mstp,m,22,r,2,(-3.163262682197613e-14, -172.20000000000002),27,25,4,yes,x,5,x,0.5389545999996699,1,21,test2,4,0.5393081000001985,-20.0
13,mstp,m,22,r,2,(121.76378772032349, 121.76378772032349),22,3,1,yes,x,5,x,1.03798420000021,1,22,test2,4,1.038379800000257,-42.0
13,mstp,m,22,r,2,(172.20000000000002, 0.0),21,-5,12,yes,x,5,x,0.4726671999997052,1,23,test2,4,0.47288509999998496,-50.0
13,mstp,m,22,r,2,(-121.76378772032348, 121.76378772032349),24,5,2,yes,x,5,x,0.5387739999996484,1,24,test2,4,0.5390078000000358,-40.0
13,mstp,m,22,r,2,(-3.163262682197613e-14, -172.20000000000002),27,-7,13,yes,x,5,x,0.503501299999698,1,25,test2,4,0.5039411999996446,-52.0
13,mstp,m,22,r,2,(-172.20000000000002, 2.1088417881317425e-14),25,-25,14,no,m,6,m,0.9307945999998992,1,26,test2,4,0.9308985999996366,-52.0
13,mstp,m,22,r,2,(121.76378772032349, 121.76378772032349),22,7,3,yes,x,5,x,0.5324344000000565,1,27,test2,4,0.53253180000047,-38.0
13,mstp,m,22,r,2,(121.76378772032349, 121.76378772032349),22,3,1,yes,x,5,x,0.8348461000005045,1,28,test2,4,0.8349736000000121,-42.0
13,mstp,m,22,r,2,(121.76378772032346, -121.76378772032352),28,5,2,no,m,6,m,1.1521561999998085,1,29,test2,4,1.1522639000004347,-42.0
13,mstp,m,22,r,2,(-172.20000000000002, 2.1088417881317425e-14),25,-3,11,no,m,6,m,0.8759075999996639,1,30,test2,4,0.8762149000003774,-42.0
13,mstp,m,22,r,2,(-121.76378772032352, -121.76378772032348),26,25,4,yes,x,5,x,0.6376708999996481,1,31,test2,4,0.6378276000004917,-20.0
13,mstp,m,22,r,2,(1.0544208940658713e-14, 172.20000000000002),23,7,3,no,m,6,m,0.8801942000000054,1,32,test2,4,0.8804182000003493,-20.0
13,mstp,m,22,r,2,(121.76378772032349, 121.76378772032349),22,-7,13,yes,x,5,x,0.6561539000003904,1,33,test2,4,0.656256499999472,-52.0
13,mstp,m,22,r,2,(172.20000000000002, 0.0),21,5,2,no,m,6,m,0.9442246999997224,1,34,test2,4,0.9444720999999845,-52.0
13,mstp,m,22,r,2,(1.0544208940658713e-14, 172.20000000000002),23,7,3,yes,x,5,x,0.5521226999999271,1,35,test2,4,0.5522237999994104,-38.0
13,mstp,m,22,r,2,(172.20000000000002, 0.0),21,25,4,no,m,6,m,1.1423818999992363,1,36,test2,4,1.1427077999996982,-38.0
13,mstp,m,22,r,2,(172.20000000000002, 0.0),21,-3,11,yes,x,5,x,0.5518025999999736,1,37,test2,4,0.5520845999999437,-48.0
13,mstp,m,22,r,2,(-172.20000000000002, 2.1088417881317425e-14),25,25,4,yes,x,5,x,0.454774499999985,1,38,test2,4,0.45543409999936557,-20.0
13,mstp,m,22,r,2,(-121.76378772032352, -121.76378772032348),26,5,2,no,m,6,m,0.8088067000007868,1,39,test2,4,0.8089178999998694,-20.0
13,mstp,m,22,r,2,(1.0544208940658713e-14, 172.20000000000002),23,25,4,yes,x,5,x,0.38839030000053754,1,40,test2,4,0.3887979000000996,-20.0
13,mstp,m,22,r,2,(-3.163262682197613e-14, -172.20000000000002),27,-25,14,yes,x,5,x,0.36815630000000965,1,41,test2,4,0.36827589999938937,-70.0
13,mstp,m,22,r,2,(-121.76378772032352, -121.76378772032348),26,-25,14,yes,x,5,x,0.36097310000059224,1,42,test2,4,0.3610745999994833,-70.0
13,mstp,m,22,r,2,(172.20000000000002, 0.0),21,3,1,no,m,6,m,0.7615522999994937,1,43,test2,4,0.7617073000001255,-70.0
13,mstp,m,22,r,2,(-172.20000000000002, 2.1088417881317425e-14),25,5,2,no,m,6,m,0.7322806000001947,1,44,test2,4,0.7324149000005491,-70.0
13,mstp,m,22,r,2,(172.20000000000002, 0.0),21,-7,13,no,m,6,m,0.6663421000002927,1,45,test2,4,0.6664361999992252,-70.0
13,mstp,m,22,r,2,(121.76378772032349, 121.76378772032349),22,25,4,yes,x,5,x,0.42031279999991966,1,46,test2,4,0.42053410000062286,-20.0
13,mstp,m,22,r,2,(121.76378772032349, 121.76378772032349),22,25,4,yes,x,5,x,0.44979090000015276,1,47,test2,4,0.4499900000000707,-20.0
13,mstp,m,22,r,2,(121.76378772032346, -121.76378772032352),28,5,2,yes,x,5,x,0.5464051999997537,1,48,test2,4,0.5466384000001199,-40.0
13,mstp,m,22,r,2,(-3.163262682197613e-14, -172.20000000000002),27,25,4,no,m,6,m,1.2097430000003442,1,49,test2,4,1.2098839999998745,-40.0
13,mstp,m,22,r,2,(-121.76378772032352, -121.76378772032348),26,-5,12,no,m,6,m,0.8696654000004855,1,50,test2,4,0.8703400999993391,-40.0
13,mstp,m,22,r,2,(1.0544208940658713e-14, 172.20000000000002),23,5,2,no,m,6,m,1.0496382999999696,1,51,test2,4,1.0499236000005112,-40.0
13,mstp,m,22,r,2,(121.76378772032346, -121.76378772032352),28,3,1,no,m,6,m,0.9010140999998839,1,52,test2,4,0.9011938000003283,-40.0
13,mstp,m,22,r,2,(121.76378772032349, 121.76378772032349),22,7,3,yes,x,5,x,0.49815680000028806,1,53,test2,4,0.498613399999158,-38.0
13,mstp,m,22,r,2,(-172.20000000000002, 2.1088417881317425e-14),25,-5,12,no,m,6,m,0.7039581000008184,1,54,test2,4,0.7041949000004024,-38.0
13,mstp,m,22,r,2,(172.20000000000002, 0.0),21,3,1,yes,x,5,x,0.593545699999595,1,55,test2,4,0.5936474999998609,-42.0
13,mstp,m,22,r,2,(172.20000000000002, 0.0),21,-25,14,yes,x,5,x,0.4336452999996254,1,56,test2,4,0.43376030000035826,-70.0
13,mstp,m,22,r,2,(-121.76378772032348, 121.76378772032349),24,-25,14,no,m,6,m,0.6037475999992239,1,57,test2,4,0.6043840000002092,-70.0
13,mstp,m,22,r,2,(-121.76378772032352, -121.76378772032348),26,-3,11,no,m,6,m,1.0964530000001105,1,58,test2,4,1.0965879999994286,-70.0
13,mstp,m,22,r,2,(1.0544208940658713e-14, 172.20000000000002),23,7,3,yes,x,5,x,0.5838768000003256,1,59,test2,4,0.5840788999994402,-38.0
13,mstp,m,22,r,2,(-3.163262682197613e-14, -172.20000000000002),27,-3,11,yes,x,5,x,0.62590100000034,1,60,test2,4,0.6260042000003523,-48.0
13,mstp,m,22,r,2,(-172.20000000000002, 2.1088417881317425e-14),25,3,1,no,m,6,m,0.8303910999993604,1,61,test2,4,0.8305562999994436,-48.0
13,mstp,m,22,r,2,(-172.20000000000002, 2.1088417881317425e-14),25,-7,13,no,m,6,m,0.718971700000111,1,62,test2,4,0.7193145999999615,-48.0
13,mstp,m,22,r,2,(-3.163262682197613e-14, -172.20000000000002),27,-5,12,yes,x,5,x,0.5590144999996483,1,63,test2,4,0.5592186999992919,-50.0
13,mstp,m,22,r,2,(172.20000000000002, 0.0),21,-7,13,yes,x,5,x,0.4502074000001812,1,64,test2,4,0.45055299999967247,-52.0
13,mstp,m,22,r,2,(121.76378772032349, 121.76378772032349),22,-25,14,yes,x,5,x,0.4098182999996425,1,65,test2,4,0.4099831000003178,-70.0
13,mstp,m,22,r,2,(121.76378772032346, -121.76378772032352),28,7,3,no,m,6,m,0.6392978000003495,1,66,test2,4,0.6394108000004053,-70.0
13,mstp,m,22,r,2,(-121.76378772032348, 121.76378772032349),24,3,1,yes,x,5,x,0.36689250000017637,1,67,test2,4,0.36701670000002196,-42.0
13,mstp,m,22,r,2,(121.76378772032349, 121.76378772032349),22,-3,11,no,m,6,m,0.8818914000003133,1,68,test2,4,0.8820169000000533,-42.0
13,mstp,m,22,r,2,(121.76378772032346, -121.76378772032352),28,-25,14,yes,x,5,x,0.44714159999966796,1,69,test2,4,0.4473662999998851,-70.0
13,mstp,m,22,r,2,(121.76378772032346, -121.76378772032352),28,25,4,yes,x,5,x,0.5644293999994261,1,70,test2,4,0.5647213000002012,-20.0
13,mstp,m,22,r,2,(-3.163262682197613e-14, -172.20000000000002),27,-5,12,yes,x,5,x,0.7514079000002312,1,71,test2,4,0.751521899999716,-50.0
13,mstp,m,22,r,2,(121.76378772032346, -121.76378772032352),28,-3,11,no,m,6,m,0.9171680999997989,1,72,test2,4,0.9174982000004093,-50.0
