subj_id,subj_name,subj_gender ,subj_age,subj_handedness,subj_runNum,tar_l_x,tar_l_y,loc_code,tar_ori,tar_code,tar_pre ,cor_response,pre_code,subj_response,RT,correct,trial_num,type,bloc_num,dur, real_tar
14,chj,m,20,r,1,(1.0544208940658713e-14, 172.20000000000002),23,-5,12,yes,x,5,m,1.5761255999968853,0,1,prac,0,1.5762946000031661,-50.0
14,chj,m,20,r,1,(121.76378772032346, -121.76378772032352),28,5,2,yes,x,5,x,1.952947200014023,1,2,prac,0,1.9530489000026137,-40.0
14,chj,m,20,r,1,(-121.76378772032352, -121.76378772032348),26,-7,13,yes,x,5,x,0.8484419000014896,1,3,prac,0,0.8485650000075111,-52.0
14,chj,m,20,r,1,(121.76378772032349, 121.76378772032349),22,5,2,yes,x,5,x,0.7103382000059355,1,4,prac,0,0.7104376999923261,-40.0
14,chj,m,20,r,1,(-3.163262682197613e-14, -172.20000000000002),27,-5,12,yes,x,5,x,0.686674700002186,1,5,prac,0,0.6867859000049066,-50.0
14,chj,m,20,r,1,(1.0544208940658713e-14, 172.20000000000002),23,25,4,yes,x,5,x,0.674446999997599,1,6,prac,0,0.6745776000025216,-20.0
14,chj,m,20,r,1,(121.76378772032349, 121.76378772032349),22,7,3,yes,x,5,x,0.7190751999878557,1,7,prac,0,0.7197258000087459,-38.0
14,chj,m,20,r,1,(1.0544208940658713e-14, 172.20000000000002),23,-5,12,no,m,6,m,0.6774586999963503,1,8,prac,0,0.677859500006889,-38.0
14,chj,m,20,r,1,(121.76378772032349, 121.76378772032349),22,-7,13,no,m,6,m,0.7179479999904288,1,9,prac,0,0.7181497999990825,-38.0
14,chj,m,20,r,1,(-172.20000000000002, 2.1088417881317425e-14),25,5,2,yes,x,5,x,1.090685699993628,1,10,prac,0,1.0907857999991393,-40.0
14,chj,m,20,r,1,(1.0544208940658713e-14, 172.20000000000002),23,5,2,yes,x,5,x,0.6402378999919165,1,11,prac,0,0.6404770999943139,-40.0
14,chj,m,20,r,1,(121.76378772032346, -121.76378772032352),28,3,1,yes,x,5,m,0.7605114000034519,0,12,prac,0,0.7606822999950964,-42.0
14,chj,m,20,r,1,(-121.76378772032348, 121.76378772032349),24,-25,14,yes,x,5,x,0.7785164999950211,1,13,prac,0,0.7786514000035822,-70.0
14,chj,m,20,r,1,(-172.20000000000002, 2.1088417881317425e-14),25,3,1,yes,x,5,m,0.94510270000319,0,14,prac,0,0.9454753999889363,-42.0
14,chj,m,20,r,1,(1.0544208940658713e-14, 172.20000000000002),23,25,4,yes,x,5,x,0.710364300000947,1,15,prac,0,0.7105984999943757,-20.0
14,chj,m,20,r,1,(-3.163262682197613e-14, -172.20000000000002),27,5,2,yes,x,5,x,0.737767900005565,1,16,prac,0,0.7381425999919884,-40.0
14,chj,m,20,r,1,(-172.20000000000002, 2.1088417881317425e-14),25,-5,12,yes,x,5,x,0.6170903999882285,1,17,prac,0,0.6178037999925436,-50.0
14,chj,m,20,r,1,(-3.163262682197613e-14, -172.20000000000002),27,25,4,yes,x,5,x,0.6059147000050871,1,18,prac,0,0.6060120000038296,-20.0
14,chj,m,20,r,1,(172.20000000000002, 0.0),21,25,4,no,m,6,m,0.9414063000003807,1,19,prac,0,0.9415055999998003,-20.0
14,chj,m,20,r,1,(-121.76378772032352, -121.76378772032348),26,5,2,no,m,6,m,1.1504971999966074,1,20,prac,0,1.1508653000055347,-20.0
14,chj,m,20,r,1,(1.0544208940658713e-14, 172.20000000000002),23,7,3,yes,x,5,x,0.7016003000026103,1,1,test1,1,0.7018933000072138,-38.0
14,chj,m,20,r,1,(-121.76378772032348, 121.76378772032349),24,25,4,yes,x,5,x,0.5929466999950819,1,2,test1,1,0.5936880999943241,-20.0
14,chj,m,20,r,1,(121.76378772032346, -121.76378772032352),28,-3,11,yes,x,5,x,1.0660659999994095,1,3,test1,1,1.0663549000018975,-48.0
14,chj,m,20,r,1,(-3.163262682197613e-14, -172.20000000000002),27,-3,11,yes,x,5,x,0.9471746000053827,1,4,test1,1,0.9473964000062551,-48.0
14,chj,m,20,r,1,(121.76378772032349, 121.76378772032349),22,-3,11,yes,x,5,x,1.0467153999925358,1,5,test1,1,1.0469872999965446,-48.0
14,chj,m,20,r,1,(121.76378772032349, 121.76378772032349),22,5,2,no,m,6,m,1.008200800002669,1,6,test1,1,1.0083125999954063,-48.0
14,chj,m,20,r,1,(-121.76378772032352, -121.76378772032348),26,3,1,no,m,6,m,1.2813492999994196,1,7,test1,1,1.2815313000028254,-48.0
14,chj,m,20,r,1,(121.76378772032346, -121.76378772032352),28,-5,12,no,m,6,m,1.146924400003627,1,8,test1,1,1.1470245999953477,-48.0
14,chj,m,20,r,1,(172.20000000000002, 0.0),21,5,2,yes,x,5,x,1.487406899992493,1,9,test1,1,1.4876270000095246,-40.0
14,chj,m,20,r,1,(121.76378772032346, -121.76378772032352),28,-5,12,yes,x,5,x,1.2481398999952944,1,10,test1,1,1.2482778999983566,-50.0
14,chj,m,20,r,1,(172.20000000000002, 0.0),21,-3,11,yes,x,5,x,1.1081427000026451,1,11,test1,1,1.108239199995296,-48.0
14,chj,m,20,r,1,(-121.76378772032352, -121.76378772032348),26,25,4,yes,x,5,x,0.6439571999944746,1,12,test1,1,0.6440577000030316,-20.0
14,chj,m,20,r,1,(-121.76378772032348, 121.76378772032349),24,-25,14,no,m,6,m,1.0831080000061775,1,13,test1,1,1.0833334999915678,-20.0
14,chj,m,20,r,1,(-172.20000000000002, 2.1088417881317425e-14),25,-3,11,yes,x,5,x,1.2037432000070112,1,14,test1,1,1.2041939000046114,-48.0
14,chj,m,20,r,1,(1.0544208940658713e-14, 172.20000000000002),23,-7,13,yes,x,5,x,0.5936858000059146,1,15,test1,1,0.5937828999885824,-52.0
14,chj,m,20,r,1,(-3.163262682197613e-14, -172.20000000000002),27,-5,12,yes,x,5,x,0.8821604000113439,1,16,test1,1,0.882256500000949,-50.0
14,chj,m,20,r,1,(121.76378772032346, -121.76378772032352),28,3,1,yes,x,5,x,1.2219717000116361,1,17,test1,1,1.2221066999918548,-42.0
14,chj,m,20,r,1,(-3.163262682197613e-14, -172.20000000000002),27,-3,11,yes,x,5,x,0.9671430999878794,1,18,test1,1,0.9672468999924604,-48.0
14,chj,m,20,r,1,(121.76378772032349, 121.76378772032349),22,-25,14,yes,x,5,x,0.6218743000063114,1,19,test1,1,0.6219942000025185,-70.0
14,chj,m,20,r,1,(121.76378772032346, -121.76378772032352),28,25,4,no,m,6,x,1.047195200007991,0,20,test1,1,1.0476696999976411,-70.0
14,chj,m,20,r,1,(-121.76378772032348, 121.76378772032349),24,-7,13,yes,x,5,x,0.6435888999985764,1,21,test1,1,0.6437100999901304,-52.0
14,chj,m,20,r,1,(172.20000000000002, 0.0),21,-5,12,no,m,6,m,1.7579126000055112,1,22,test1,1,1.758424500003457,-52.0
14,chj,m,20,r,1,(121.76378772032349, 121.76378772032349),22,7,3,yes,x,5,m,1.0086249000014504,0,23,test1,1,1.0087247999908868,-38.0
14,chj,m,20,r,1,(172.20000000000002, 0.0),21,-5,12,yes,x,5,x,1.2783846000093035,1,24,test1,1,1.2785093000129564,-50.0
14,chj,m,20,r,1,(-121.76378772032352, -121.76378772032348),26,7,3,no,m,6,x,1.5808991999947466,0,25,test1,1,1.5810870999994222,-50.0
14,chj,m,20,r,1,(-121.76378772032348, 121.76378772032349),24,3,1,yes,x,5,x,1.0415752999979304,1,26,test1,1,1.0417099000042072,-42.0
14,chj,m,20,r,1,(-121.76378772032348, 121.76378772032349),24,5,2,no,m,6,m,1.526412999999593,1,27,test1,1,1.5267087999964133,-42.0
14,chj,m,20,r,1,(172.20000000000002, 0.0),21,-25,14,yes,x,5,x,0.6992959000053816,1,28,test1,1,0.6995765000028769,-70.0
14,chj,m,20,r,1,(-172.20000000000002, 2.1088417881317425e-14),25,-7,13,yes,x,5,x,0.7165645000059158,1,29,test1,1,0.7167814999993425,-52.0
14,chj,m,20,r,1,(-121.76378772032348, 121.76378772032349),24,7,3,yes,x,5,x,0.9912917000037851,1,30,test1,1,0.991410899994662,-38.0
14,chj,m,20,r,1,(1.0544208940658713e-14, 172.20000000000002),23,5,2,yes,x,5,x,0.8505369999911636,1,31,test1,1,0.8506803999916883,-40.0
14,chj,m,20,r,1,(172.20000000000002, 0.0),21,-7,13,yes,x,5,x,0.7610558000014862,1,32,test1,1,0.7612419000070076,-52.0
14,chj,m,20,r,1,(-121.76378772032348, 121.76378772032349),24,5,2,yes,x,5,x,1.2598353999928804,1,33,test1,1,1.2600420999951893,-40.0
14,chj,m,20,r,1,(-121.76378772032348, 121.76378772032349),24,-7,13,no,m,6,m,0.9735722000041278,1,34,test1,1,0.9737005999922985,-40.0
14,chj,m,20,r,1,(121.76378772032349, 121.76378772032349),22,-3,11,no,m,6,m,1.0827939000009792,1,35,test1,1,1.0828920000058133,-40.0
14,chj,m,20,r,1,(-121.76378772032352, -121.76378772032348),26,5,2,yes,x,5,x,1.099767100007739,1,36,test1,1,1.0998664000071585,-40.0
14,chj,m,20,r,1,(-172.20000000000002, 2.1088417881317425e-14),25,5,2,yes,x,5,x,1.0379038999963086,1,37,test1,1,1.0380238000070676,-40.0
14,chj,m,20,r,1,(-3.163262682197613e-14, -172.20000000000002),27,-7,13,no,m,6,m,1.0325081999908434,1,38,test1,1,1.0327413999912096,-40.0
14,chj,m,20,r,1,(1.0544208940658713e-14, 172.20000000000002),23,5,2,yes,x,5,x,0.6476137999998173,1,39,test1,1,0.6479332000017166,-40.0
14,chj,m,20,r,1,(1.0544208940658713e-14, 172.20000000000002),23,3,1,yes,x,5,x,1.0834900000045309,1,40,test1,1,1.0841394000017317,-42.0
14,chj,m,20,r,1,(-3.163262682197613e-14, -172.20000000000002),27,-5,12,no,m,6,m,1.0978654000064125,1,41,test1,1,1.0980225000093924,-42.0
14,chj,m,20,r,1,(172.20000000000002, 0.0),21,7,3,no,m,6,m,1.1284463000047253,1,42,test1,1,1.128607299993746,-42.0
14,chj,m,20,r,1,(1.0544208940658713e-14, 172.20000000000002),23,-25,14,yes,x,5,x,0.4473784000001615,1,43,test1,1,0.4476543000055244,-70.0
14,chj,m,20,r,1,(121.76378772032346, -121.76378772032352),28,-5,12,yes,x,5,x,0.9537748000002466,1,44,test1,1,0.9542211000079988,-50.0
14,chj,m,20,r,1,(1.0544208940658713e-14, 172.20000000000002),23,-5,12,yes,x,5,x,0.510172499998589,1,45,test1,1,0.5103984000015771,-50.0
14,chj,m,20,r,1,(1.0544208940658713e-14, 172.20000000000002),23,-7,13,yes,x,5,x,0.5608418000047095,1,46,test1,1,0.5612020999978995,-52.0
14,chj,m,20,r,1,(121.76378772032349, 121.76378772032349),22,3,1,no,m,6,m,1.2699596000020392,1,47,test1,1,1.2700917000038316,-52.0
14,chj,m,20,r,1,(-121.76378772032352, -121.76378772032348),26,7,3,yes,x,5,x,0.8380122000089614,1,48,test1,1,0.8382933999964735,-38.0
14,chj,m,20,r,1,(-172.20000000000002, 2.1088417881317425e-14),25,25,4,yes,x,5,x,0.5632695999956923,1,49,test1,1,0.5639249999949243,-20.0
14,chj,m,20,r,1,(172.20000000000002, 0.0),21,-3,11,yes,x,5,x,0.9137635000079172,1,50,test1,1,0.9138597000128357,-48.0
14,chj,m,20,r,1,(-121.76378772032348, 121.76378772032349),24,-3,11,no,m,6,m,0.8420479000051273,1,51,test1,1,0.8422682999953395,-48.0
14,chj,m,20,r,1,(1.0544208940658713e-14, 172.20000000000002),23,7,3,no,m,6,m,1.2435777000064263,1,52,test1,1,1.2438611000106903,-48.0
14,chj,m,20,r,1,(-3.163262682197613e-14, -172.20000000000002),27,5,2,no,m,6,m,1.0308998999971664,1,53,test1,1,1.0309951000090223,-48.0
14,chj,m,20,r,1,(1.0544208940658713e-14, 172.20000000000002),23,3,1,no,m,6,m,0.9513371999928495,1,54,test1,1,0.9515415000059875,-48.0
14,chj,m,20,r,1,(121.76378772032349, 121.76378772032349),22,-5,12,yes,x,5,x,0.6612692999915453,1,55,test1,1,0.6613993999926606,-50.0
14,chj,m,20,r,1,(172.20000000000002, 0.0),21,-7,13,yes,x,5,x,0.48510750000423286,1,56,test1,1,0.4853034999978263,-52.0
14,chj,m,20,r,1,(121.76378772032349, 121.76378772032349),22,7,3,no,m,6,m,1.061628000010387,1,57,test1,1,1.0620950000011362,-52.0
14,chj,m,20,r,1,(121.76378772032346, -121.76378772032352),28,25,4,yes,x,5,x,0.4701113000046462,1,58,test1,1,0.470318399995449,-20.0
14,chj,m,20,r,1,(-121.76378772032352, -121.76378772032348),26,-5,12,no,m,6,m,0.8317740000056801,1,59,test1,1,0.8318747000012081,-20.0
14,chj,m,20,r,1,(172.20000000000002, 0.0),21,-7,13,no,m,6,m,0.8688573999970686,1,60,test1,1,0.8690829999977723,-20.0
14,chj,m,20,r,1,(-3.163262682197613e-14, -172.20000000000002),27,7,3,yes,x,5,x,0.7694038000045111,1,61,test1,1,0.7696692000026815,-38.0
14,chj,m,20,r,1,(121.76378772032346, -121.76378772032352),28,5,2,yes,x,5,x,0.7418566999986069,1,62,test1,1,0.7419727999949828,-40.0
14,chj,m,20,r,1,(172.20000000000002, 0.0),21,3,1,no,m,6,m,0.8366478000098141,1,63,test1,1,0.836749800000689,-40.0
14,chj,m,20,r,1,(-121.76378772032348, 121.76378772032349),24,-5,12,yes,x,5,x,0.74757170000521,1,64,test1,1,0.7476764000020921,-50.0
14,chj,m,20,r,1,(-3.163262682197613e-14, -172.20000000000002),27,-7,13,yes,x,5,x,0.6558091000042623,1,65,test1,1,0.65600980000454,-52.0
14,chj,m,20,r,1,(-172.20000000000002, 2.1088417881317425e-14),25,25,4,yes,x,5,x,0.8859278000018094,1,66,test1,1,0.8861103000090225,-20.0
14,chj,m,20,r,1,(121.76378772032349, 121.76378772032349),22,-7,13,yes,x,5,x,0.6365860999940196,1,67,test1,1,0.6368227000057232,-52.0
14,chj,m,20,r,1,(121.76378772032346, -121.76378772032352),28,-7,13,yes,x,5,x,0.8152855999942403,1,68,test1,1,0.8155433999927482,-52.0
14,chj,m,20,r,1,(1.0544208940658713e-14, 172.20000000000002),23,25,4,yes,x,5,x,0.5839913999952842,1,69,test1,1,0.5840893999993568,-20.0
14,chj,m,20,r,1,(-172.20000000000002, 2.1088417881317425e-14),25,-25,14,no,m,6,m,0.9525413999945158,1,70,test1,1,0.9526636999944458,-20.0
14,chj,m,20,r,1,(1.0544208940658713e-14, 172.20000000000002),23,-5,12,no,m,6,m,1.1670876999996835,1,71,test1,1,1.167564699993818,-20.0
14,chj,m,20,r,1,(1.0544208940658713e-14, 172.20000000000002),23,5,2,no,m,6,m,0.792210100000375,1,72,test1,1,0.7924313999974402,-20.0
14,chj,m,20,r,1,(-3.163262682197613e-14, -172.20000000000002),27,7,3,no,m,6,m,0.7007438000000548,1,73,test1,1,0.7008382000058191,-20.0
14,chj,m,20,r,1,(-3.163262682197613e-14, -172.20000000000002),27,-25,14,yes,x,5,x,0.6115935999987414,1,74,test1,1,0.6117230000090785,-70.0
14,chj,m,20,r,1,(121.76378772032346, -121.76378772032352),28,5,2,yes,x,5,x,0.9282092999928864,1,75,test1,1,0.9283241000084672,-40.0
14,chj,m,20,r,1,(-121.76378772032348, 121.76378772032349),24,-3,11,yes,x,5,x,0.9695212000078754,1,76,test1,1,0.9697293000062928,-48.0
14,chj,m,20,r,1,(-121.76378772032352, -121.76378772032348),26,-25,14,yes,x,5,x,0.5432232999883126,1,77,test1,1,0.5433733999961987,-70.0
14,chj,m,20,r,1,(121.76378772032349, 121.76378772032349),22,5,2,yes,x,5,x,0.8120280999864917,1,78,test1,1,0.8122686999995494,-40.0
14,chj,m,20,r,1,(172.20000000000002, 0.0),21,-3,11,no,m,6,m,0.9358612000069115,1,79,test1,1,0.93610350000381,-40.0
14,chj,m,20,r,1,(-3.163262682197613e-14, -172.20000000000002),27,3,1,yes,x,5,x,1.0524505999928806,1,80,test1,1,1.0526058999967063,-42.0
14,chj,m,20,r,1,(-172.20000000000002, 2.1088417881317425e-14),25,3,1,yes,x,5,x,0.6513572999974713,1,81,test1,1,0.6519312000018544,-42.0
14,chj,m,20,r,1,(121.76378772032349, 121.76378772032349),22,-3,11,yes,x,5,x,0.6935241999890422,1,82,test1,1,0.6936206999962451,-48.0
14,chj,m,20,r,1,(1.0544208940658713e-14, 172.20000000000002),23,-3,11,yes,x,5,x,0.9777498000039486,1,83,test1,1,0.9780663999990793,-48.0
14,chj,m,20,r,1,(121.76378772032349, 121.76378772032349),22,25,4,no,m,6,m,0.8659214000072097,1,84,test1,1,0.8662284000020009,-48.0
14,chj,m,20,r,1,(121.76378772032349, 121.76378772032349),22,7,3,yes,x,5,x,0.6944473000039579,1,85,test1,1,0.6946708000032231,-38.0
14,chj,m,20,r,1,(-121.76378772032352, -121.76378772032348),26,7,3,yes,x,5,x,0.5460500000044703,1,86,test1,1,0.5461522999976296,-38.0
14,chj,m,20,r,1,(-121.76378772032348, 121.76378772032349),24,7,3,no,m,6,x,1.002323199994862,0,87,test1,1,1.0026483999972697,-38.0
14,chj,m,20,r,1,(121.76378772032349, 121.76378772032349),22,-5,12,yes,x,5,x,0.653015800009598,1,88,test1,1,0.6535353000072064,-50.0
14,chj,m,20,r,1,(-3.163262682197613e-14, -172.20000000000002),27,25,4,no,m,6,m,1.3380651000043144,1,89,test1,1,1.3384116000088397,-50.0
14,chj,m,20,r,1,(-3.163262682197613e-14, -172.20000000000002),27,7,3,yes,x,5,x,0.5796376000071177,1,90,test1,1,0.5798691000090912,-38.0
14,chj,m,20,r,1,(1.0544208940658713e-14, 172.20000000000002),23,-25,14,yes,x,5,x,0.3686862000031397,1,91,test1,1,0.36884229999850504,-70.0
14,chj,m,20,r,1,(172.20000000000002, 0.0),21,3,1,yes,x,5,m,0.9715789000038058,0,92,test1,1,0.9717376000044169,-42.0
14,chj,m,20,r,1,(121.76378772032346, -121.76378772032352),28,-3,11,yes,x,5,x,1.2199640999897383,1,93,test1,1,1.2200790000060806,-48.0
14,chj,m,20,r,1,(-121.76378772032348, 121.76378772032349),24,7,3,yes,x,5,x,0.595836499996949,1,94,test1,1,0.5959353000071133,-38.0
14,chj,m,20,r,1,(121.76378772032346, -121.76378772032352),28,5,2,no,m,6,m,1.4591521999973338,1,95,test1,1,1.4595922000007704,-38.0
14,chj,m,20,r,1,(121.76378772032349, 121.76378772032349),22,-7,13,no,m,6,m,1.3320320000057109,1,96,test1,1,1.3323237000004156,-38.0
14,chj,m,20,r,1,(-172.20000000000002, 2.1088417881317425e-14),25,5,2,no,m,6,m,1.076918899998418,1,1,test2,1,1.077074700006051,-38.0
14,chj,m,20,r,1,(-172.20000000000002, 2.1088417881317425e-14),25,25,4,no,m,6,x,0.634407999998075,0,2,test2,1,0.6345087000081548,-38.0
14,chj,m,20,r,1,(-121.76378772032352, -121.76378772032348),26,-5,12,yes,x,5,x,0.6304381999943871,1,3,test2,1,0.6308627000107663,-50.0
14,chj,m,20,r,1,(-172.20000000000002, 2.1088417881317425e-14),25,-7,13,no,m,6,m,0.91312040000048,1,4,test2,1,0.9132363999960944,-50.0
14,chj,m,20,r,1,(-172.20000000000002, 2.1088417881317425e-14),25,5,2,yes,x,5,x,0.5269765999983065,1,5,test2,1,0.5270752999931574,-40.0
14,chj,m,20,r,1,(-3.163262682197613e-14, -172.20000000000002),27,5,2,yes,x,5,x,0.5977186999953119,1,6,test2,1,0.5978202999976929,-40.0
14,chj,m,20,r,1,(172.20000000000002, 0.0),21,5,2,no,m,6,m,0.8062686000048416,1,7,test2,1,0.8070991999993566,-40.0
14,chj,m,20,r,1,(121.76378772032346, -121.76378772032352),28,25,4,yes,x,5,x,0.5988998999964679,1,8,test2,1,0.5989977999997791,-20.0
14,chj,m,20,r,1,(121.76378772032346, -121.76378772032352),28,-25,14,no,m,6,m,0.7835338000004413,1,9,test2,1,0.7839211999962572,-20.0
14,chj,m,20,r,1,(-121.76378772032348, 121.76378772032349),24,-3,11,yes,x,5,x,0.8269676999916555,1,10,test2,1,0.8272436999977799,-48.0
14,chj,m,20,r,1,(121.76378772032346, -121.76378772032352),28,7,3,no,m,6,x,1.0669835999869974,0,11,test2,1,1.0676576000114437,-48.0
14,chj,m,20,r,1,(-172.20000000000002, 2.1088417881317425e-14),25,3,1,yes,x,5,x,1.0424301000020932,1,12,test2,1,1.0426585999957751,-42.0
14,chj,m,20,r,1,(121.76378772032346, -121.76378772032352),28,3,1,no,m,6,m,1.0521899000013946,1,13,test2,1,1.0523113000090234,-42.0
14,chj,m,20,r,1,(-121.76378772032352, -121.76378772032348),26,-7,13,yes,x,5,x,0.6427650000114227,1,14,test2,1,0.6430773999891244,-52.0
14,chj,m,20,r,1,(-3.163262682197613e-14, -172.20000000000002),27,-7,13,yes,x,5,x,0.5725174999970477,1,15,test2,1,0.5726165999949444,-52.0
14,chj,m,20,r,1,(-172.20000000000002, 2.1088417881317425e-14),25,-7,13,yes,x,5,x,0.48557780000555795,1,16,test2,1,0.48570350000227336,-52.0
14,chj,m,20,r,1,(-172.20000000000002, 2.1088417881317425e-14),25,7,3,yes,x,5,x,0.5762513999943621,1,17,test2,1,0.5765420999960043,-38.0
14,chj,m,20,r,1,(121.76378772032346, -121.76378772032352),28,-25,14,yes,x,5,x,0.618941900000209,1,18,test2,1,0.619300899998052,-70.0
14,chj,m,20,r,1,(121.76378772032349, 121.76378772032349),22,3,1,yes,x,5,x,0.9566545000125188,1,19,test2,1,0.9567562000011094,-42.0
14,chj,m,20,r,1,(-121.76378772032352, -121.76378772032348),26,5,2,yes,x,5,x,0.7328375999932177,1,20,test2,1,0.7329572000016924,-40.0
14,chj,m,20,r,1,(-3.163262682197613e-14, -172.20000000000002),27,3,1,yes,x,5,x,0.5850668999919435,1,21,test2,1,0.5855216000054497,-42.0
14,chj,m,20,r,1,(-121.76378772032352, -121.76378772032348),26,-3,11,no,m,6,m,0.8436933000048157,1,22,test2,1,0.8438786999904551,-42.0
14,chj,m,20,r,1,(1.0544208940658713e-14, 172.20000000000002),23,-25,14,no,m,6,m,0.9684090999944601,1,23,test2,1,0.9685058000031859,-42.0
14,chj,m,20,r,1,(-172.20000000000002, 2.1088417881317425e-14),25,7,3,yes,x,5,x,0.6789374000072712,1,24,test2,1,0.6790531000006013,-38.0
14,chj,m,20,r,1,(172.20000000000002, 0.0),21,5,2,yes,x,5,x,0.6545859000034397,1,25,test2,1,0.6548064999951748,-40.0
14,chj,m,20,r,1,(-121.76378772032348, 121.76378772032349),24,-5,12,yes,x,5,x,0.6452328000013949,1,26,test2,1,0.6454501999978675,-50.0
14,chj,m,20,r,1,(121.76378772032346, -121.76378772032352),28,-25,14,yes,x,5,x,0.6442463999992469,1,27,test2,1,0.6443476999993436,-70.0
14,chj,m,20,r,1,(121.76378772032349, 121.76378772032349),22,5,2,yes,x,5,x,0.5839935999974841,1,28,test2,1,0.5841817000036826,-40.0
14,chj,m,20,r,1,(1.0544208940658713e-14, 172.20000000000002),23,25,4,yes,x,5,x,0.5180598000006285,1,29,test2,1,0.5181585999962408,-20.0
14,chj,m,20,r,1,(-172.20000000000002, 2.1088417881317425e-14),25,-3,11,yes,x,5,x,0.6910655000101542,1,30,test2,1,0.6911686999956146,-48.0
14,chj,m,20,r,1,(121.76378772032346, -121.76378772032352),28,3,1,yes,x,5,x,0.7808382000075653,1,31,test2,1,0.7809858999971766,-42.0
14,chj,m,20,r,1,(-3.163262682197613e-14, -172.20000000000002),27,5,2,yes,x,5,x,0.8825200999999652,1,32,test2,1,0.8829517999984091,-40.0
14,chj,m,20,r,1,(-121.76378772032352, -121.76378772032348),26,-25,14,yes,x,5,x,0.625905300010345,1,33,test2,1,0.6262839999981225,-70.0
14,chj,m,20,r,1,(-121.76378772032352, -121.76378772032348),26,3,1,yes,x,5,x,0.9062541000021156,1,34,test2,1,0.9064569000038318,-42.0
14,chj,m,20,r,1,(-121.76378772032348, 121.76378772032349),24,5,2,yes,x,5,x,0.6831075999944005,1,35,test2,1,0.6833323000028031,-40.0
14,chj,m,20,r,1,(172.20000000000002, 0.0),21,25,4,yes,x,5,x,0.5626266000035685,1,36,test2,1,0.5629809999954887,-20.0
14,chj,m,20,r,1,(1.0544208940658713e-14, 172.20000000000002),23,-3,11,yes,x,5,x,0.7382844999956433,1,37,test2,1,0.7384004000050481,-48.0
14,chj,m,20,r,1,(-3.163262682197613e-14, -172.20000000000002),27,25,4,yes,x,5,x,0.6714070000016363,1,38,test2,1,0.6716369000059785,-20.0
14,chj,m,20,r,1,(1.0544208940658713e-14, 172.20000000000002),23,-5,12,yes,x,5,x,0.6003398000029847,1,39,test2,1,0.6006238999980269,-50.0
14,chj,m,20,r,1,(121.76378772032346, -121.76378772032352),28,-3,11,no,m,6,m,1.22379259999434,1,40,test2,1,1.2239774000045145,-50.0
14,chj,m,20,r,1,(1.0544208940658713e-14, 172.20000000000002),23,25,4,no,m,6,m,0.8863700999936555,1,41,test2,1,0.8865334000001894,-50.0
14,chj,m,20,r,1,(-121.76378772032352, -121.76378772032348),26,-5,12,yes,x,5,x,0.5945349000103306,1,42,test2,1,0.5949065999884624,-50.0
14,chj,m,20,r,1,(-121.76378772032352, -121.76378772032348),26,-3,11,yes,x,5,x,0.8587917999975616,1,43,test2,1,0.8589222000009613,-48.0
14,chj,m,20,r,1,(121.76378772032349, 121.76378772032349),22,3,1,yes,x,5,x,0.8981153000058839,1,44,test2,1,0.8983570999989752,-42.0
14,chj,m,20,r,1,(172.20000000000002, 0.0),21,-25,14,no,m,6,m,1.0139177000091877,1,45,test2,1,1.0142262999870582,-42.0
14,chj,m,20,r,1,(-121.76378772032348, 121.76378772032349),24,3,1,no,m,6,m,1.290185300007579,1,46,test2,1,1.2904637999890838,-42.0
14,chj,m,20,r,1,(-172.20000000000002, 2.1088417881317425e-14),25,7,3,no,m,6,m,0.7987837999971816,1,47,test2,1,0.7989137999975355,-42.0
14,chj,m,20,r,1,(-121.76378772032352, -121.76378772032348),26,-7,13,no,m,6,m,0.7696159999904921,1,48,test2,1,0.7697706999897491,-42.0
14,chj,m,20,r,1,(121.76378772032349, 121.76378772032349),22,-25,14,yes,x,5,x,0.7236834000068484,1,49,test2,1,0.7243717999954242,-70.0
14,chj,m,20,r,1,(172.20000000000002, 0.0),21,25,4,no,m,6,m,1.1287040000024717,1,50,test2,1,1.1289400000096066,-70.0
14,chj,m,20,r,1,(-172.20000000000002, 2.1088417881317425e-14),25,-25,14,yes,x,5,x,0.5849534000008134,1,51,test2,1,0.5853667000046698,-70.0
14,chj,m,20,r,1,(-172.20000000000002, 2.1088417881317425e-14),25,3,1,no,m,6,m,0.9933012000110466,1,52,test2,1,0.9934522999974433,-70.0
14,chj,m,20,r,1,(-121.76378772032352, -121.76378772032348),26,3,1,yes,x,5,m,0.7118706999899587,0,53,test2,1,0.7124753999960376,-42.0
14,chj,m,20,r,1,(121.76378772032346, -121.76378772032352),28,-7,13,yes,x,5,x,0.9028284999949392,1,54,test2,1,0.9030158999958076,-52.0
14,chj,m,20,r,1,(121.76378772032349, 121.76378772032349),22,25,4,yes,x,5,x,0.6809656999976141,1,55,test2,1,0.681098800007021,-20.0
14,chj,m,20,r,1,(-121.76378772032348, 121.76378772032349),24,-25,14,yes,x,5,x,0.6389836000016658,1,56,test2,1,0.6395304999896325,-70.0
14,chj,m,20,r,1,(-3.163262682197613e-14, -172.20000000000002),27,25,4,yes,x,5,x,0.6017124000063632,1,57,test2,1,0.6020091000100365,-20.0
14,chj,m,20,r,1,(-121.76378772032348, 121.76378772032349),24,-5,12,no,m,6,m,1.0052137000020593,1,58,test2,1,1.0054455000063172,-20.0
14,chj,m,20,r,1,(-3.163262682197613e-14, -172.20000000000002),27,-3,11,no,m,6,m,0.9216028000082588,1,59,test2,1,0.9219471000105841,-20.0
14,chj,m,20,r,1,(-3.163262682197613e-14, -172.20000000000002),27,-25,14,yes,x,5,x,0.6265625000087311,1,60,test2,1,0.6267892000032589,-70.0
14,chj,m,20,r,1,(-172.20000000000002, 2.1088417881317425e-14),25,-5,12,no,m,6,m,0.9442555999994511,1,61,test2,1,0.944534800000838,-70.0
14,chj,m,20,r,1,(-172.20000000000002, 2.1088417881317425e-14),25,-5,12,yes,x,5,x,0.671607700001914,1,62,test2,1,0.6717370000114897,-50.0
14,chj,m,20,r,1,(172.20000000000002, 0.0),21,25,4,yes,x,5,x,0.712161899995408,1,63,test2,1,0.7122557999973651,-20.0
14,chj,m,20,r,1,(172.20000000000002, 0.0),21,-5,12,yes,x,5,x,0.5634190999990096,1,64,test2,1,0.5635364000045229,-50.0
14,chj,m,20,r,1,(-121.76378772032352, -121.76378772032348),26,-3,11,yes,x,5,x,1.1150102999963565,1,65,test2,1,1.1155699999944773,-48.0
14,chj,m,20,r,1,(121.76378772032346, -121.76378772032352),28,7,3,yes,x,5,x,0.5905671999935294,1,66,test2,1,0.5909703000070294,-38.0
14,chj,m,20,r,1,(-3.163262682197613e-14, -172.20000000000002),27,-5,12,yes,x,5,x,0.727272099989932,1,67,test2,1,0.7276672000007238,-50.0
14,chj,m,20,r,1,(-172.20000000000002, 2.1088417881317425e-14),25,-5,12,yes,x,5,x,0.6178335000004154,1,68,test2,1,0.6181303999910597,-50.0
14,chj,m,20,r,1,(1.0544208940658713e-14, 172.20000000000002),23,-7,13,no,m,6,m,0.8609978000022238,1,69,test2,1,0.8612146999948891,-50.0
14,chj,m,20,r,1,(-121.76378772032352, -121.76378772032348),26,25,4,yes,x,5,x,0.6023750000022119,1,70,test2,1,0.6024753999954555,-20.0
14,chj,m,20,r,1,(1.0544208940658713e-14, 172.20000000000002),23,7,3,yes,x,5,x,0.6484361000038916,1,71,test2,1,0.6486909999948693,-38.0
14,chj,m,20,r,1,(-121.76378772032348, 121.76378772032349),24,25,4,no,m,6,m,1.379014600010123,1,72,test2,1,1.3793310000037309,-38.0
14,chj,m,20,r,1,(172.20000000000002, 0.0),21,3,1,yes,x,5,x,0.9511540999956196,1,73,test2,1,0.9515009000024293,-42.0
14,chj,m,20,r,1,(-121.76378772032348, 121.76378772032349),24,25,4,yes,x,5,x,0.6099906000017654,1,74,test2,1,0.6101319000008516,-20.0
14,chj,m,20,r,1,(121.76378772032346, -121.76378772032352),28,7,3,yes,x,5,x,0.5861124000075506,1,75,test2,1,0.5869107000035001,-38.0
14,chj,m,20,r,1,(-121.76378772032352, -121.76378772032348),26,-25,14,no,m,6,m,0.7570131000102265,1,76,test2,1,0.7571242999983951,-38.0
14,chj,m,20,r,1,(121.76378772032349, 121.76378772032349),22,-5,12,no,m,6,x,0.8612808999896515,0,77,test2,1,0.8614151999936439,-38.0
14,chj,m,20,r,1,(-121.76378772032348, 121.76378772032349),24,3,1,yes,x,5,m,0.9703309000033187,0,78,test2,1,0.9705182000034256,-42.0
14,chj,m,20,r,1,(-3.163262682197613e-14, -172.20000000000002),27,-25,14,no,m,6,m,1.6162843000056455,1,79,test2,1,1.616448800006765,-42.0
14,chj,m,20,r,1,(172.20000000000002, 0.0),21,-25,14,yes,x,5,x,0.6680589000025066,1,80,test2,1,0.6682684999977937,-70.0
14,chj,m,20,r,1,(172.20000000000002, 0.0),21,7,3,yes,x,5,x,0.7451697000069544,1,81,test2,1,0.745331800004351,-38.0
14,chj,m,20,r,1,(-172.20000000000002, 2.1088417881317425e-14),25,-25,14,yes,x,5,x,0.9824266000068747,1,82,test2,1,0.982895200009807,-70.0
14,chj,m,20,r,1,(121.76378772032349, 121.76378772032349),22,25,4,yes,x,5,x,1.111761899999692,1,83,test2,1,1.111859500000719,-20.0
14,chj,m,20,r,1,(-121.76378772032352, -121.76378772032348),26,5,2,no,m,6,m,1.4009156999964034,1,84,test2,1,1.4010385000001406,-20.0
14,chj,m,20,r,1,(121.76378772032349, 121.76378772032349),22,-7,13,yes,x,5,x,0.7020829000102822,1,85,test2,1,0.702347300000838,-52.0
14,chj,m,20,r,1,(1.0544208940658713e-14, 172.20000000000002),23,-3,11,no,m,6,m,1.1288628000038443,1,86,test2,1,1.1291550000023562,-52.0
14,chj,m,20,r,1,(172.20000000000002, 0.0),21,7,3,yes,x,5,x,0.7541277999989688,1,87,test2,1,0.754481099997065,-38.0
14,chj,m,20,r,1,(-121.76378772032352, -121.76378772032348),26,-7,13,yes,x,5,x,0.6966926000022795,1,88,test2,1,0.6970602999936091,-52.0
14,chj,m,20,r,1,(-121.76378772032352, -121.76378772032348),26,25,4,no,m,6,m,0.8611696000007214,1,89,test2,1,0.8614367999980459,-52.0
14,chj,m,20,r,1,(121.76378772032349, 121.76378772032349),22,-25,14,no,m,6,m,1.02620079999906,1,90,test2,1,1.02632970000559,-52.0
14,chj,m,20,r,1,(121.76378772032346, -121.76378772032352),28,-7,13,no,m,6,m,0.895019500007038,1,91,test2,1,0.8951827999990201,-52.0
14,chj,m,20,r,1,(1.0544208940658713e-14, 172.20000000000002),23,3,1,yes,x,5,x,1.018828999993275,1,92,test2,1,1.018971400000737,-42.0
14,chj,m,20,r,1,(-121.76378772032348, 121.76378772032349),24,-25,14,yes,x,5,x,0.5570024000044214,1,93,test2,1,0.557366599998204,-70.0
14,chj,m,20,r,1,(-172.20000000000002, 2.1088417881317425e-14),25,-3,11,no,m,6,m,0.8640963999932865,1,94,test2,1,0.8642091999936383,-70.0
14,chj,m,20,r,1,(-121.76378772032348, 121.76378772032349),24,-7,13,yes,x,5,x,0.869159399997443,1,95,test2,1,0.8695259999949485,-52.0
14,chj,m,20,r,1,(-3.163262682197613e-14, -172.20000000000002),27,3,1,no,m,6,m,0.9138762999937171,1,96,test2,1,0.9140003999928012,-52.0
14,chj,m,20,r,1,(1.0544208940658713e-14, 172.20000000000002),23,7,3,yes,x,5,x,0.6334251000080258,1,1,test1,2,0.6338201000035042,-38.0
14,chj,m,20,r,1,(-121.76378772032348, 121.76378772032349),24,25,4,yes,x,5,x,0.5376448000024538,1,2,test1,2,0.5378679999994347,-20.0
14,chj,m,20,r,1,(121.76378772032346, -121.76378772032352),28,-3,11,yes,x,5,x,0.8901129000005312,1,3,test1,2,0.8902110000053653,-48.0
14,chj,m,20,r,1,(-3.163262682197613e-14, -172.20000000000002),27,-3,11,yes,x,5,x,0.8123781999893254,1,4,test1,2,0.8125466000055894,-48.0
14,chj,m,20,r,1,(121.76378772032349, 121.76378772032349),22,-3,11,yes,x,5,x,0.6163909999886528,1,5,test1,2,0.6166106000018772,-48.0
14,chj,m,20,r,1,(121.76378772032349, 121.76378772032349),22,5,2,no,m,6,x,0.8976837000082014,0,6,test1,2,0.8977965000085533,-48.0
14,chj,m,20,r,1,(-121.76378772032352, -121.76378772032348),26,3,1,no,m,6,m,1.1196218999975827,1,7,test1,2,1.120022400005837,-48.0
14,chj,m,20,r,1,(121.76378772032346, -121.76378772032352),28,-5,12,no,m,6,x,1.4631628999923123,0,8,test1,2,1.4634936999937054,-48.0
14,chj,m,20,r,1,(172.20000000000002, 0.0),21,5,2,yes,x,5,x,0.82016200000362,1,9,test1,2,0.8205207999999402,-40.0
14,chj,m,20,r,1,(121.76378772032346, -121.76378772032352),28,-5,12,yes,x,5,x,0.7177061999973375,1,10,test1,2,0.7178297000064049,-50.0
14,chj,m,20,r,1,(172.20000000000002, 0.0),21,-3,11,yes,x,5,x,0.8779266999918036,1,11,test1,2,0.8780256000027293,-48.0
14,chj,m,20,r,1,(-121.76378772032352, -121.76378772032348),26,25,4,yes,x,5,x,0.5144330999901285,1,12,test1,2,0.5146666999935405,-20.0
14,chj,m,20,r,1,(-121.76378772032348, 121.76378772032349),24,-25,14,no,m,6,m,0.9716952000017045,1,13,test1,2,0.9720016999926884,-20.0
14,chj,m,20,r,1,(-172.20000000000002, 2.1088417881317425e-14),25,-3,11,yes,x,5,x,0.9342393999977503,1,14,test1,2,0.9346827999979723,-48.0
14,chj,m,20,r,1,(1.0544208940658713e-14, 172.20000000000002),23,-7,13,yes,x,5,x,0.6339331999915885,1,15,test1,2,0.6341755000030389,-52.0
14,chj,m,20,r,1,(-3.163262682197613e-14, -172.20000000000002),27,-5,12,yes,x,5,x,0.6286681000055978,1,16,test1,2,0.6288372999988496,-50.0
14,chj,m,20,r,1,(121.76378772032346, -121.76378772032352),28,3,1,yes,x,5,x,1.112491099993349,1,17,test1,2,1.1126730000105454,-42.0
14,chj,m,20,r,1,(-3.163262682197613e-14, -172.20000000000002),27,-3,11,yes,x,5,x,0.7300726000103168,1,18,test1,2,0.7302513000031468,-48.0
14,chj,m,20,r,1,(121.76378772032349, 121.76378772032349),22,-25,14,yes,x,5,x,0.5443205000046873,1,19,test1,2,0.544570099998964,-70.0
14,chj,m,20,r,1,(121.76378772032346, -121.76378772032352),28,25,4,no,m,6,m,0.9752605999965454,1,20,test1,2,0.975614900002256,-70.0
14,chj,m,20,r,1,(-121.76378772032348, 121.76378772032349),24,-7,13,yes,x,5,x,0.8812601000099676,1,21,test1,2,0.8815052000136347,-52.0
14,chj,m,20,r,1,(172.20000000000002, 0.0),21,-5,12,no,m,6,m,0.9417634999990696,1,22,test1,2,0.9422158999950625,-52.0
14,chj,m,20,r,1,(121.76378772032349, 121.76378772032349),22,7,3,yes,x,5,x,0.6927908000070602,1,23,test1,2,0.6929297000024235,-38.0
14,chj,m,20,r,1,(172.20000000000002, 0.0),21,-5,12,yes,x,5,x,0.7455675000092015,1,24,test1,2,0.7456947000027867,-50.0
14,chj,m,20,r,1,(-121.76378772032352, -121.76378772032348),26,7,3,no,m,6,m,0.9511443999945186,1,25,test1,2,0.9513071999972453,-50.0
14,chj,m,20,r,1,(-121.76378772032348, 121.76378772032349),24,3,1,yes,x,5,m,1.149541999999201,0,26,test1,2,1.1499806000065291,-42.0
14,chj,m,20,r,1,(-121.76378772032348, 121.76378772032349),24,5,2,no,m,6,m,0.9780688000028022,1,27,test1,2,0.9784055999916745,-42.0
14,chj,m,20,r,1,(172.20000000000002, 0.0),21,-25,14,yes,x,5,x,0.4814105999976164,1,28,test1,2,0.48158750000584405,-70.0
14,chj,m,20,r,1,(-172.20000000000002, 2.1088417881317425e-14),25,-7,13,yes,x,5,x,0.502600199994049,1,29,test1,2,0.5027048000047216,-52.0
14,chj,m,20,r,1,(-121.76378772032348, 121.76378772032349),24,7,3,yes,x,5,x,0.6169151000067359,1,30,test1,2,0.6171241999982158,-38.0
14,chj,m,20,r,1,(1.0544208940658713e-14, 172.20000000000002),23,5,2,yes,x,5,x,0.5787271000008332,1,31,test1,2,0.5793503000022611,-40.0
14,chj,m,20,r,1,(172.20000000000002, 0.0),21,-7,13,yes,x,5,x,0.5062596000061603,1,32,test1,2,0.5066425999975763,-52.0
14,chj,m,20,r,1,(-121.76378772032348, 121.76378772032349),24,5,2,yes,x,5,x,0.686666099994909,1,33,test1,2,0.686787300001015,-40.0
14,chj,m,20,r,1,(-121.76378772032348, 121.76378772032349),24,-7,13,no,m,6,m,0.8417416000011144,1,34,test1,2,0.8422851999930572,-40.0
14,chj,m,20,r,1,(121.76378772032349, 121.76378772032349),22,-3,11,no,m,6,m,1.034327299988945,1,35,test1,2,1.0344534000032581,-40.0
14,chj,m,20,r,1,(-121.76378772032352, -121.76378772032348),26,5,2,yes,x,5,m,0.6243967000045814,0,36,test1,2,0.6245065999974031,-40.0
14,chj,m,20,r,1,(-172.20000000000002, 2.1088417881317425e-14),25,5,2,yes,x,5,x,0.5147514999989653,1,37,test1,2,0.515134199988097,-40.0
14,chj,m,20,r,1,(-3.163262682197613e-14, -172.20000000000002),27,-7,13,no,m,6,m,1.268002199998591,1,38,test1,2,1.2683965000032913,-40.0
14,chj,m,20,r,1,(1.0544208940658713e-14, 172.20000000000002),23,5,2,yes,x,5,x,0.8377648000023328,1,39,test1,2,0.8378813000017544,-40.0
14,chj,m,20,r,1,(1.0544208940658713e-14, 172.20000000000002),23,3,1,yes,x,5,x,0.6221746999945026,1,40,test1,2,0.6224496999930125,-42.0
14,chj,m,20,r,1,(-3.163262682197613e-14, -172.20000000000002),27,-5,12,no,m,6,m,0.8375348999979906,1,41,test1,2,0.8376638000045205,-42.0
14,chj,m,20,r,1,(172.20000000000002, 0.0),21,7,3,no,m,6,m,0.9621483000082662,1,42,test1,2,0.9622460999962641,-42.0
14,chj,m,20,r,1,(1.0544208940658713e-14, 172.20000000000002),23,-25,14,yes,x,5,x,0.6339144999947166,1,43,test1,2,0.6342393999948399,-70.0
14,chj,m,20,r,1,(121.76378772032346, -121.76378772032352),28,-5,12,yes,x,5,x,1.004223700001603,1,44,test1,2,1.0046893999970052,-50.0
14,chj,m,20,r,1,(1.0544208940658713e-14, 172.20000000000002),23,-5,12,yes,x,5,x,0.8118338999920525,1,45,test1,2,0.8119751999911387,-50.0
14,chj,m,20,r,1,(1.0544208940658713e-14, 172.20000000000002),23,-7,13,yes,x,5,x,0.6195890000090003,1,46,test1,2,0.6196883000084199,-52.0
14,chj,m,20,r,1,(121.76378772032349, 121.76378772032349),22,3,1,no,m,6,m,1.418232199997874,1,47,test1,2,1.418329200008884,-52.0
14,chj,m,20,r,1,(-121.76378772032352, -121.76378772032348),26,7,3,yes,x,5,x,0.622922299997299,1,48,test1,2,0.6232796999975108,-38.0
14,chj,m,20,r,1,(-172.20000000000002, 2.1088417881317425e-14),25,25,4,yes,x,5,x,0.7168158999993466,1,49,test1,2,0.7172164999938104,-20.0
14,chj,m,20,r,1,(172.20000000000002, 0.0),21,-3,11,yes,x,5,x,1.2035986999981105,1,50,test1,2,1.2038148999999976,-48.0
14,chj,m,20,r,1,(-121.76378772032348, 121.76378772032349),24,-3,11,no,m,6,m,0.8979104000027291,1,51,test1,2,0.8980079000029946,-48.0
14,chj,m,20,r,1,(1.0544208940658713e-14, 172.20000000000002),23,7,3,no,m,6,m,0.9273453999921912,1,52,test1,2,0.9276306999963708,-48.0
14,chj,m,20,r,1,(-3.163262682197613e-14, -172.20000000000002),27,5,2,no,m,6,x,1.1577347999991616,0,53,test1,2,1.1585003999934997,-48.0
14,chj,m,20,r,1,(1.0544208940658713e-14, 172.20000000000002),23,3,1,no,m,6,m,0.8846938000060618,1,54,test1,2,0.8848560000042198,-48.0
14,chj,m,20,r,1,(121.76378772032349, 121.76378772032349),22,-5,12,yes,x,5,x,0.8676777999935439,1,55,test1,2,0.868059499989613,-50.0
14,chj,m,20,r,1,(172.20000000000002, 0.0),21,-7,13,yes,x,5,x,0.5639276000001701,1,56,test1,2,0.5641275000089081,-52.0
14,chj,m,20,r,1,(121.76378772032349, 121.76378772032349),22,7,3,no,m,6,m,1.0219386000098893,1,57,test1,2,1.0225886000116589,-52.0
14,chj,m,20,r,1,(121.76378772032346, -121.76378772032352),28,25,4,yes,x,5,x,0.5422003999992739,1,58,test1,2,0.542366600013338,-20.0
14,chj,m,20,r,1,(-121.76378772032352, -121.76378772032348),26,-5,12,no,m,6,m,0.6996959999960382,1,59,test1,2,0.7000108999927761,-20.0
14,chj,m,20,r,1,(172.20000000000002, 0.0),21,-7,13,no,m,6,m,0.883181400000467,1,60,test1,2,0.8834084999980405,-20.0
14,chj,m,20,r,1,(-3.163262682197613e-14, -172.20000000000002),27,7,3,yes,x,5,x,0.691273899996304,1,61,test1,2,0.6913717999996152,-38.0
14,chj,m,20,r,1,(121.76378772032346, -121.76378772032352),28,5,2,yes,x,5,x,0.8187589000008302,1,62,test1,2,0.8191473000042606,-40.0
14,chj,m,20,r,1,(172.20000000000002, 0.0),21,3,1,no,m,6,m,0.6443494999984978,1,63,test1,2,0.6444494000024861,-40.0
14,chj,m,20,r,1,(-121.76378772032348, 121.76378772032349),24,-5,12,yes,x,5,x,0.5294603999936953,1,64,test1,2,0.5299257000006037,-50.0
14,chj,m,20,r,1,(-3.163262682197613e-14, -172.20000000000002),27,-7,13,yes,x,5,x,0.5084262000018498,1,65,test1,2,0.508523199998308,-52.0
14,chj,m,20,r,1,(-172.20000000000002, 2.1088417881317425e-14),25,25,4,yes,x,5,x,0.5964729999977862,1,66,test1,2,0.5966454000008525,-20.0
14,chj,m,20,r,1,(121.76378772032349, 121.76378772032349),22,-7,13,yes,x,5,x,0.6329933000088204,1,67,test1,2,0.6332044999871869,-52.0
14,chj,m,20,r,1,(121.76378772032346, -121.76378772032352),28,-7,13,yes,x,5,x,0.6416561999940313,1,68,test1,2,0.6418980000016745,-52.0
14,chj,m,20,r,1,(1.0544208940658713e-14, 172.20000000000002),23,25,4,yes,x,5,x,0.6510252000007313,1,69,test1,2,0.65113929999643,-20.0
14,chj,m,20,r,1,(-172.20000000000002, 2.1088417881317425e-14),25,-25,14,no,m,6,m,0.7440018999914173,1,70,test1,2,0.7441281999927014,-20.0
14,chj,m,20,r,1,(1.0544208940658713e-14, 172.20000000000002),23,-5,12,no,m,6,m,0.5847078999941004,1,71,test1,2,0.5848670999985188,-20.0
14,chj,m,20,r,1,(1.0544208940658713e-14, 172.20000000000002),23,5,2,no,m,6,m,1.1605456999968737,1,72,test1,2,1.1608377999946242,-20.0
14,chj,m,20,r,1,(-3.163262682197613e-14, -172.20000000000002),27,7,3,no,m,6,m,0.6840437000064412,1,73,test1,2,0.6841410000051837,-20.0
14,chj,m,20,r,1,(-3.163262682197613e-14, -172.20000000000002),27,-25,14,yes,x,5,x,0.5646967999928165,1,74,test1,2,0.5647899000032339,-70.0
14,chj,m,20,r,1,(121.76378772032346, -121.76378772032352),28,5,2,yes,x,5,x,0.9212140000017826,1,75,test1,2,0.9215111000085017,-40.0
14,chj,m,20,r,1,(-121.76378772032348, 121.76378772032349),24,-3,11,yes,x,5,x,1.0420782000001054,1,76,test1,2,1.0421975999925053,-48.0
14,chj,m,20,r,1,(-121.76378772032352, -121.76378772032348),26,-25,14,yes,x,5,x,0.5724889999983134,1,77,test1,2,0.5725875000061933,-70.0
14,chj,m,20,r,1,(121.76378772032349, 121.76378772032349),22,5,2,yes,x,5,x,0.7678105999948457,1,78,test1,2,0.7680397999938577,-40.0
14,chj,m,20,r,1,(172.20000000000002, 0.0),21,-3,11,no,m,6,x,1.5999982000066666,0,79,test1,2,1.600159599998733,-40.0
14,chj,m,20,r,1,(-3.163262682197613e-14, -172.20000000000002),27,3,1,yes,x,5,x,0.9008310999925015,1,80,test1,2,0.9011209000018425,-42.0
14,chj,m,20,r,1,(-172.20000000000002, 2.1088417881317425e-14),25,3,1,yes,x,5,x,0.8347391999996034,1,81,test1,2,0.8350369999971008,-42.0
14,chj,m,20,r,1,(121.76378772032349, 121.76378772032349),22,-3,11,yes,x,5,x,0.9959948000032455,1,82,test1,2,0.9962058000091929,-48.0
14,chj,m,20,r,1,(1.0544208940658713e-14, 172.20000000000002),23,-3,11,yes,x,5,x,1.0195404999976745,1,83,test1,2,1.0196978000021772,-48.0
14,chj,m,20,r,1,(121.76378772032349, 121.76378772032349),22,25,4,no,m,6,m,1.293827000001329,1,84,test1,2,1.2939938999916194,-48.0
14,chj,m,20,r,1,(121.76378772032349, 121.76378772032349),22,7,3,yes,x,5,x,0.7620306000026176,1,85,test1,2,0.7626632000028621,-38.0
14,chj,m,20,r,1,(-121.76378772032352, -121.76378772032348),26,7,3,yes,x,5,x,0.7180078999954276,1,86,test1,2,0.7182210999890231,-38.0
14,chj,m,20,r,1,(-121.76378772032348, 121.76378772032349),24,7,3,no,m,6,m,0.9903846000088379,1,87,test1,2,0.9904857000074117,-38.0
14,chj,m,20,r,1,(121.76378772032349, 121.76378772032349),22,-5,12,yes,x,5,x,0.699777499990887,1,88,test1,2,0.6998897000012221,-50.0
14,chj,m,20,r,1,(-3.163262682197613e-14, -172.20000000000002),27,25,4,no,m,6,m,0.975398700000369,1,89,test1,2,0.9755244999978459,-50.0
14,chj,m,20,r,1,(-3.163262682197613e-14, -172.20000000000002),27,7,3,yes,x,5,x,0.7882925000012619,1,90,test1,2,0.7884194999933243,-38.0
14,chj,m,20,r,1,(1.0544208940658713e-14, 172.20000000000002),23,-25,14,yes,x,5,x,0.6254813999985345,1,91,test1,2,0.6256109999958426,-70.0
14,chj,m,20,r,1,(172.20000000000002, 0.0),21,3,1,yes,x,5,x,1.4749061000038637,1,92,test1,2,1.475066600003629,-42.0
14,chj,m,20,r,1,(121.76378772032346, -121.76378772032352),28,-3,11,yes,x,5,x,1.7446711000084179,1,93,test1,2,1.7448876999987988,-48.0
14,chj,m,20,r,1,(-121.76378772032348, 121.76378772032349),24,7,3,yes,x,5,x,0.6962161000119522,1,94,test1,2,0.6965612000058172,-38.0
14,chj,m,20,r,1,(121.76378772032346, -121.76378772032352),28,5,2,no,m,6,m,1.3854985999932978,1,95,test1,2,1.3856866999994963,-38.0
14,chj,m,20,r,1,(121.76378772032349, 121.76378772032349),22,-7,13,no,m,6,m,0.8733367000095313,1,96,test1,2,0.8736687000055099,-38.0
14,chj,m,20,r,1,(-172.20000000000002, 2.1088417881317425e-14),25,5,2,no,m,6,m,0.8415702999918722,1,1,test2,2,0.8419049999938579,-38.0
14,chj,m,20,r,1,(-172.20000000000002, 2.1088417881317425e-14),25,25,4,no,m,6,x,1.0125116999988677,0,2,test2,2,1.0131853000057163,-38.0
14,chj,m,20,r,1,(-121.76378772032352, -121.76378772032348),26,-5,12,yes,x,5,x,0.7333165000018198,1,3,test2,2,0.7334159000020009,-50.0
14,chj,m,20,r,1,(-172.20000000000002, 2.1088417881317425e-14),25,-7,13,no,m,6,m,0.911901499988744,1,4,test2,2,0.9121149999991758,-50.0
14,chj,m,20,r,1,(-172.20000000000002, 2.1088417881317425e-14),25,5,2,yes,x,5,x,0.5366610999917611,1,5,test2,2,0.5369052000023657,-40.0
14,chj,m,20,r,1,(-3.163262682197613e-14, -172.20000000000002),27,5,2,yes,x,5,x,0.6350562000006903,1,6,test2,2,0.6351572999992641,-40.0
14,chj,m,20,r,1,(172.20000000000002, 0.0),21,5,2,no,m,6,m,0.9212417000089772,1,7,test2,2,0.9213545999955386,-40.0
14,chj,m,20,r,1,(121.76378772032346, -121.76378772032352),28,25,4,yes,x,5,x,0.562678300004336,1,8,test2,2,0.5633375000033993,-20.0
14,chj,m,20,r,1,(121.76378772032346, -121.76378772032352),28,-25,14,no,m,6,m,1.4264054000086617,1,9,test2,2,1.426624300002004,-20.0
14,chj,m,20,r,1,(-121.76378772032348, 121.76378772032349),24,-3,11,yes,x,5,x,0.8091308000002755,1,10,test2,2,0.80952540000726,-48.0
14,chj,m,20,r,1,(121.76378772032346, -121.76378772032352),28,7,3,no,m,6,m,0.9413602000131505,1,11,test2,2,0.9414811000024201,-48.0
14,chj,m,20,r,1,(-172.20000000000002, 2.1088417881317425e-14),25,3,1,yes,x,5,x,1.187493200006429,1,12,test2,2,1.18774970000959,-42.0
14,chj,m,20,r,1,(121.76378772032346, -121.76378772032352),28,3,1,no,m,6,m,1.301837599996361,1,13,test2,2,1.3019496000051731,-42.0
14,chj,m,20,r,1,(-121.76378772032352, -121.76378772032348),26,-7,13,yes,x,5,x,0.5940174999996088,1,14,test2,2,0.5942336000007344,-52.0
14,chj,m,20,r,1,(-3.163262682197613e-14, -172.20000000000002),27,-7,13,yes,x,5,x,0.6255859999946551,1,15,test2,2,0.6257270999922184,-52.0
14,chj,m,20,r,1,(-172.20000000000002, 2.1088417881317425e-14),25,-7,13,yes,x,5,x,0.5650985000102082,1,16,test2,2,0.5653286000015214,-52.0
14,chj,m,20,r,1,(-172.20000000000002, 2.1088417881317425e-14),25,7,3,yes,x,5,x,0.6489639000064926,1,17,test2,2,0.6493098000064492,-38.0
14,chj,m,20,r,1,(121.76378772032346, -121.76378772032352),28,-25,14,yes,x,5,x,0.6534446000005119,1,18,test2,2,0.6535426000045845,-70.0
14,chj,m,20,r,1,(121.76378772032349, 121.76378772032349),22,3,1,yes,x,5,m,1.269424700003583,0,19,test2,2,1.2695458000089275,-42.0
14,chj,m,20,r,1,(-121.76378772032352, -121.76378772032348),26,5,2,yes,x,5,x,0.6590538999880664,1,20,test2,2,0.6596619000047212,-40.0
14,chj,m,20,r,1,(-3.163262682197613e-14, -172.20000000000002),27,3,1,yes,x,5,x,0.853383900001063,1,21,test2,2,0.8540893000026699,-42.0
14,chj,m,20,r,1,(-121.76378772032352, -121.76378772032348),26,-3,11,no,m,6,m,0.821521699996083,1,22,test2,2,0.821922099989024,-42.0
14,chj,m,20,r,1,(1.0544208940658713e-14, 172.20000000000002),23,-25,14,no,m,6,m,0.8667641999927582,1,23,test2,2,0.866987599991262,-42.0
14,chj,m,20,r,1,(-172.20000000000002, 2.1088417881317425e-14),25,7,3,yes,x,5,x,0.7478380999964429,1,24,test2,2,0.747970999989775,-38.0
14,chj,m,20,r,1,(172.20000000000002, 0.0),21,5,2,yes,x,5,x,0.6599151999980677,1,25,test2,2,0.6600134999898728,-40.0
14,chj,m,20,r,1,(-121.76378772032348, 121.76378772032349),24,-5,12,yes,x,5,x,0.6494334000017261,1,26,test2,2,0.6496076000039466,-50.0
14,chj,m,20,r,1,(121.76378772032346, -121.76378772032352),28,-25,14,yes,x,5,x,0.489506199999596,1,27,test2,2,0.48961920000147074,-70.0
14,chj,m,20,r,1,(121.76378772032349, 121.76378772032349),22,5,2,yes,x,5,x,0.7767540000058943,1,28,test2,2,0.7773070999974152,-40.0
14,chj,m,20,r,1,(1.0544208940658713e-14, 172.20000000000002),23,25,4,yes,x,5,x,0.5775046000053408,1,29,test2,2,0.5780200999870431,-20.0
14,chj,m,20,r,1,(-172.20000000000002, 2.1088417881317425e-14),25,-3,11,yes,x,5,x,0.9630085999961011,1,30,test2,2,0.9631517999951029,-48.0
14,chj,m,20,r,1,(121.76378772032346, -121.76378772032352),28,3,1,yes,x,5,x,0.9947594000113895,1,31,test2,2,0.9948717999941437,-42.0
14,chj,m,20,r,1,(-3.163262682197613e-14, -172.20000000000002),27,5,2,yes,x,5,x,0.6900600000080885,1,32,test2,2,0.6901820999919437,-40.0
14,chj,m,20,r,1,(-121.76378772032352, -121.76378772032348),26,-25,14,yes,x,5,x,0.5629090000002179,1,33,test2,2,0.5630625000048894,-70.0
14,chj,m,20,r,1,(-121.76378772032352, -121.76378772032348),26,3,1,yes,x,5,x,0.8102237999992212,1,34,test2,2,0.8105818000040017,-42.0
14,chj,m,20,r,1,(-121.76378772032348, 121.76378772032349),24,5,2,yes,x,5,x,0.532143599994015,1,35,test2,2,0.5323659999994561,-40.0
14,chj,m,20,r,1,(172.20000000000002, 0.0),21,25,4,yes,x,5,x,0.5474694000004092,1,36,test2,2,0.5475998000038089,-20.0
14,chj,m,20,r,1,(1.0544208940658713e-14, 172.20000000000002),23,-3,11,yes,x,5,x,0.8207878999965033,1,37,test2,2,0.8210101000004215,-48.0
14,chj,m,20,r,1,(-3.163262682197613e-14, -172.20000000000002),27,25,4,yes,x,5,x,0.5892544999951497,1,38,test2,2,0.5893560999975307,-20.0
14,chj,m,20,r,1,(1.0544208940658713e-14, 172.20000000000002),23,-5,12,yes,x,5,x,0.6886684999917634,1,39,test2,2,0.6888567999994848,-50.0
14,chj,m,20,r,1,(121.76378772032346, -121.76378772032352),28,-3,11,no,m,6,m,1.0894350000016857,1,40,test2,2,1.0897513999952935,-50.0
14,chj,m,20,r,1,(1.0544208940658713e-14, 172.20000000000002),23,25,4,no,m,6,m,0.8027143999934196,1,41,test2,2,0.8032268999959342,-50.0
14,chj,m,20,r,1,(-121.76378772032352, -121.76378772032348),26,-5,12,yes,x,5,x,0.5772856999974465,1,42,test2,2,0.5774212999967858,-50.0
14,chj,m,20,r,1,(-121.76378772032352, -121.76378772032348),26,-3,11,yes,x,5,x,1.4139546000078553,1,43,test2,2,1.4143097000051057,-48.0
14,chj,m,20,r,1,(121.76378772032349, 121.76378772032349),22,3,1,yes,x,5,m,1.1254155000060564,0,44,test2,2,1.125645899999654,-42.0
14,chj,m,20,r,1,(172.20000000000002, 0.0),21,-25,14,no,m,6,m,0.8678505000134464,1,45,test2,2,0.8680702999990899,-42.0
14,chj,m,20,r,1,(-121.76378772032348, 121.76378772032349),24,3,1,no,m,6,m,0.8328607000003103,1,46,test2,2,0.8333615000010468,-42.0
14,chj,m,20,r,1,(-172.20000000000002, 2.1088417881317425e-14),25,7,3,no,m,6,m,1.0624419000087073,1,47,test2,2,1.0626062000083039,-42.0
14,chj,m,20,r,1,(-121.76378772032352, -121.76378772032348),26,-7,13,no,m,6,m,0.8858293000084814,1,48,test2,2,0.8861258000106318,-42.0
14,chj,m,20,r,1,(121.76378772032349, 121.76378772032349),22,-25,14,yes,x,5,x,0.5411406999919564,1,49,test2,2,0.5413215000007767,-70.0
14,chj,m,20,r,1,(172.20000000000002, 0.0),21,25,4,no,m,6,m,0.8419505000056233,1,50,test2,2,0.8423329000070225,-70.0
14,chj,m,20,r,1,(-172.20000000000002, 2.1088417881317425e-14),25,-25,14,yes,x,5,x,0.5142138000082923,1,51,test2,2,0.5155352000001585,-70.0
14,chj,m,20,r,1,(-172.20000000000002, 2.1088417881317425e-14),25,3,1,no,m,6,m,0.7955029000004288,1,52,test2,2,0.7956666999962181,-70.0
14,chj,m,20,r,1,(-121.76378772032352, -121.76378772032348),26,3,1,yes,x,5,x,1.1637801000033505,1,53,test2,2,1.1638823999965098,-42.0
14,chj,m,20,r,1,(121.76378772032346, -121.76378772032352),28,-7,13,yes,x,5,x,0.6162787000066601,1,54,test2,2,0.6166024000121979,-52.0
14,chj,m,20,r,1,(121.76378772032349, 121.76378772032349),22,25,4,yes,x,5,x,0.5916546000080416,1,55,test2,2,0.5917541000089841,-20.0
14,chj,m,20,r,1,(-121.76378772032348, 121.76378772032349),24,-25,14,yes,x,5,x,1.16272680000111,1,56,test2,2,1.1629091000068001,-70.0
14,chj,m,20,r,1,(-3.163262682197613e-14, -172.20000000000002),27,25,4,yes,x,5,x,0.4974503999983426,1,57,test2,2,0.4976909999968484,-20.0
14,chj,m,20,r,1,(-121.76378772032348, 121.76378772032349),24,-5,12,no,m,6,m,0.6811654000048293,1,58,test2,2,0.6814727000019047,-20.0
14,chj,m,20,r,1,(-3.163262682197613e-14, -172.20000000000002),27,-3,11,no,m,6,m,0.830581300004269,1,59,test2,2,0.8307547000003979,-20.0
14,chj,m,20,r,1,(-3.163262682197613e-14, -172.20000000000002),27,-25,14,yes,x,5,x,0.4896891999960644,1,60,test2,2,0.48981720001029316,-70.0
14,chj,m,20,r,1,(-172.20000000000002, 2.1088417881317425e-14),25,-5,12,no,m,6,m,0.8517285999987507,1,61,test2,2,0.8518324000033317,-70.0
14,chj,m,20,r,1,(-172.20000000000002, 2.1088417881317425e-14),25,-5,12,yes,x,5,x,0.5649412000057055,1,62,test2,2,0.5651786999951582,-50.0
14,chj,m,20,r,1,(172.20000000000002, 0.0),21,25,4,yes,x,5,x,0.5221256999939214,1,63,test2,2,0.5223562000028323,-20.0
14,chj,m,20,r,1,(172.20000000000002, 0.0),21,-5,12,yes,x,5,x,0.5336179000005359,1,64,test2,2,0.5337486000062199,-50.0
14,chj,m,20,r,1,(-121.76378772032352, -121.76378772032348),26,-3,11,yes,x,5,x,0.6409034000098472,1,65,test2,2,0.6410179999948014,-48.0
14,chj,m,20,r,1,(121.76378772032346, -121.76378772032352),28,7,3,yes,x,5,x,0.5702331000065897,1,66,test2,2,0.5704015000083018,-38.0
14,chj,m,20,r,1,(-3.163262682197613e-14, -172.20000000000002),27,-5,12,yes,x,5,x,0.5313781000004383,1,67,test2,2,0.5315912999940338,-50.0
14,chj,m,20,r,1,(-172.20000000000002, 2.1088417881317425e-14),25,-5,12,yes,x,5,x,0.5023560999979964,1,68,test2,2,0.5024850000045262,-50.0
14,chj,m,20,r,1,(1.0544208940658713e-14, 172.20000000000002),23,-7,13,no,m,6,m,1.0814567000052193,1,69,test2,2,1.0816026999964379,-50.0
14,chj,m,20,r,1,(-121.76378772032352, -121.76378772032348),26,25,4,yes,x,5,x,0.49057949999405537,1,70,test2,2,0.49073809999390505,-20.0
14,chj,m,20,r,1,(1.0544208940658713e-14, 172.20000000000002),23,7,3,yes,x,5,x,0.5439423000061652,1,71,test2,2,0.5440633999969577,-38.0
14,chj,m,20,r,1,(-121.76378772032348, 121.76378772032349),24,25,4,no,m,6,m,0.656294300002628,1,72,test2,2,0.6564864000101807,-38.0
14,chj,m,20,r,1,(172.20000000000002, 0.0),21,3,1,yes,x,5,m,0.877028100003372,0,73,test2,2,0.8773551000049338,-42.0
14,chj,m,20,r,1,(-121.76378772032348, 121.76378772032349),24,25,4,yes,x,5,x,0.41883570000936743,1,74,test2,2,0.4191919000004418,-20.0
14,chj,m,20,r,1,(121.76378772032346, -121.76378772032352),28,7,3,yes,x,5,x,0.7085250999953132,1,75,test2,2,0.7088346999953501,-38.0
14,chj,m,20,r,1,(-121.76378772032352, -121.76378772032348),26,-25,14,no,m,6,x,0.8594842000020435,0,76,test2,2,0.8596385999990162,-38.0
14,chj,m,20,r,1,(121.76378772032349, 121.76378772032349),22,-5,12,no,m,6,m,0.8796296999935294,1,77,test2,2,0.8799512999976287,-38.0
14,chj,m,20,r,1,(-121.76378772032348, 121.76378772032349),24,3,1,yes,x,5,x,0.6250016999983927,1,78,test2,2,0.6251155000063591,-42.0
14,chj,m,20,r,1,(-3.163262682197613e-14, -172.20000000000002),27,-25,14,no,m,6,m,0.895203300009598,1,79,test2,2,0.8955495999980485,-42.0
14,chj,m,20,r,1,(172.20000000000002, 0.0),21,-25,14,yes,x,5,x,0.557358000005479,1,80,test2,2,0.5574569999880623,-70.0
14,chj,m,20,r,1,(172.20000000000002, 0.0),21,7,3,yes,x,5,x,0.5257587999949465,1,81,test2,2,0.5258614999911515,-38.0
14,chj,m,20,r,1,(-172.20000000000002, 2.1088417881317425e-14),25,-25,14,yes,x,5,x,0.49585609999485314,1,82,test2,2,0.4961014000000432,-70.0
14,chj,m,20,r,1,(121.76378772032349, 121.76378772032349),22,25,4,yes,x,5,x,0.45138820000283886,1,83,test2,2,0.45148640000843443,-20.0
14,chj,m,20,r,1,(-121.76378772032352, -121.76378772032348),26,5,2,no,m,6,m,1.0235860999964643,1,84,test2,2,1.023885100003099,-20.0
14,chj,m,20,r,1,(121.76378772032349, 121.76378772032349),22,-7,13,yes,x,5,x,0.5391876999929082,1,85,test2,2,0.5392997000017203,-52.0
14,chj,m,20,r,1,(1.0544208940658713e-14, 172.20000000000002),23,-3,11,no,m,6,m,1.035520199991879,1,86,test2,2,1.0356676999945194,-52.0
14,chj,m,20,r,1,(172.20000000000002, 0.0),21,7,3,yes,x,5,x,0.7408607999968808,1,87,test2,2,0.7409742000018014,-38.0
14,chj,m,20,r,1,(-121.76378772032352, -121.76378772032348),26,-7,13,yes,x,5,x,0.5331348999898182,1,88,test2,2,0.5332308999932138,-52.0
14,chj,m,20,r,1,(-121.76378772032352, -121.76378772032348),26,25,4,no,m,6,m,0.7380768000002718,1,89,test2,2,0.7382674999971641,-52.0
14,chj,m,20,r,1,(121.76378772032349, 121.76378772032349),22,-25,14,no,m,6,m,0.8269088000088232,1,90,test2,2,0.8270121000095969,-52.0
14,chj,m,20,r,1,(121.76378772032346, -121.76378772032352),28,-7,13,no,m,6,m,0.8406140000006417,1,91,test2,2,0.841092300004675,-52.0
14,chj,m,20,r,1,(1.0544208940658713e-14, 172.20000000000002),23,3,1,yes,x,5,x,1.2476295999949798,1,92,test2,2,1.2483219999994617,-42.0
14,chj,m,20,r,1,(-121.76378772032348, 121.76378772032349),24,-25,14,yes,x,5,x,0.7115720000001602,1,93,test2,2,0.7117976999870734,-70.0
14,chj,m,20,r,1,(-172.20000000000002, 2.1088417881317425e-14),25,-3,11,no,m,6,m,0.6329737000050955,1,94,test2,2,0.6331901000085054,-70.0
14,chj,m,20,r,1,(-121.76378772032348, 121.76378772032349),24,-7,13,yes,x,5,x,0.4673249999905238,1,95,test2,2,0.4674259999883361,-52.0
14,chj,m,20,r,1,(-3.163262682197613e-14, -172.20000000000002),27,3,1,no,m,6,m,0.6471279999968829,1,96,test2,2,0.6472236999979941,-52.0
14,chj,m,20,r,1,(1.0544208940658713e-14, 172.20000000000002),23,7,3,yes,x,5,x,0.5783702000044286,1,1,test1,3,0.5784808000025805,-38.0
14,chj,m,20,r,1,(-121.76378772032348, 121.76378772032349),24,25,4,yes,x,5,x,0.4133025000046473,1,2,test1,3,0.41361510001297574,-20.0
14,chj,m,20,r,1,(121.76378772032346, -121.76378772032352),28,-3,11,yes,x,5,x,0.5661746999976458,1,3,test1,3,0.5665033999976004,-48.0
14,chj,m,20,r,1,(-3.163262682197613e-14, -172.20000000000002),27,-3,11,yes,x,5,x,1.032466899996507,1,4,test1,3,1.0325649000005797,-48.0
14,chj,m,20,r,1,(121.76378772032349, 121.76378772032349),22,-3,11,yes,x,5,x,0.6719257999939146,1,5,test1,3,0.6721179000014672,-48.0
14,chj,m,20,r,1,(121.76378772032349, 121.76378772032349),22,5,2,no,m,6,x,1.5007283000013558,0,6,test1,3,1.5008283000061056,-48.0
14,chj,m,20,r,1,(-121.76378772032352, -121.76378772032348),26,3,1,no,m,6,m,1.3503483999957098,1,7,test1,3,1.3509367000078782,-48.0
14,chj,m,20,r,1,(121.76378772032346, -121.76378772032352),28,-5,12,no,m,6,m,1.3083318999997573,1,8,test1,3,1.3084919000102673,-48.0
14,chj,m,20,r,1,(172.20000000000002, 0.0),21,5,2,yes,x,5,x,0.5938413999974728,1,9,test1,3,0.5939416000037454,-40.0
14,chj,m,20,r,1,(121.76378772032346, -121.76378772032352),28,-5,12,yes,x,5,x,0.6470027000032132,1,10,test1,3,0.6471036000002641,-50.0
14,chj,m,20,r,1,(172.20000000000002, 0.0),21,-3,11,yes,x,5,x,0.5549489000113681,1,11,test1,3,0.5551664999948116,-48.0
14,chj,m,20,r,1,(-121.76378772032352, -121.76378772032348),26,25,4,yes,x,5,x,0.551034999996773,1,12,test1,3,0.5511350000015227,-20.0
14,chj,m,20,r,1,(-121.76378772032348, 121.76378772032349),24,-25,14,no,m,6,m,1.0674682999961078,1,13,test1,3,1.067613799998071,-20.0
14,chj,m,20,r,1,(-172.20000000000002, 2.1088417881317425e-14),25,-3,11,yes,x,5,x,1.3862537999957567,1,14,test1,3,1.3864105999964522,-48.0
14,chj,m,20,r,1,(1.0544208940658713e-14, 172.20000000000002),23,-7,13,yes,x,5,x,0.5804443999950308,1,15,test1,3,0.581097200003569,-52.0
14,chj,m,20,r,1,(-3.163262682197613e-14, -172.20000000000002),27,-5,12,yes,x,5,x,0.5965489999944111,1,16,test1,3,0.5967184000037378,-50.0
14,chj,m,20,r,1,(121.76378772032346, -121.76378772032352),28,3,1,yes,x,5,x,1.332823799995822,1,17,test1,3,1.3331008000095608,-42.0
14,chj,m,20,r,1,(-3.163262682197613e-14, -172.20000000000002),27,-3,11,yes,x,5,x,0.6221092000050703,1,18,test1,3,0.6223530999996001,-48.0
14,chj,m,20,r,1,(121.76378772032349, 121.76378772032349),22,-25,14,yes,x,5,x,0.4799617000098806,1,19,test1,3,0.4801003999891691,-70.0
14,chj,m,20,r,1,(121.76378772032346, -121.76378772032352),28,25,4,no,m,6,m,1.7254530000063824,1,20,test1,3,1.7255769000039436,-70.0
14,chj,m,20,r,1,(-121.76378772032348, 121.76378772032349),24,-7,13,yes,x,5,x,0.5823697000014363,1,21,test1,3,0.5825290999928256,-52.0
14,chj,m,20,r,1,(172.20000000000002, 0.0),21,-5,12,no,m,6,m,0.8357932000071742,1,22,test1,3,0.8359068000136176,-52.0
14,chj,m,20,r,1,(121.76378772032349, 121.76378772032349),22,7,3,yes,x,5,x,0.7070190000085859,1,23,test1,3,0.7071633000014117,-38.0
14,chj,m,20,r,1,(172.20000000000002, 0.0),21,-5,12,yes,x,5,x,0.5064611999987392,1,24,test1,3,0.5066841000079876,-50.0
14,chj,m,20,r,1,(-121.76378772032352, -121.76378772032348),26,7,3,no,m,6,m,0.8296819999959553,1,25,test1,3,0.8298813000001246,-50.0
14,chj,m,20,r,1,(-121.76378772032348, 121.76378772032349),24,3,1,yes,x,5,x,1.155044099999941,1,26,test1,3,1.1551703000004636,-42.0
14,chj,m,20,r,1,(-121.76378772032348, 121.76378772032349),24,5,2,no,m,6,m,0.8675766999949701,1,27,test1,3,0.8677276000089478,-42.0
14,chj,m,20,r,1,(172.20000000000002, 0.0),21,-25,14,yes,x,5,x,0.4725668999890331,1,28,test1,3,0.4726684000052046,-70.0
14,chj,m,20,r,1,(-172.20000000000002, 2.1088417881317425e-14),25,-7,13,yes,x,5,x,0.48843529999430757,1,29,test1,3,0.48861960000067484,-52.0
14,chj,m,20,r,1,(-121.76378772032348, 121.76378772032349),24,7,3,yes,x,5,x,0.5411943000071915,1,30,test1,3,0.5412858000054257,-38.0
14,chj,m,20,r,1,(1.0544208940658713e-14, 172.20000000000002),23,5,2,yes,x,5,x,0.4721661999938078,1,31,test1,3,0.4725305999891134,-40.0
14,chj,m,20,r,1,(172.20000000000002, 0.0),21,-7,13,yes,x,5,x,0.5170055999915348,1,32,test1,3,0.5171100000006845,-52.0
14,chj,m,20,r,1,(-121.76378772032348, 121.76378772032349),24,5,2,yes,x,5,x,0.5218722999998135,1,33,test1,3,0.5221296999952756,-40.0
14,chj,m,20,r,1,(-121.76378772032348, 121.76378772032349),24,-7,13,no,m,6,m,1.4394624999986263,1,34,test1,3,1.4397468999959528,-40.0
14,chj,m,20,r,1,(121.76378772032349, 121.76378772032349),22,-3,11,no,m,6,m,0.8082182000071043,1,35,test1,3,0.8083144999982323,-40.0
14,chj,m,20,r,1,(-121.76378772032352, -121.76378772032348),26,5,2,yes,x,5,x,0.6516517999989446,1,36,test1,3,0.651892299996689,-40.0
14,chj,m,20,r,1,(-172.20000000000002, 2.1088417881317425e-14),25,5,2,yes,x,5,x,0.5719937999965623,1,37,test1,3,0.572223800001666,-40.0
14,chj,m,20,r,1,(-3.163262682197613e-14, -172.20000000000002),27,-7,13,no,m,6,m,1.0634427000040887,1,38,test1,3,1.063830400002189,-40.0
14,chj,m,20,r,1,(1.0544208940658713e-14, 172.20000000000002),23,5,2,yes,x,5,x,0.5148312999954214,1,39,test1,3,0.5151339000003645,-40.0
14,chj,m,20,r,1,(1.0544208940658713e-14, 172.20000000000002),23,3,1,yes,x,5,x,0.6327359999995679,1,40,test1,3,0.6328385000088019,-42.0
14,chj,m,20,r,1,(-3.163262682197613e-14, -172.20000000000002),27,-5,12,no,m,6,m,0.7417221000068821,1,41,test1,3,0.7418857000011485,-42.0
14,chj,m,20,r,1,(172.20000000000002, 0.0),21,7,3,no,m,6,m,0.871553099990706,1,42,test1,3,0.8717920000053709,-42.0
14,chj,m,20,r,1,(1.0544208940658713e-14, 172.20000000000002),23,-25,14,yes,x,5,m,0.4327633000066271,0,43,test1,3,0.43304150000039954,-70.0
14,chj,m,20,r,1,(121.76378772032346, -121.76378772032352),28,-5,12,yes,x,5,x,0.6948554999980843,1,44,test1,3,0.6952675999928033,-50.0
14,chj,m,20,r,1,(1.0544208940658713e-14, 172.20000000000002),23,-5,12,yes,x,5,x,0.4176751999912085,1,45,test1,3,0.4179902000032598,-50.0
14,chj,m,20,r,1,(1.0544208940658713e-14, 172.20000000000002),23,-7,13,yes,x,5,x,0.5339555000100518,1,46,test1,3,0.5340584999939892,-52.0
14,chj,m,20,r,1,(121.76378772032349, 121.76378772032349),22,3,1,no,m,6,x,0.5961756999895442,0,47,test1,3,0.596274399998947,-52.0
14,chj,m,20,r,1,(-121.76378772032352, -121.76378772032348),26,7,3,yes,x,5,x,0.5385851000028197,1,48,test1,3,0.5387095000041882,-38.0
14,chj,m,20,r,1,(-172.20000000000002, 2.1088417881317425e-14),25,25,4,yes,x,5,x,0.44645840000885073,1,49,test1,3,0.44704620000266004,-20.0
14,chj,m,20,r,1,(172.20000000000002, 0.0),21,-3,11,yes,x,5,x,0.6981509000033839,1,50,test1,3,0.698379900000873,-48.0
14,chj,m,20,r,1,(-121.76378772032348, 121.76378772032349),24,-3,11,no,m,6,m,0.8757812999974703,1,51,test1,3,0.8759259000071324,-48.0
14,chj,m,20,r,1,(1.0544208940658713e-14, 172.20000000000002),23,7,3,no,m,6,m,1.192784799990477,1,52,test1,3,1.1929109000047902,-48.0
14,chj,m,20,r,1,(-3.163262682197613e-14, -172.20000000000002),27,5,2,no,m,6,m,1.1978825999976834,1,53,test1,3,1.1980495000025257,-48.0
14,chj,m,20,r,1,(1.0544208940658713e-14, 172.20000000000002),23,3,1,no,m,6,m,1.0275579999870388,1,54,test1,3,1.0278466000017943,-48.0
14,chj,m,20,r,1,(121.76378772032349, 121.76378772032349),22,-5,12,yes,x,5,x,0.5923961000080453,1,55,test1,3,0.5929868999955943,-50.0
14,chj,m,20,r,1,(172.20000000000002, 0.0),21,-7,13,yes,x,5,x,0.5739820000017062,1,56,test1,3,0.5741405000007944,-52.0
14,chj,m,20,r,1,(121.76378772032349, 121.76378772032349),22,7,3,no,m,6,m,1.2157299000100465,1,57,test1,3,1.2158344000054058,-52.0
14,chj,m,20,r,1,(121.76378772032346, -121.76378772032352),28,25,4,yes,x,5,x,0.4668126000033226,1,58,test1,3,0.46709170000394806,-20.0
14,chj,m,20,r,1,(-121.76378772032352, -121.76378772032348),26,-5,12,no,m,6,m,0.9092930000042543,1,59,test1,3,0.9094132999889553,-20.0
14,chj,m,20,r,1,(172.20000000000002, 0.0),21,-7,13,no,m,6,m,1.0245851000072435,1,60,test1,3,1.0247207000065828,-20.0
14,chj,m,20,r,1,(-3.163262682197613e-14, -172.20000000000002),27,7,3,yes,x,5,x,0.5904658000072232,1,61,test1,3,0.5905888999986928,-38.0
14,chj,m,20,r,1,(121.76378772032346, -121.76378772032352),28,5,2,yes,x,5,x,0.7218286999996053,1,62,test1,3,0.7221875999966869,-40.0
14,chj,m,20,r,1,(172.20000000000002, 0.0),21,3,1,no,m,6,m,0.8095725000021048,1,63,test1,3,0.8096948000020348,-40.0
14,chj,m,20,r,1,(-121.76378772032348, 121.76378772032349),24,-5,12,yes,x,5,x,0.5270267000014428,1,64,test1,3,0.5274446999974316,-50.0
14,chj,m,20,r,1,(-3.163262682197613e-14, -172.20000000000002),27,-7,13,yes,x,5,x,0.5514850000035949,1,65,test1,3,0.5522526999993715,-52.0
14,chj,m,20,r,1,(-172.20000000000002, 2.1088417881317425e-14),25,25,4,yes,x,5,x,0.6874791000009282,1,66,test1,3,0.6877007000002777,-20.0
14,chj,m,20,r,1,(121.76378772032349, 121.76378772032349),22,-7,13,yes,x,5,x,0.5420339999982389,1,67,test1,3,0.5422792000026675,-52.0
14,chj,m,20,r,1,(121.76378772032346, -121.76378772032352),28,-7,13,yes,x,5,x,0.5261156000051415,1,68,test1,3,0.5263292000017827,-52.0
14,chj,m,20,r,1,(1.0544208940658713e-14, 172.20000000000002),23,25,4,yes,x,5,x,0.4785607999947388,1,69,test1,3,0.4786853000114206,-20.0
14,chj,m,20,r,1,(-172.20000000000002, 2.1088417881317425e-14),25,-25,14,no,m,6,x,1.6385060000029625,0,70,test1,3,1.6387327999982517,-20.0
14,chj,m,20,r,1,(1.0544208940658713e-14, 172.20000000000002),23,-5,12,no,m,6,m,0.8198769000009634,1,71,test1,3,0.8203369999973802,-20.0
14,chj,m,20,r,1,(1.0544208940658713e-14, 172.20000000000002),23,5,2,no,m,6,m,0.584073999998509,1,72,test1,3,0.5843631000025198,-20.0
14,chj,m,20,r,1,(-3.163262682197613e-14, -172.20000000000002),27,7,3,no,m,6,m,0.6822409000014886,1,73,test1,3,0.6823414999962552,-20.0
14,chj,m,20,r,1,(-3.163262682197613e-14, -172.20000000000002),27,-25,14,yes,x,5,x,0.48581530000956263,1,74,test1,3,0.4859136999875773,-70.0
14,chj,m,20,r,1,(121.76378772032346, -121.76378772032352),28,5,2,yes,x,5,x,0.6194456000084756,1,75,test1,3,0.6198116000014124,-40.0
14,chj,m,20,r,1,(-121.76378772032348, 121.76378772032349),24,-3,11,yes,x,5,x,0.8912979000015184,1,76,test1,3,0.8914001999946777,-48.0
14,chj,m,20,r,1,(-121.76378772032352, -121.76378772032348),26,-25,14,yes,x,5,x,0.4735212999948999,1,77,test1,3,0.4738104999996722,-70.0
14,chj,m,20,r,1,(121.76378772032349, 121.76378772032349),22,5,2,yes,x,5,x,0.7811348000104772,1,78,test1,3,0.7815233000001172,-40.0
14,chj,m,20,r,1,(172.20000000000002, 0.0),21,-3,11,no,m,6,m,0.6839423999917926,1,79,test1,3,0.6841886000038357,-40.0
14,chj,m,20,r,1,(-3.163262682197613e-14, -172.20000000000002),27,3,1,yes,x,5,x,1.0475708999874769,1,80,test1,3,1.0477172999962931,-42.0
14,chj,m,20,r,1,(-172.20000000000002, 2.1088417881317425e-14),25,3,1,yes,x,5,x,0.6146225999982562,1,81,test1,3,0.6147844999941299,-42.0
14,chj,m,20,r,1,(121.76378772032349, 121.76378772032349),22,-3,11,yes,x,5,x,0.642043100000592,1,82,test1,3,0.6423297000001185,-48.0
14,chj,m,20,r,1,(1.0544208940658713e-14, 172.20000000000002),23,-3,11,yes,x,5,x,0.8062649000057718,1,83,test1,3,0.8063822999974946,-48.0
14,chj,m,20,r,1,(121.76378772032349, 121.76378772032349),22,25,4,no,m,6,m,1.047205099996063,1,84,test1,3,1.0475375999958487,-48.0
14,chj,m,20,r,1,(121.76378772032349, 121.76378772032349),22,7,3,yes,x,5,x,0.6471128999983193,1,85,test1,3,0.6472687999921618,-38.0
14,chj,m,20,r,1,(-121.76378772032352, -121.76378772032348),26,7,3,yes,x,5,x,0.5497663999994984,1,86,test1,3,0.5499646000098437,-38.0
14,chj,m,20,r,1,(-121.76378772032348, 121.76378772032349),24,7,3,no,m,6,m,1.124437400008901,1,87,test1,3,1.1245624000002863,-38.0
14,chj,m,20,r,1,(121.76378772032349, 121.76378772032349),22,-5,12,yes,x,5,x,0.6329657999885967,1,88,test1,3,0.633691800001543,-50.0
14,chj,m,20,r,1,(-3.163262682197613e-14, -172.20000000000002),27,25,4,no,m,6,m,0.9716340000013588,1,89,test1,3,0.9717372999875806,-50.0
14,chj,m,20,r,1,(-3.163262682197613e-14, -172.20000000000002),27,7,3,yes,x,5,x,0.6501446000038413,1,90,test1,3,0.6505016000010073,-38.0
14,chj,m,20,r,1,(1.0544208940658713e-14, 172.20000000000002),23,-25,14,yes,x,5,x,0.5689618000033079,1,91,test1,3,0.5690604999981588,-70.0
14,chj,m,20,r,1,(172.20000000000002, 0.0),21,3,1,yes,x,5,x,0.857906000004732,1,92,test1,3,0.8585706000012578,-42.0
14,chj,m,20,r,1,(121.76378772032346, -121.76378772032352),28,-3,11,yes,x,5,x,1.0716195999993943,1,93,test1,3,1.071853799992823,-48.0
14,chj,m,20,r,1,(-121.76378772032348, 121.76378772032349),24,7,3,yes,x,5,x,0.48831880000943784,1,94,test1,3,0.4885673999961,-38.0
14,chj,m,20,r,1,(121.76378772032346, -121.76378772032352),28,5,2,no,m,6,m,1.023142199992435,1,95,test1,3,1.0236560000048485,-38.0
14,chj,m,20,r,1,(121.76378772032349, 121.76378772032349),22,-7,13,no,m,6,x,1.1915621000080137,0,96,test1,3,1.1916663000010885,-38.0
14,chj,m,20,r,1,(-172.20000000000002, 2.1088417881317425e-14),25,5,2,no,m,6,m,0.9984924000018509,1,1,test2,3,0.9988735000079032,-38.0
14,chj,m,20,r,1,(-172.20000000000002, 2.1088417881317425e-14),25,25,4,no,m,6,m,1.2240402000024915,1,2,test2,3,1.2241677999991225,-38.0
14,chj,m,20,r,1,(-121.76378772032352, -121.76378772032348),26,-5,12,yes,x,5,x,0.5725922999990871,1,3,test2,3,0.5728914000064833,-50.0
14,chj,m,20,r,1,(-172.20000000000002, 2.1088417881317425e-14),25,-7,13,no,m,6,m,1.1763028999994276,1,4,test2,3,1.1765298999962397,-50.0
14,chj,m,20,r,1,(-172.20000000000002, 2.1088417881317425e-14),25,5,2,yes,x,5,x,1.1812902000092436,1,5,test2,3,1.1814199000073131,-40.0
14,chj,m,20,r,1,(-3.163262682197613e-14, -172.20000000000002),27,5,2,yes,x,5,x,0.8831628000043565,1,6,test2,3,0.8834459999925457,-40.0
14,chj,m,20,r,1,(172.20000000000002, 0.0),21,5,2,no,m,6,m,1.070025999986683,1,7,test2,3,1.0701259999914328,-40.0
14,chj,m,20,r,1,(121.76378772032346, -121.76378772032352),28,25,4,yes,x,5,x,0.844974399995408,1,8,test2,3,0.8450754999939818,-20.0
14,chj,m,20,r,1,(121.76378772032346, -121.76378772032352),28,-25,14,no,m,6,m,1.4687640000047395,1,9,test2,3,1.4690479999990202,-20.0
14,chj,m,20,r,1,(-121.76378772032348, 121.76378772032349),24,-3,11,yes,x,5,x,0.9220396999880904,1,10,test2,3,0.9221984000032535,-48.0
14,chj,m,20,r,1,(121.76378772032346, -121.76378772032352),28,7,3,no,m,6,m,1.3033417999977246,1,11,test2,3,1.3034439999901224,-48.0
14,chj,m,20,r,1,(-172.20000000000002, 2.1088417881317425e-14),25,3,1,yes,x,5,x,0.7294045000016922,1,12,test2,3,0.7297849000024144,-42.0
14,chj,m,20,r,1,(121.76378772032346, -121.76378772032352),28,3,1,no,m,6,m,1.2164324000041233,1,13,test2,3,1.2165328000119189,-42.0
14,chj,m,20,r,1,(-121.76378772032352, -121.76378772032348),26,-7,13,yes,x,5,x,1.9493677000136813,1,14,test2,3,1.9497429999901215,-52.0
14,chj,m,20,r,1,(-3.163262682197613e-14, -172.20000000000002),27,-7,13,yes,x,5,x,0.8940598000044702,1,15,test2,3,0.8945450000028359,-52.0
14,chj,m,20,r,1,(-172.20000000000002, 2.1088417881317425e-14),25,-7,13,yes,x,5,x,0.5451345000037691,1,16,test2,3,0.5452322000055574,-52.0
14,chj,m,20,r,1,(-172.20000000000002, 2.1088417881317425e-14),25,7,3,yes,x,5,x,0.5016093000012916,1,17,test2,3,0.5017919999954756,-38.0
14,chj,m,20,r,1,(121.76378772032346, -121.76378772032352),28,-25,14,yes,x,5,x,0.6081413000065368,1,18,test2,3,0.6083838000049582,-70.0
14,chj,m,20,r,1,(121.76378772032349, 121.76378772032349),22,3,1,yes,x,5,x,1.1627047999936622,1,19,test2,3,1.162833700000192,-42.0
14,chj,m,20,r,1,(-121.76378772032352, -121.76378772032348),26,5,2,yes,x,5,x,0.5195126000035089,1,20,test2,3,0.5196231000008993,-40.0
14,chj,m,20,r,1,(-3.163262682197613e-14, -172.20000000000002),27,3,1,yes,x,5,x,0.9822548999945866,1,21,test2,3,0.982355500003905,-42.0
14,chj,m,20,r,1,(-121.76378772032352, -121.76378772032348),26,-3,11,no,m,6,m,0.8103854000073625,1,22,test2,3,0.8104832999961218,-42.0
14,chj,m,20,r,1,(1.0544208940658713e-14, 172.20000000000002),23,-25,14,no,m,6,m,0.8625030999974115,1,23,test2,3,0.8626359999907436,-42.0
14,chj,m,20,r,1,(-172.20000000000002, 2.1088417881317425e-14),25,7,3,yes,x,5,x,0.510876600004849,1,24,test2,3,0.5111501000064891,-38.0
14,chj,m,20,r,1,(172.20000000000002, 0.0),21,5,2,yes,x,5,x,0.7190725999971619,1,25,test2,3,0.7195345999934943,-40.0
14,chj,m,20,r,1,(-121.76378772032348, 121.76378772032349),24,-5,12,yes,x,5,x,0.4952846999949543,1,26,test2,3,0.4955991000024369,-50.0
14,chj,m,20,r,1,(121.76378772032346, -121.76378772032352),28,-25,14,yes,x,5,x,0.4851813999994192,1,27,test2,3,0.48528010000882205,-70.0
14,chj,m,20,r,1,(121.76378772032349, 121.76378772032349),22,5,2,yes,x,5,x,0.6626969000062672,1,28,test2,3,0.6627937000012025,-40.0
14,chj,m,20,r,1,(1.0544208940658713e-14, 172.20000000000002),23,25,4,yes,x,5,x,0.4981365999992704,1,29,test2,3,0.4982979000051273,-20.0
14,chj,m,20,r,1,(-172.20000000000002, 2.1088417881317425e-14),25,-3,11,yes,x,5,x,1.2801612000039313,1,30,test2,3,1.280280799997854,-48.0
14,chj,m,20,r,1,(121.76378772032346, -121.76378772032352),28,3,1,yes,x,5,x,0.6447382000042126,1,31,test2,3,0.6449018000130309,-42.0
14,chj,m,20,r,1,(-3.163262682197613e-14, -172.20000000000002),27,5,2,yes,x,5,x,0.5651982999988832,1,32,test2,3,0.5653265000000829,-40.0
14,chj,m,20,r,1,(-121.76378772032352, -121.76378772032348),26,-25,14,yes,x,5,x,0.4453477000060957,1,33,test2,3,0.44556700000248384,-70.0
14,chj,m,20,r,1,(-121.76378772032352, -121.76378772032348),26,3,1,yes,x,5,m,0.6526622000092175,0,34,test2,3,0.6530987000005553,-42.0
14,chj,m,20,r,1,(-121.76378772032348, 121.76378772032349),24,5,2,yes,x,5,x,0.8230871999985538,1,35,test2,3,0.8234841999947093,-40.0
14,chj,m,20,r,1,(172.20000000000002, 0.0),21,25,4,yes,x,5,x,0.45972009999968577,1,36,test2,3,0.45982269999512937,-20.0
14,chj,m,20,r,1,(1.0544208940658713e-14, 172.20000000000002),23,-3,11,yes,x,5,x,0.8156010000093374,1,37,test2,3,0.8157850999996299,-48.0
14,chj,m,20,r,1,(-3.163262682197613e-14, -172.20000000000002),27,25,4,yes,x,5,x,0.5468805000127759,1,38,test2,3,0.5469920999894384,-20.0
14,chj,m,20,r,1,(1.0544208940658713e-14, 172.20000000000002),23,-5,12,yes,x,5,x,0.5536648999986937,1,39,test2,3,0.553797400003532,-50.0
14,chj,m,20,r,1,(121.76378772032346, -121.76378772032352),28,-3,11,no,m,6,m,1.0707889000041177,1,40,test2,3,1.0710585999913746,-50.0
14,chj,m,20,r,1,(1.0544208940658713e-14, 172.20000000000002),23,25,4,no,m,6,m,1.4235153999907197,1,41,test2,3,1.424144200005685,-50.0
14,chj,m,20,r,1,(-121.76378772032352, -121.76378772032348),26,-5,12,yes,x,5,x,0.6259878999990178,1,42,test2,3,0.6262705999979516,-50.0
14,chj,m,20,r,1,(-121.76378772032352, -121.76378772032348),26,-3,11,yes,x,5,x,1.0655760999943595,1,43,test2,3,1.0659848999930546,-48.0
14,chj,m,20,r,1,(121.76378772032349, 121.76378772032349),22,3,1,yes,x,5,x,0.8633874999941327,1,44,test2,3,0.8635492999892449,-42.0
14,chj,m,20,r,1,(172.20000000000002, 0.0),21,-25,14,no,m,6,m,1.4469546000036644,1,45,test2,3,1.4471714000101201,-42.0
14,chj,m,20,r,1,(-121.76378772032348, 121.76378772032349),24,3,1,no,m,6,m,0.8641172999923583,1,46,test2,3,0.8642173999978695,-42.0
14,chj,m,20,r,1,(-172.20000000000002, 2.1088417881317425e-14),25,7,3,no,m,6,m,0.9543496999976924,1,47,test2,3,0.9544502000062494,-42.0
14,chj,m,20,r,1,(-121.76378772032352, -121.76378772032348),26,-7,13,no,m,6,m,0.8296335000050021,1,48,test2,3,0.8297468000091612,-42.0
14,chj,m,20,r,1,(121.76378772032349, 121.76378772032349),22,-25,14,yes,x,5,x,0.43990199999825563,1,49,test2,3,0.4402582999900915,-70.0
14,chj,m,20,r,1,(172.20000000000002, 0.0),21,25,4,no,m,6,m,1.2939193000056548,1,50,test2,3,1.2941989000100875,-70.0
14,chj,m,20,r,1,(-172.20000000000002, 2.1088417881317425e-14),25,-25,14,yes,x,5,x,0.42604130000108853,1,51,test2,3,0.4262713999924017,-70.0
14,chj,m,20,r,1,(-172.20000000000002, 2.1088417881317425e-14),25,3,1,no,m,6,m,0.8598640999989584,1,52,test2,3,0.8599966000037966,-70.0
14,chj,m,20,r,1,(-121.76378772032352, -121.76378772032348),26,3,1,yes,x,5,x,0.9595266999967862,1,53,test2,3,0.9598925000027521,-42.0
14,chj,m,20,r,1,(121.76378772032346, -121.76378772032352),28,-7,13,yes,x,5,x,0.6422384000034072,1,54,test2,3,0.6428658999939216,-52.0
14,chj,m,20,r,1,(121.76378772032349, 121.76378772032349),22,25,4,yes,x,5,x,0.5034673999907682,1,55,test2,3,0.5035699000000022,-20.0
14,chj,m,20,r,1,(-121.76378772032348, 121.76378772032349),24,-25,14,yes,x,5,x,0.3898090000002412,1,56,test2,3,0.39002970000728965,-70.0
14,chj,m,20,r,1,(-3.163262682197613e-14, -172.20000000000002),27,25,4,yes,x,5,x,0.44924149999860674,1,57,test2,3,0.4497242999932496,-20.0
14,chj,m,20,r,1,(-121.76378772032348, 121.76378772032349),24,-5,12,no,m,6,m,0.6255151000077603,1,58,test2,3,0.6256820999988122,-20.0
14,chj,m,20,r,1,(-3.163262682197613e-14, -172.20000000000002),27,-3,11,no,m,6,m,1.1134350999927847,1,59,test2,3,1.1135703999898396,-20.0
14,chj,m,20,r,1,(-3.163262682197613e-14, -172.20000000000002),27,-25,14,yes,x,5,x,0.5481202999944799,1,60,test2,3,0.5484481999883428,-70.0
14,chj,m,20,r,1,(-172.20000000000002, 2.1088417881317425e-14),25,-5,12,no,m,6,m,0.9380392999883043,1,61,test2,3,0.9381358999962686,-70.0
14,chj,m,20,r,1,(-172.20000000000002, 2.1088417881317425e-14),25,-5,12,yes,x,5,x,0.925087399999029,1,62,test2,3,0.9251949000026798,-50.0
14,chj,m,20,r,1,(172.20000000000002, 0.0),21,25,4,yes,x,5,x,0.6057424000027822,1,63,test2,3,0.6058415000006789,-20.0
14,chj,m,20,r,1,(172.20000000000002, 0.0),21,-5,12,yes,x,5,x,0.5581738999899244,1,64,test2,3,0.5582673000026261,-50.0
14,chj,m,20,r,1,(-121.76378772032352, -121.76378772032348),26,-3,11,yes,x,5,x,0.8960146000026725,1,65,test2,3,0.8966766000085045,-48.0
14,chj,m,20,r,1,(121.76378772032346, -121.76378772032352),28,7,3,yes,x,5,x,0.5640688000130467,1,66,test2,3,0.5641648999880999,-38.0
14,chj,m,20,r,1,(-3.163262682197613e-14, -172.20000000000002),27,-5,12,yes,x,5,x,0.758086199988611,1,67,test2,3,0.7582449999899836,-50.0
14,chj,m,20,r,1,(-172.20000000000002, 2.1088417881317425e-14),25,-5,12,yes,x,5,x,0.4763684999925317,1,68,test2,3,0.47667509999882895,-50.0
14,chj,m,20,r,1,(1.0544208940658713e-14, 172.20000000000002),23,-7,13,no,m,6,m,0.7258051000098931,1,69,test2,3,0.7259488999989117,-50.0
14,chj,m,20,r,1,(-121.76378772032352, -121.76378772032348),26,25,4,yes,x,5,x,0.48355079999601003,1,70,test2,3,0.48367260000668466,-20.0
14,chj,m,20,r,1,(1.0544208940658713e-14, 172.20000000000002),23,7,3,yes,x,5,x,0.6197066999884555,1,71,test2,3,0.6200244999927236,-38.0
14,chj,m,20,r,1,(-121.76378772032348, 121.76378772032349),24,25,4,no,m,6,m,0.8235155000002123,1,72,test2,3,0.8237991000059992,-38.0
14,chj,m,20,r,1,(172.20000000000002, 0.0),21,3,1,yes,x,5,x,1.5150827000034042,1,73,test2,3,1.5153451000078348,-42.0
14,chj,m,20,r,1,(-121.76378772032348, 121.76378772032349),24,25,4,yes,x,5,x,0.49593520000053104,1,74,test2,3,0.49603639999986626,-20.0
14,chj,m,20,r,1,(121.76378772032346, -121.76378772032352),28,7,3,yes,x,5,x,0.6347368999995524,1,75,test2,3,0.6348697999928845,-38.0
14,chj,m,20,r,1,(-121.76378772032352, -121.76378772032348),26,-25,14,no,m,6,m,1.1077130999910878,1,76,test2,3,1.1084330000012415,-38.0
14,chj,m,20,r,1,(121.76378772032349, 121.76378772032349),22,-5,12,no,m,6,m,1.0349320999957854,1,77,test2,3,1.0350327999913134,-38.0
14,chj,m,20,r,1,(-121.76378772032348, 121.76378772032349),24,3,1,yes,x,5,x,0.7706459000037285,1,78,test2,3,0.7708099000010407,-42.0
14,chj,m,20,r,1,(-3.163262682197613e-14, -172.20000000000002),27,-25,14,no,m,6,m,0.6386122999974759,1,79,test2,3,0.6389649999910034,-42.0
14,chj,m,20,r,1,(172.20000000000002, 0.0),21,-25,14,yes,x,5,x,0.45170980000693817,1,80,test2,3,0.45256910000171047,-70.0
14,chj,m,20,r,1,(172.20000000000002, 0.0),21,7,3,yes,x,5,x,0.436573099999805,1,81,test2,3,0.4369326000014553,-38.0
14,chj,m,20,r,1,(-172.20000000000002, 2.1088417881317425e-14),25,-25,14,yes,x,5,x,0.437810499992338,1,82,test2,3,0.4379015000013169,-70.0
14,chj,m,20,r,1,(121.76378772032349, 121.76378772032349),22,25,4,yes,x,5,x,0.4067112999910023,1,83,test2,3,0.40753559999575373,-20.0
14,chj,m,20,r,1,(-121.76378772032352, -121.76378772032348),26,5,2,no,m,6,m,0.5441537000006065,1,84,test2,3,0.5442783000034979,-20.0
14,chj,m,20,r,1,(121.76378772032349, 121.76378772032349),22,-7,13,yes,x,5,x,0.42341009998926893,1,85,test2,3,0.42355820001102984,-52.0
14,chj,m,20,r,1,(1.0544208940658713e-14, 172.20000000000002),23,-3,11,no,m,6,m,0.6624688999872888,1,86,test2,3,0.6625736999994842,-52.0
14,chj,m,20,r,1,(172.20000000000002, 0.0),21,7,3,yes,x,5,x,0.7329250000038883,1,87,test2,3,0.7330794000008609,-38.0
14,chj,m,20,r,1,(-121.76378772032352, -121.76378772032348),26,-7,13,yes,x,5,x,0.5302131999924313,1,88,test2,3,0.5304582999960985,-52.0
14,chj,m,20,r,1,(-121.76378772032352, -121.76378772032348),26,25,4,no,m,6,m,0.7812373999913689,1,89,test2,3,0.7814945999998599,-52.0
14,chj,m,20,r,1,(121.76378772032349, 121.76378772032349),22,-25,14,no,m,6,m,0.6717606000020169,1,90,test2,3,0.6720304000045871,-52.0
14,chj,m,20,r,1,(121.76378772032346, -121.76378772032352),28,-7,13,no,m,6,m,0.6873357000004034,1,91,test2,3,0.6874376000050688,-52.0
14,chj,m,20,r,1,(1.0544208940658713e-14, 172.20000000000002),23,3,1,yes,x,5,x,0.6893848999898182,1,92,test2,3,0.6896482999873115,-42.0
14,chj,m,20,r,1,(-121.76378772032348, 121.76378772032349),24,-25,14,yes,x,5,x,0.4312881999940146,1,93,test2,3,0.4313923000008799,-70.0
14,chj,m,20,r,1,(-172.20000000000002, 2.1088417881317425e-14),25,-3,11,no,m,6,m,0.8061990999995032,1,94,test2,3,0.8068837999890093,-70.0
14,chj,m,20,r,1,(-121.76378772032348, 121.76378772032349),24,-7,13,yes,x,5,x,0.5401110000093468,1,95,test2,3,0.5402099000057206,-52.0
14,chj,m,20,r,1,(-3.163262682197613e-14, -172.20000000000002),27,3,1,no,m,6,m,0.7371973000117578,1,96,test2,3,0.7375459999893792,-52.0
14,chj,m,20,r,1,(1.0544208940658713e-14, 172.20000000000002),23,7,3,yes,x,5,x,0.5816680999996606,1,1,test1,4,0.5818857999984175,-38.0
14,chj,m,20,r,1,(-121.76378772032348, 121.76378772032349),24,25,4,yes,x,5,x,0.4418303999991622,1,2,test1,4,0.4421159999910742,-20.0
14,chj,m,20,r,1,(121.76378772032346, -121.76378772032352),28,-3,11,yes,x,5,x,0.8734345999982907,1,3,test1,4,0.8735547999967821,-48.0
14,chj,m,20,r,1,(-3.163262682197613e-14, -172.20000000000002),27,-3,11,yes,x,5,x,0.6002912999974797,1,4,test1,4,0.6004028000024846,-48.0
14,chj,m,20,r,1,(121.76378772032349, 121.76378772032349),22,-3,11,yes,x,5,x,0.6851287000026787,1,5,test1,4,0.6854256999940844,-48.0
14,chj,m,20,r,1,(121.76378772032349, 121.76378772032349),22,5,2,no,m,6,x,1.4588636999978917,0,6,test1,4,1.459091199998511,-48.0
14,chj,m,20,r,1,(-121.76378772032352, -121.76378772032348),26,3,1,no,m,6,m,1.3318082000041613,1,7,test1,4,1.3320193999970797,-48.0
14,chj,m,20,r,1,(121.76378772032346, -121.76378772032352),28,-5,12,no,m,6,m,1.0354711000109091,1,8,test1,4,1.035711899996386,-48.0
14,chj,m,20,r,1,(172.20000000000002, 0.0),21,5,2,yes,x,5,x,0.5803273000055924,1,9,test1,4,0.5807929000002332,-40.0
14,chj,m,20,r,1,(121.76378772032346, -121.76378772032352),28,-5,12,yes,x,5,x,0.6826423000020441,1,10,test1,4,0.682859600012307,-50.0
14,chj,m,20,r,1,(172.20000000000002, 0.0),21,-3,11,yes,x,5,x,0.7654856000008294,1,11,test1,4,0.7656013000087114,-48.0
14,chj,m,20,r,1,(-121.76378772032352, -121.76378772032348),26,25,4,yes,x,5,x,0.6410601999959908,1,12,test1,4,0.6412796999939019,-20.0
14,chj,m,20,r,1,(-121.76378772032348, 121.76378772032349),24,-25,14,no,m,6,m,1.1350294000003487,1,13,test1,4,1.1353615000116406,-20.0
14,chj,m,20,r,1,(-172.20000000000002, 2.1088417881317425e-14),25,-3,11,yes,x,5,x,0.5662403000023915,1,14,test1,4,0.5665046000067377,-48.0
14,chj,m,20,r,1,(1.0544208940658713e-14, 172.20000000000002),23,-7,13,yes,x,5,x,0.47707059999811463,1,15,test1,4,0.47735370000009425,-52.0
14,chj,m,20,r,1,(-3.163262682197613e-14, -172.20000000000002),27,-5,12,yes,x,5,x,0.5628014999965671,1,16,test1,4,0.5629756999987876,-50.0
14,chj,m,20,r,1,(121.76378772032346, -121.76378772032352),28,3,1,yes,x,5,x,0.7963773999945261,1,17,test1,4,0.7966636000055587,-42.0
14,chj,m,20,r,1,(-3.163262682197613e-14, -172.20000000000002),27,-3,11,yes,x,5,x,0.6399884999991627,1,18,test1,4,0.6402771000139182,-48.0
14,chj,m,20,r,1,(121.76378772032349, 121.76378772032349),22,-25,14,yes,x,5,x,0.4436602999921888,1,19,test1,4,0.44459689999348484,-70.0
14,chj,m,20,r,1,(121.76378772032346, -121.76378772032352),28,25,4,no,m,6,m,1.037921400013147,1,20,test1,4,1.0380459999869345,-70.0
14,chj,m,20,r,1,(-121.76378772032348, 121.76378772032349),24,-7,13,yes,x,5,x,0.6436317000043346,1,21,test1,4,0.6437295000068843,-52.0
14,chj,m,20,r,1,(172.20000000000002, 0.0),21,-5,12,no,m,6,m,1.341704499995103,1,22,test1,4,1.3418021999968914,-52.0
14,chj,m,20,r,1,(121.76378772032349, 121.76378772032349),22,7,3,yes,x,5,x,0.4953304999944521,1,23,test1,4,0.4955731000081869,-38.0
14,chj,m,20,r,1,(172.20000000000002, 0.0),21,-5,12,yes,x,5,x,0.6117446999996901,1,24,test1,4,0.6120167000044603,-50.0
14,chj,m,20,r,1,(-121.76378772032352, -121.76378772032348),26,7,3,no,m,6,m,0.9714114999951562,1,25,test1,4,0.9718678000062937,-50.0
14,chj,m,20,r,1,(-121.76378772032348, 121.76378772032349),24,3,1,yes,x,5,x,0.7072601999971084,1,26,test1,4,0.7074532999977237,-42.0
14,chj,m,20,r,1,(-121.76378772032348, 121.76378772032349),24,5,2,no,m,6,m,0.7903576999960933,1,27,test1,4,0.7908107999974163,-42.0
14,chj,m,20,r,1,(172.20000000000002, 0.0),21,-25,14,yes,x,5,x,0.4786062000057427,1,28,test1,4,0.47874079999746755,-70.0
14,chj,m,20,r,1,(-172.20000000000002, 2.1088417881317425e-14),25,-7,13,yes,x,5,x,0.4626520000019809,1,29,test1,4,0.4627698000113014,-52.0
14,chj,m,20,r,1,(-121.76378772032348, 121.76378772032349),24,7,3,yes,x,5,x,0.48471210000570863,1,30,test1,4,0.4849448999884771,-38.0
14,chj,m,20,r,1,(1.0544208940658713e-14, 172.20000000000002),23,5,2,yes,x,5,x,0.9266593999927863,1,31,test1,4,0.9268091999983881,-40.0
14,chj,m,20,r,1,(172.20000000000002, 0.0),21,-7,13,yes,x,5,x,0.4753105999989202,1,32,test1,4,0.4754131000081543,-52.0
14,chj,m,20,r,1,(-121.76378772032348, 121.76378772032349),24,5,2,yes,x,5,x,0.4949802000046475,1,33,test1,4,0.49520940000365954,-40.0
14,chj,m,20,r,1,(-121.76378772032348, 121.76378772032349),24,-7,13,no,m,6,m,1.0054339000053005,1,34,test1,4,1.0062959999922896,-40.0
14,chj,m,20,r,1,(121.76378772032349, 121.76378772032349),22,-3,11,no,m,6,m,1.1662206000037258,1,35,test1,4,1.1663368000008631,-40.0
14,chj,m,20,r,1,(-121.76378772032352, -121.76378772032348),26,5,2,yes,x,5,x,0.6061155000061262,1,36,test1,4,0.6062135999964084,-40.0
14,chj,m,20,r,1,(-172.20000000000002, 2.1088417881317425e-14),25,5,2,yes,x,5,x,0.6752238000044599,1,37,test1,4,0.6754782999923918,-40.0
14,chj,m,20,r,1,(-3.163262682197613e-14, -172.20000000000002),27,-7,13,no,m,6,m,1.0191799000022002,1,38,test1,4,1.0193918000004487,-40.0
14,chj,m,20,r,1,(1.0544208940658713e-14, 172.20000000000002),23,5,2,yes,x,5,x,0.778861800004961,1,39,test1,4,0.7792915999889374,-40.0
14,chj,m,20,r,1,(1.0544208940658713e-14, 172.20000000000002),23,3,1,yes,x,5,x,0.8924400999967474,1,40,test1,4,0.8926730000093812,-42.0
14,chj,m,20,r,1,(-3.163262682197613e-14, -172.20000000000002),27,-5,12,no,m,6,m,0.9063238999951864,1,41,test1,4,0.9064260000013746,-42.0
14,chj,m,20,r,1,(172.20000000000002, 0.0),21,7,3,no,m,6,m,0.8809082999941893,1,42,test1,4,0.8812546999979531,-42.0
14,chj,m,20,r,1,(1.0544208940658713e-14, 172.20000000000002),23,-25,14,yes,x,5,x,0.4555809000012232,1,43,test1,4,0.4558645999932196,-70.0
14,chj,m,20,r,1,(121.76378772032346, -121.76378772032352),28,-5,12,yes,x,5,x,0.6362182000011671,1,44,test1,4,0.6364448999956949,-50.0
14,chj,m,20,r,1,(1.0544208940658713e-14, 172.20000000000002),23,-5,12,yes,x,5,x,0.4816085999918869,1,45,test1,4,0.48218040000938345,-50.0
14,chj,m,20,r,1,(1.0544208940658713e-14, 172.20000000000002),23,-7,13,yes,x,5,x,0.6170476999977836,1,46,test1,4,0.6172976000088966,-52.0
14,chj,m,20,r,1,(121.76378772032349, 121.76378772032349),22,3,1,no,m,6,m,1.6909470000100555,1,47,test1,4,1.6910847000108333,-52.0
14,chj,m,20,r,1,(-121.76378772032352, -121.76378772032348),26,7,3,yes,x,5,x,0.6386578999954509,1,48,test1,4,0.6388200999936089,-38.0
14,chj,m,20,r,1,(-172.20000000000002, 2.1088417881317425e-14),25,25,4,yes,x,5,x,0.3684782000054838,1,49,test1,4,0.3685895999951754,-20.0
14,chj,m,20,r,1,(172.20000000000002, 0.0),21,-3,11,yes,x,5,x,0.5810526999994181,1,50,test1,4,0.5813534999906551,-48.0
14,chj,m,20,r,1,(-121.76378772032348, 121.76378772032349),24,-3,11,no,m,6,m,1.2818327999993926,1,51,test1,4,1.2819286000012653,-48.0
14,chj,m,20,r,1,(1.0544208940658713e-14, 172.20000000000002),23,7,3,no,m,6,m,0.6709558000002289,1,52,test1,4,0.6712482000002638,-48.0
14,chj,m,20,r,1,(-3.163262682197613e-14, -172.20000000000002),27,5,2,no,m,6,m,0.7921190999913961,1,53,test1,4,0.7922186999931,-48.0
14,chj,m,20,r,1,(1.0544208940658713e-14, 172.20000000000002),23,3,1,no,m,6,x,0.8165003000030993,0,54,test1,4,0.8165989999979502,-48.0
14,chj,m,20,r,1,(121.76378772032349, 121.76378772032349),22,-5,12,yes,x,5,x,0.7175803999998607,1,55,test1,4,0.7176776999986032,-50.0
14,chj,m,20,r,1,(172.20000000000002, 0.0),21,-7,13,yes,x,5,x,0.7591791000013473,1,56,test1,4,0.759391700004926,-52.0
14,chj,m,20,r,1,(121.76378772032349, 121.76378772032349),22,7,3,no,m,6,m,0.7189274999982445,1,57,test1,4,0.7190902000002097,-52.0
14,chj,m,20,r,1,(121.76378772032346, -121.76378772032352),28,25,4,yes,x,5,x,0.4592448999901535,1,58,test1,4,0.45995839999523014,-20.0
14,chj,m,20,r,1,(-121.76378772032352, -121.76378772032348),26,-5,12,no,m,6,m,0.7784973999951035,1,59,test1,4,0.7785992999997688,-20.0
14,chj,m,20,r,1,(172.20000000000002, 0.0),21,-7,13,no,m,6,m,0.6771488999947906,1,60,test1,4,0.6772411000129068,-20.0
14,chj,m,20,r,1,(-3.163262682197613e-14, -172.20000000000002),27,7,3,yes,x,5,x,0.5940865000011399,1,61,test1,4,0.5943246999959229,-38.0
14,chj,m,20,r,1,(121.76378772032346, -121.76378772032352),28,5,2,yes,x,5,x,0.6116154000046663,1,62,test1,4,0.6117424999974901,-40.0
14,chj,m,20,r,1,(172.20000000000002, 0.0),21,3,1,no,m,6,m,0.7520730999967782,1,63,test1,4,0.7525957000034396,-40.0
14,chj,m,20,r,1,(-121.76378772032348, 121.76378772032349),24,-5,12,yes,x,5,x,0.5239998000033665,1,64,test1,4,0.5241110000060871,-50.0
14,chj,m,20,r,1,(-3.163262682197613e-14, -172.20000000000002),27,-7,13,yes,x,5,x,0.6073735999962082,1,65,test1,4,0.6076581999950577,-52.0
14,chj,m,20,r,1,(-172.20000000000002, 2.1088417881317425e-14),25,25,4,yes,x,5,x,0.4387549999955809,1,66,test1,4,0.4389948999887565,-20.0
14,chj,m,20,r,1,(121.76378772032349, 121.76378772032349),22,-7,13,yes,x,5,x,0.5482024999946589,1,67,test1,4,0.5484220000071218,-52.0
14,chj,m,20,r,1,(121.76378772032346, -121.76378772032352),28,-7,13,yes,x,5,x,0.49189810000825673,1,68,test1,4,0.4919947000016691,-52.0
14,chj,m,20,r,1,(1.0544208940658713e-14, 172.20000000000002),23,25,4,yes,x,5,x,0.48848119999456685,1,69,test1,4,0.48860769999737386,-20.0
14,chj,m,20,r,1,(-172.20000000000002, 2.1088417881317425e-14),25,-25,14,no,m,6,m,0.8486749000003329,1,70,test1,4,0.8491747999942163,-20.0
14,chj,m,20,r,1,(1.0544208940658713e-14, 172.20000000000002),23,-5,12,no,m,6,m,0.9514590000035241,1,71,test1,4,0.9519684999977471,-20.0
14,chj,m,20,r,1,(1.0544208940658713e-14, 172.20000000000002),23,5,2,no,m,6,m,0.7475770000019111,1,72,test1,4,0.7478513000096427,-20.0
14,chj,m,20,r,1,(-3.163262682197613e-14, -172.20000000000002),27,7,3,no,m,6,m,1.0206973000022117,1,73,test1,4,1.0209290999919176,-20.0
14,chj,m,20,r,1,(-3.163262682197613e-14, -172.20000000000002),27,-25,14,yes,x,5,x,0.663257899999735,1,74,test1,4,0.6637698999984423,-70.0
14,chj,m,20,r,1,(121.76378772032346, -121.76378772032352),28,5,2,yes,x,5,x,0.8469848000095226,1,75,test1,4,0.8470784000091953,-40.0
14,chj,m,20,r,1,(-121.76378772032348, 121.76378772032349),24,-3,11,yes,x,5,x,0.8209686999907717,1,76,test1,4,0.8211784000013722,-48.0
14,chj,m,20,r,1,(-121.76378772032352, -121.76378772032348),26,-25,14,yes,x,5,x,0.5508957000129158,1,77,test1,4,0.5511829999886686,-70.0
14,chj,m,20,r,1,(121.76378772032349, 121.76378772032349),22,5,2,yes,x,5,x,0.5898120000056224,1,78,test1,4,0.5900325999973575,-40.0
14,chj,m,20,r,1,(172.20000000000002, 0.0),21,-3,11,no,m,6,m,1.056647499994142,1,79,test1,4,1.0569748999987496,-40.0
14,chj,m,20,r,1,(-3.163262682197613e-14, -172.20000000000002),27,3,1,yes,x,5,x,0.8310335999995004,1,80,test1,4,0.8313589000026695,-42.0
14,chj,m,20,r,1,(-172.20000000000002, 2.1088417881317425e-14),25,3,1,yes,x,5,x,0.6245626000018092,1,81,test1,4,0.6247846000042045,-42.0
14,chj,m,20,r,1,(121.76378772032349, 121.76378772032349),22,-3,11,yes,x,5,x,0.7128216000128305,1,82,test1,4,0.7130835999996634,-48.0
14,chj,m,20,r,1,(1.0544208940658713e-14, 172.20000000000002),23,-3,11,yes,x,5,x,1.2246019000012893,1,83,test1,4,1.2247140999970725,-48.0
14,chj,m,20,r,1,(121.76378772032349, 121.76378772032349),22,25,4,no,m,6,m,0.8340791999944486,1,84,test1,4,0.8342120000015711,-48.0
14,chj,m,20,r,1,(121.76378772032349, 121.76378772032349),22,7,3,yes,x,5,x,0.6316499000095064,1,85,test1,4,0.6317533000110416,-38.0
14,chj,m,20,r,1,(-121.76378772032352, -121.76378772032348),26,7,3,yes,x,5,x,0.6306560999946669,1,86,test1,4,0.6312796999991406,-38.0
14,chj,m,20,r,1,(-121.76378772032348, 121.76378772032349),24,7,3,no,m,6,m,0.8212997999944491,1,87,test1,4,0.8214164999953937,-38.0
14,chj,m,20,r,1,(121.76378772032349, 121.76378772032349),22,-5,12,yes,x,5,x,0.6170153000130085,1,88,test1,4,0.6172409999999218,-50.0
14,chj,m,20,r,1,(-3.163262682197613e-14, -172.20000000000002),27,25,4,no,m,6,m,0.8203172999928938,1,89,test1,4,0.8204329000000143,-50.0
14,chj,m,20,r,1,(-3.163262682197613e-14, -172.20000000000002),27,7,3,yes,x,5,x,0.523928499998874,1,90,test1,4,0.5240824000065913,-38.0
14,chj,m,20,r,1,(1.0544208940658713e-14, 172.20000000000002),23,-25,14,yes,x,5,x,0.4273243000061484,1,91,test1,4,0.42742019999423064,-70.0
14,chj,m,20,r,1,(172.20000000000002, 0.0),21,3,1,yes,x,5,x,1.5247276999871247,1,92,test1,4,1.524823399988236,-42.0
14,chj,m,20,r,1,(121.76378772032346, -121.76378772032352),28,-3,11,yes,x,5,x,0.9171500999946147,1,93,test1,4,0.9178077999968082,-48.0
14,chj,m,20,r,1,(-121.76378772032348, 121.76378772032349),24,7,3,yes,x,5,x,0.45114030000695493,1,94,test1,4,0.4512548000056995,-38.0
14,chj,m,20,r,1,(121.76378772032346, -121.76378772032352),28,5,2,no,m,6,m,0.9365806999994675,1,95,test1,4,0.9369805000023916,-38.0
14,chj,m,20,r,1,(121.76378772032349, 121.76378772032349),22,-7,13,no,m,6,m,1.108971499998006,1,96,test1,4,1.1091914999997243,-38.0
14,chj,m,20,r,1,(-172.20000000000002, 2.1088417881317425e-14),25,5,2,no,m,6,m,0.9645236999931512,1,1,test2,4,0.9647855000075651,-38.0
14,chj,m,20,r,1,(-172.20000000000002, 2.1088417881317425e-14),25,25,4,no,m,6,m,0.5517459000111558,1,2,test2,4,0.5521166000107769,-38.0
14,chj,m,20,r,1,(-121.76378772032352, -121.76378772032348),26,-5,12,yes,x,5,x,0.5160776999982772,1,3,test2,4,0.5162618000031216,-50.0
14,chj,m,20,r,1,(-172.20000000000002, 2.1088417881317425e-14),25,-7,13,no,m,6,m,1.1154837999929441,1,4,test2,4,1.115716300002532,-50.0
14,chj,m,20,r,1,(-172.20000000000002, 2.1088417881317425e-14),25,5,2,yes,x,5,x,0.619482699999935,1,5,test2,4,0.6202115000050981,-40.0
14,chj,m,20,r,1,(-3.163262682197613e-14, -172.20000000000002),27,5,2,yes,x,5,x,0.5197782999894116,1,6,test2,4,0.5199076999997487,-40.0
14,chj,m,20,r,1,(172.20000000000002, 0.0),21,5,2,no,m,6,m,1.1795118999871192,1,7,test2,4,1.1797267999936594,-40.0
14,chj,m,20,r,1,(121.76378772032346, -121.76378772032352),28,25,4,yes,x,5,x,0.4701984999992419,1,8,test2,4,0.47043919999850914,-20.0
14,chj,m,20,r,1,(121.76378772032346, -121.76378772032352),28,-25,14,no,m,6,m,0.6326353999902494,1,9,test2,4,0.6329160000022966,-20.0
14,chj,m,20,r,1,(-121.76378772032348, 121.76378772032349),24,-3,11,yes,x,5,x,0.912888999999268,1,10,test2,4,0.9133441000012681,-48.0
14,chj,m,20,r,1,(121.76378772032346, -121.76378772032352),28,7,3,no,m,6,m,0.90844030000153,1,11,test2,4,0.908674099991913,-48.0
14,chj,m,20,r,1,(-172.20000000000002, 2.1088417881317425e-14),25,3,1,yes,x,5,x,0.6653177000116557,1,12,test2,4,0.6655283000000054,-42.0
14,chj,m,20,r,1,(121.76378772032346, -121.76378772032352),28,3,1,no,m,6,m,0.7866078000079142,1,13,test2,4,0.7867362999968464,-42.0
14,chj,m,20,r,1,(-121.76378772032352, -121.76378772032348),26,-7,13,yes,x,5,x,0.452081100011128,1,14,test2,4,0.4522111000114819,-52.0
14,chj,m,20,r,1,(-3.163262682197613e-14, -172.20000000000002),27,-7,13,yes,x,5,x,0.49657469999510795,1,15,test2,4,0.496670799999265,-52.0
14,chj,m,20,r,1,(-172.20000000000002, 2.1088417881317425e-14),25,-7,13,yes,x,5,x,0.46432590000040364,1,16,test2,4,0.46445119999407325,-52.0
14,chj,m,20,r,1,(-172.20000000000002, 2.1088417881317425e-14),25,7,3,yes,x,5,x,0.4663494999986142,1,17,test2,4,0.4664465999958338,-38.0
14,chj,m,20,r,1,(121.76378772032346, -121.76378772032352),28,-25,14,yes,x,5,x,0.4597362999920733,1,18,test2,4,0.4598354999907315,-70.0
14,chj,m,20,r,1,(121.76378772032349, 121.76378772032349),22,3,1,yes,x,5,x,0.909020099992631,1,19,test2,4,0.9091209000034723,-42.0
14,chj,m,20,r,1,(-121.76378772032352, -121.76378772032348),26,5,2,yes,x,5,x,0.951405200001318,1,20,test2,4,0.9515008000016678,-40.0
14,chj,m,20,r,1,(-3.163262682197613e-14, -172.20000000000002),27,3,1,yes,x,5,x,0.7993209999985993,1,21,test2,4,0.799529199997778,-42.0
14,chj,m,20,r,1,(-121.76378772032352, -121.76378772032348),26,-3,11,no,m,6,m,0.93500359999598,1,22,test2,4,0.9352910999878077,-42.0
14,chj,m,20,r,1,(1.0544208940658713e-14, 172.20000000000002),23,-25,14,no,m,6,m,0.837721000003512,1,23,test2,4,0.8378452000033576,-42.0
14,chj,m,20,r,1,(-172.20000000000002, 2.1088417881317425e-14),25,7,3,yes,x,5,x,0.5230727000016486,1,24,test2,4,0.5231844000081765,-38.0
14,chj,m,20,r,1,(172.20000000000002, 0.0),21,5,2,yes,x,5,x,0.5811399999947753,1,25,test2,4,0.5814321999932872,-40.0
14,chj,m,20,r,1,(-121.76378772032348, 121.76378772032349),24,-5,12,yes,x,5,x,0.5239964000065811,1,26,test2,4,0.5241154000104871,-50.0
14,chj,m,20,r,1,(121.76378772032346, -121.76378772032352),28,-25,14,yes,x,5,x,0.33823139999003615,1,27,test2,4,0.33847469999454916,-70.0
14,chj,m,20,r,1,(121.76378772032349, 121.76378772032349),22,5,2,yes,x,5,x,0.4364192000066396,1,28,test2,4,0.4366528999962611,-40.0
14,chj,m,20,r,1,(1.0544208940658713e-14, 172.20000000000002),23,25,4,yes,x,5,x,0.45843719999538735,1,29,test2,4,0.4591787999961525,-20.0
14,chj,m,20,r,1,(-172.20000000000002, 2.1088417881317425e-14),25,-3,11,yes,x,5,x,1.0216274999984307,1,30,test2,4,1.0218487000092864,-48.0
14,chj,m,20,r,1,(121.76378772032346, -121.76378772032352),28,3,1,yes,x,5,x,0.7833054000075208,1,31,test2,4,0.7834317000088049,-42.0
14,chj,m,20,r,1,(-3.163262682197613e-14, -172.20000000000002),27,5,2,yes,x,5,x,0.5335258999984944,1,32,test2,4,0.5338064000097802,-40.0
14,chj,m,20,r,1,(-121.76378772032352, -121.76378772032348),26,-25,14,yes,x,5,x,0.443611000009696,1,33,test2,4,0.4438820999930613,-70.0
14,chj,m,20,r,1,(-121.76378772032352, -121.76378772032348),26,3,1,yes,x,5,x,0.741098200000124,1,34,test2,4,0.7412299999996321,-42.0
14,chj,m,20,r,1,(-121.76378772032348, 121.76378772032349),24,5,2,yes,x,5,x,0.5306502000021283,1,35,test2,4,0.5307635999924969,-40.0
14,chj,m,20,r,1,(172.20000000000002, 0.0),21,25,4,yes,x,5,x,0.5116903999878559,1,36,test2,4,0.5119966999918688,-20.0
14,chj,m,20,r,1,(1.0544208940658713e-14, 172.20000000000002),23,-3,11,yes,x,5,x,0.6315164999978151,1,37,test2,4,0.631833599996753,-48.0
14,chj,m,20,r,1,(-3.163262682197613e-14, -172.20000000000002),27,25,4,yes,x,5,x,0.3920524999994086,1,38,test2,4,0.3922210000018822,-20.0
14,chj,m,20,r,1,(1.0544208940658713e-14, 172.20000000000002),23,-5,12,yes,x,5,x,0.5095452000095975,1,39,test2,4,0.5099066999973729,-50.0
14,chj,m,20,r,1,(121.76378772032346, -121.76378772032352),28,-3,11,no,m,6,m,0.9681123000045773,1,40,test2,4,0.9685025999933714,-50.0
14,chj,m,20,r,1,(1.0544208940658713e-14, 172.20000000000002),23,25,4,no,m,6,m,0.9447380000056,1,41,test2,4,0.9450750000105472,-50.0
14,chj,m,20,r,1,(-121.76378772032352, -121.76378772032348),26,-5,12,yes,x,5,x,0.49951120000332594,1,42,test2,4,0.49964860000181943,-50.0
14,chj,m,20,r,1,(-121.76378772032352, -121.76378772032348),26,-3,11,yes,x,5,x,0.6700409000040963,1,43,test2,4,0.6702555999945616,-48.0
14,chj,m,20,r,1,(121.76378772032349, 121.76378772032349),22,3,1,yes,x,5,x,0.905464800001937,1,44,test2,4,0.9056482999876607,-42.0
14,chj,m,20,r,1,(172.20000000000002, 0.0),21,-25,14,no,m,6,m,0.7527275000029476,1,45,test2,4,0.7538348999951268,-42.0
14,chj,m,20,r,1,(-121.76378772032348, 121.76378772032349),24,3,1,no,m,6,m,0.7120161000057124,1,46,test2,4,0.7121409000101266,-42.0
14,chj,m,20,r,1,(-172.20000000000002, 2.1088417881317425e-14),25,7,3,no,m,6,m,0.8473066000005929,1,47,test2,4,0.8474249999999302,-42.0
14,chj,m,20,r,1,(-121.76378772032352, -121.76378772032348),26,-7,13,no,m,6,m,0.8866583000053652,1,48,test2,4,0.8868952999910107,-42.0
14,chj,m,20,r,1,(121.76378772032349, 121.76378772032349),22,-25,14,yes,x,5,x,0.4926282000087667,1,49,test2,4,0.49287360000016633,-70.0
14,chj,m,20,r,1,(172.20000000000002, 0.0),21,25,4,no,m,6,m,0.7718781000003219,1,50,test2,4,0.7720016999955988,-70.0
14,chj,m,20,r,1,(-172.20000000000002, 2.1088417881317425e-14),25,-25,14,yes,x,5,x,0.3944448999973247,1,51,test2,4,0.39461599999049213,-70.0
14,chj,m,20,r,1,(-172.20000000000002, 2.1088417881317425e-14),25,3,1,no,m,6,m,0.8875111999950605,1,52,test2,4,0.887697099999059,-70.0
14,chj,m,20,r,1,(-121.76378772032352, -121.76378772032348),26,3,1,yes,x,5,x,0.8676706000114791,1,53,test2,4,0.8678070000023581,-42.0
14,chj,m,20,r,1,(121.76378772032346, -121.76378772032352),28,-7,13,yes,x,5,x,0.4614175000024261,1,54,test2,4,0.4617164000082994,-52.0
14,chj,m,20,r,1,(121.76378772032349, 121.76378772032349),22,25,4,yes,x,5,x,0.4277106000081403,1,55,test2,4,0.4278308999928413,-20.0
14,chj,m,20,r,1,(-121.76378772032348, 121.76378772032349),24,-25,14,yes,x,5,x,0.3900565999938408,1,56,test2,4,0.39063639999949373,-70.0
14,chj,m,20,r,1,(-3.163262682197613e-14, -172.20000000000002),27,25,4,yes,x,5,x,0.44471209999755956,1,57,test2,4,0.44487580000713933,-20.0
14,chj,m,20,r,1,(-121.76378772032348, 121.76378772032349),24,-5,12,no,m,6,m,0.850664899990079,1,58,test2,4,0.8511643999954686,-20.0
