subj_id,subj_name,subj_gender ,subj_age,subj_handedness,subj_runNum,tar_l_x,tar_l_y,loc_code,tar_ori,tar_code,tar_pre ,cor_response,pre_code,subj_response,RT,correct,trial_num,type,bloc_num,dur, real_tar
14,chj,m,20,r,2,(-121.76378772032352, -121.76378772032348),26,3,1,yes,x,5,None,None,0,1,test1,1,1.9800880999973742,-42.0
14,chj,m,20,r,2,(-3.163262682197613e-14, -172.20000000000002),27,-7,13,yes,x,5,x,0.8658381999994162,1,2,test1,1,0.8659990000014659,-52.0
14,chj,m,20,r,2,(121.76378772032346, -121.76378772032352),28,7,3,no,m,6,m,0.593687200002023,1,3,test1,1,0.5938003000046592,-52.0
14,chj,m,20,r,2,(-121.76378772032348, 121.76378772032349),24,-5,12,no,m,6,m,0.5943819999956759,1,4,test1,1,0.594808900001226,-52.0
14,chj,m,20,r,2,(121.76378772032349, 121.76378772032349),22,-7,13,no,m,6,m,0.4621725000033621,1,5,test1,1,0.46237210000981577,-52.0
14,chj,m,20,r,2,(-121.76378772032348, 121.76378772032349),24,7,3,yes,x,5,x,0.509707500008517,1,6,test1,1,0.5098314999922877,-38.0
14,chj,m,20,r,2,(-172.20000000000002, 2.1088417881317425e-14),25,-3,11,yes,x,5,m,0.5980708999995841,0,7,test1,1,0.598170500001288,-48.0
14,chj,m,20,r,2,(1.0544208940658713e-14, 172.20000000000002),23,25,4,yes,x,5,x,0.3737690999987535,1,8,test1,1,0.374130399999558,-20.0
14,chj,m,20,r,2,(1.0544208940658713e-14, 172.20000000000002),23,-5,12,yes,x,5,x,0.5503646999859484,1,9,test1,1,0.5505847000022186,-50.0
14,chj,m,20,r,2,(-172.20000000000002, 2.1088417881317425e-14),25,-3,11,yes,x,5,x,0.464105599996401,1,10,test1,1,0.4643439000064973,-48.0
14,chj,m,20,r,2,(-121.76378772032348, 121.76378772032349),24,3,1,yes,x,5,x,0.4228389000054449,1,11,test1,1,0.42323540001234505,-42.0
14,chj,m,20,r,2,(-172.20000000000002, 2.1088417881317425e-14),25,7,3,no,m,6,m,0.5626310000079684,1,12,test1,1,0.5627290999982506,-42.0
14,chj,m,20,r,2,(1.0544208940658713e-14, 172.20000000000002),23,25,4,yes,x,5,x,0.37462699999741744,1,13,test1,1,0.3747524000064004,-20.0
14,chj,m,20,r,2,(-172.20000000000002, 2.1088417881317425e-14),25,5,2,yes,x,5,x,0.38648069999180734,1,14,test1,1,0.38679669999692123,-40.0
14,chj,m,20,r,2,(-121.76378772032348, 121.76378772032349),24,5,2,yes,x,5,x,0.39307790000748355,1,15,test1,1,0.39329710000311024,-40.0
14,chj,m,20,r,2,(172.20000000000002, 0.0),21,-3,11,yes,x,5,m,0.620771900008549,0,16,test1,1,0.6208960999938427,-48.0
14,chj,m,20,r,2,(1.0544208940658713e-14, 172.20000000000002),23,5,2,yes,x,5,x,0.4751657999877352,1,17,test1,1,0.4753958000073908,-40.0
14,chj,m,20,r,2,(121.76378772032349, 121.76378772032349),22,-5,12,yes,x,5,x,0.41446050000377,1,18,test1,1,0.41502650000620633,-50.0
14,chj,m,20,r,2,(-121.76378772032352, -121.76378772032348),26,7,3,yes,x,5,x,0.44113300000026356,1,19,test1,1,0.44132680000620894,-38.0
14,chj,m,20,r,2,(-3.163262682197613e-14, -172.20000000000002),27,5,2,no,m,6,m,0.5331423000025097,1,20,test1,1,0.533269300009124,-38.0
14,chj,m,20,r,2,(-172.20000000000002, 2.1088417881317425e-14),25,-5,12,yes,x,5,x,0.45947370000067167,1,21,test1,1,0.4598009000037564,-50.0
14,chj,m,20,r,2,(121.76378772032349, 121.76378772032349),22,25,4,yes,x,5,x,0.44372689998999704,1,22,test1,1,0.4439583999919705,-20.0
14,chj,m,20,r,2,(-121.76378772032348, 121.76378772032349),24,-3,11,yes,x,5,x,1.1241636000049766,1,23,test1,1,1.1243515999958618,-48.0
14,chj,m,20,r,2,(121.76378772032346, -121.76378772032352),28,-3,11,yes,x,5,x,0.749309999999241,1,24,test1,1,0.7494413999957033,-48.0
14,chj,m,20,r,2,(121.76378772032346, -121.76378772032352),28,5,2,no,m,6,m,0.722298699998646,1,25,test1,1,0.7226618999993661,-48.0
14,chj,m,20,r,2,(-172.20000000000002, 2.1088417881317425e-14),25,-7,13,yes,x,5,x,0.4445912000082899,1,26,test1,1,0.4448413000063738,-52.0
14,chj,m,20,r,2,(-121.76378772032352, -121.76378772032348),26,-5,12,yes,x,5,x,0.5979609000060009,1,27,test1,1,0.5980610999977216,-50.0
14,chj,m,20,r,2,(121.76378772032349, 121.76378772032349),22,5,2,no,m,6,m,1.001489699992817,1,28,test1,1,1.0017353000002913,-50.0
14,chj,m,20,r,2,(-172.20000000000002, 2.1088417881317425e-14),25,25,4,no,m,6,m,0.6300644000002649,1,29,test1,1,0.630281499994453,-50.0
14,chj,m,20,r,2,(172.20000000000002, 0.0),21,-25,14,yes,x,5,x,0.4048296999972081,1,30,test1,1,0.40505190000112634,-70.0
14,chj,m,20,r,2,(-172.20000000000002, 2.1088417881317425e-14),25,3,1,yes,x,5,x,0.5016140000079758,1,31,test1,1,0.5017181000002893,-42.0
14,chj,m,20,r,2,(-172.20000000000002, 2.1088417881317425e-14),25,-7,13,yes,x,5,x,0.4604964999889489,1,32,test1,1,0.4606212999933632,-52.0
14,chj,m,20,r,2,(121.76378772032346, -121.76378772032352),28,-7,13,yes,x,5,x,0.5841759000031743,1,33,test1,1,0.5843072999996366,-52.0
14,chj,m,20,r,2,(-121.76378772032352, -121.76378772032348),26,-7,13,yes,x,5,x,0.4476804000005359,1,34,test1,1,0.44818980000854935,-52.0
14,chj,m,20,r,2,(121.76378772032346, -121.76378772032352),28,-25,14,yes,x,5,x,0.42564869999478105,1,35,test1,1,0.4258067999908235,-70.0
14,chj,m,20,r,2,(-121.76378772032348, 121.76378772032349),24,3,1,yes,x,5,x,0.7422019000077853,1,36,test1,1,0.7423622000060277,-42.0
14,chj,m,20,r,2,(-121.76378772032352, -121.76378772032348),26,-25,14,yes,x,5,x,0.3703298000036739,1,37,test1,1,0.3706862999970326,-70.0
14,chj,m,20,r,2,(-3.163262682197613e-14, -172.20000000000002),27,-3,11,yes,x,5,x,0.5875893000047654,1,38,test1,1,0.5879163000063272,-48.0
14,chj,m,20,r,2,(121.76378772032349, 121.76378772032349),22,3,1,yes,x,5,x,0.7736819999990985,1,39,test1,1,0.7740765000053216,-42.0
14,chj,m,20,r,2,(-121.76378772032352, -121.76378772032348),26,-3,11,yes,x,5,x,0.5808728000120027,1,40,test1,1,0.5810089000005974,-48.0
14,chj,m,20,r,2,(-172.20000000000002, 2.1088417881317425e-14),25,-7,13,no,m,6,m,0.7340492999937851,1,41,test1,1,0.7341870000091149,-48.0
14,chj,m,20,r,2,(-121.76378772032352, -121.76378772032348),26,-5,12,no,m,6,m,0.8213737000041874,1,42,test1,1,0.8216156999988016,-48.0
14,chj,m,20,r,2,(-121.76378772032352, -121.76378772032348),26,3,1,no,m,6,m,0.5235278000036487,1,43,test1,1,0.5236220999940997,-48.0
14,chj,m,20,r,2,(-3.163262682197613e-14, -172.20000000000002),27,-7,13,no,m,6,m,0.5934209999977611,1,44,test1,1,0.5935459999891464,-48.0
14,chj,m,20,r,2,(-121.76378772032348, 121.76378772032349),24,5,2,yes,x,5,x,0.6605176000011852,1,45,test1,1,0.6606494999869028,-40.0
14,chj,m,20,r,2,(172.20000000000002, 0.0),21,-3,11,yes,x,5,x,0.6295986000041012,1,46,test1,1,0.629835900006583,-48.0
14,chj,m,20,r,2,(-3.163262682197613e-14, -172.20000000000002),27,-3,11,no,m,6,m,0.5451395999989472,1,47,test1,1,0.5458114000066416,-48.0
14,chj,m,20,r,2,(-121.76378772032348, 121.76378772032349),24,-25,14,yes,x,5,x,0.38995230000000447,1,48,test1,1,0.39031360000080895,-70.0
14,chj,m,20,r,2,(-3.163262682197613e-14, -172.20000000000002),27,-5,12,yes,x,5,x,0.5869540000130655,1,49,test1,1,0.5873136000009254,-50.0
14,chj,m,20,r,2,(-121.76378772032352, -121.76378772032348),26,-25,14,yes,x,5,x,0.3876737999962643,1,50,test1,1,0.3882187999988673,-70.0
14,chj,m,20,r,2,(-121.76378772032348, 121.76378772032349),24,-7,13,yes,x,5,x,0.3722468000050867,1,51,test1,1,0.3723628000007011,-52.0
14,chj,m,20,r,2,(172.20000000000002, 0.0),21,-25,14,no,m,6,m,0.49100470000121277,1,52,test1,1,0.49153820000356063,-52.0
14,chj,m,20,r,2,(-172.20000000000002, 2.1088417881317425e-14),25,3,1,no,m,6,m,0.4856032999960007,1,53,test1,1,0.4857246000028681,-52.0
14,chj,m,20,r,2,(172.20000000000002, 0.0),21,5,2,no,m,6,m,0.6192802000005031,1,54,test1,1,0.6193953000038164,-52.0
14,chj,m,20,r,2,(-121.76378772032352, -121.76378772032348),26,-7,13,yes,x,5,x,0.4209660000051372,1,55,test1,1,0.42106440001225565,-52.0
14,chj,m,20,r,2,(121.76378772032346, -121.76378772032352),28,-5,12,yes,x,5,x,0.7261548999958904,1,56,test1,1,0.7265577000071062,-50.0
14,chj,m,20,r,2,(172.20000000000002, 0.0),21,5,2,yes,x,5,x,0.5029682000022149,1,57,test1,1,0.5030669000116177,-40.0
14,chj,m,20,r,2,(-121.76378772032348, 121.76378772032349),24,-5,12,yes,x,5,x,0.38183359999675304,1,58,test1,1,0.38246459999936633,-50.0
14,chj,m,20,r,2,(-121.76378772032348, 121.76378772032349),24,25,4,yes,x,5,x,0.33869350000168197,1,59,test1,1,0.3391261999931885,-20.0
14,chj,m,20,r,2,(-172.20000000000002, 2.1088417881317425e-14),25,-25,14,yes,x,5,x,0.31933119999303017,1,60,test1,1,0.31946879999304656,-70.0
14,chj,m,20,r,2,(121.76378772032346, -121.76378772032352),28,-5,12,yes,x,5,x,0.6305165999947349,1,61,test1,1,0.6307512000057613,-50.0
14,chj,m,20,r,2,(-121.76378772032348, 121.76378772032349),24,-25,14,no,m,6,m,0.47714930000074673,1,62,test1,1,0.4772701000038069,-50.0
14,chj,m,20,r,2,(1.0544208940658713e-14, 172.20000000000002),23,-3,11,yes,x,5,x,0.7246503000060329,1,63,test1,1,0.7249100000044564,-48.0
14,chj,m,20,r,2,(-3.163262682197613e-14, -172.20000000000002),27,7,3,yes,x,5,x,0.4174417000031099,1,64,test1,1,0.41754629999923054,-38.0
14,chj,m,20,r,2,(-3.163262682197613e-14, -172.20000000000002),27,25,4,yes,x,5,x,0.32554930000333115,1,65,test1,1,0.3257791000069119,-20.0
14,chj,m,20,r,2,(1.0544208940658713e-14, 172.20000000000002),23,-7,13,yes,x,5,x,0.42167899999185465,1,66,test1,1,0.4218040999985533,-52.0
14,chj,m,20,r,2,(172.20000000000002, 0.0),21,-7,13,yes,x,5,x,0.38882779999403283,1,67,test1,1,0.38904599999659695,-52.0
14,chj,m,20,r,2,(121.76378772032346, -121.76378772032352),28,3,1,no,m,6,m,0.5763455999986036,1,68,test1,1,0.5764459000056377,-52.0
14,chj,m,20,r,2,(1.0544208940658713e-14, 172.20000000000002),23,7,3,no,m,6,m,0.554538299998967,1,69,test1,1,0.5547737000015331,-52.0
14,chj,m,20,r,2,(172.20000000000002, 0.0),21,-5,12,yes,x,5,x,0.5571799000026658,1,70,test1,1,0.5574190000043018,-50.0
14,chj,m,20,r,2,(172.20000000000002, 0.0),21,-5,12,no,m,6,m,0.6388365000020713,1,71,test1,1,0.6392861999920569,-50.0
14,chj,m,20,r,2,(121.76378772032349, 121.76378772032349),22,5,2,yes,x,5,x,0.598784899993916,1,72,test1,1,0.5990320999990217,-40.0
14,chj,m,20,r,2,(-121.76378772032348, 121.76378772032349),24,-7,13,yes,x,5,x,0.3917924999987008,1,73,test1,1,0.39189349999651313,-52.0
14,chj,m,20,r,2,(121.76378772032346, -121.76378772032352),28,3,1,yes,x,5,x,0.7269095999945421,1,74,test1,1,0.7270066000055522,-42.0
14,chj,m,20,r,2,(121.76378772032349, 121.76378772032349),22,25,4,no,m,6,m,0.4957518000010168,1,75,test1,1,0.4958891999995103,-42.0
14,chj,m,20,r,2,(121.76378772032349, 121.76378772032349),22,-3,11,yes,x,5,x,0.612054099998204,1,76,test1,1,0.6122692999924766,-48.0
14,chj,m,20,r,2,(121.76378772032346, -121.76378772032352),28,25,4,no,m,6,m,0.5823044999997364,1,77,test1,1,0.5824321999971289,-48.0
14,chj,m,20,r,2,(121.76378772032346, -121.76378772032352),28,25,4,yes,x,5,x,0.4670598999946378,1,78,test1,1,0.467188199996599,-20.0
14,chj,m,20,r,2,(-3.163262682197613e-14, -172.20000000000002),27,5,2,yes,x,5,x,0.4473161999922013,1,79,test1,1,0.4474578999943333,-40.0
14,chj,m,20,r,2,(1.0544208940658713e-14, 172.20000000000002),23,-3,11,yes,x,5,x,0.5490264999971259,1,80,test1,1,0.5491321000008611,-48.0
14,chj,m,20,r,2,(-172.20000000000002, 2.1088417881317425e-14),25,3,1,yes,x,5,x,0.6856384000129765,1,81,test1,1,0.6858599999977741,-42.0
14,chj,m,20,r,2,(-121.76378772032352, -121.76378772032348),26,-7,13,no,m,6,m,0.7998698000010336,1,82,test1,1,0.8001539999968372,-42.0
14,chj,m,20,r,2,(-121.76378772032352, -121.76378772032348),26,-3,11,yes,x,5,x,0.5702083000069251,1,83,test1,1,0.570571000003838,-48.0
14,chj,m,20,r,2,(121.76378772032346, -121.76378772032352),28,-25,14,no,m,6,m,0.5899916000053054,1,84,test1,1,0.5902038000058383,-48.0
14,chj,m,20,r,2,(-172.20000000000002, 2.1088417881317425e-14),25,5,2,yes,x,5,x,0.3919880000030389,1,85,test1,1,0.3920895000046585,-40.0
14,chj,m,20,r,2,(-121.76378772032348, 121.76378772032349),24,-3,11,yes,x,5,x,0.6218437000061385,1,86,test1,1,0.6220011999976123,-48.0
14,chj,m,20,r,2,(-3.163262682197613e-14, -172.20000000000002),27,3,1,no,m,6,m,0.6118062000023201,1,87,test1,1,0.6119382999895606,-48.0
14,chj,m,20,r,2,(-172.20000000000002, 2.1088417881317425e-14),25,25,4,yes,x,5,x,0.3391062000009697,1,88,test1,1,0.339216899999883,-20.0
14,chj,m,20,r,2,(172.20000000000002, 0.0),21,25,4,yes,x,5,x,0.3096442000096431,1,89,test1,1,0.3097593999991659,-20.0
14,chj,m,20,r,2,(-172.20000000000002, 2.1088417881317425e-14),25,-5,12,yes,x,5,x,0.36886000000231434,1,90,test1,1,0.3689578000048641,-50.0
14,chj,m,20,r,2,(1.0544208940658713e-14, 172.20000000000002),23,3,1,no,m,6,m,0.48756280000088736,1,91,test1,1,0.4876896000059787,-50.0
14,chj,m,20,r,2,(-121.76378772032352, -121.76378772032348),26,-3,11,no,m,6,m,0.4568093000125373,1,92,test1,1,0.45705240000097547,-50.0
14,chj,m,20,r,2,(-172.20000000000002, 2.1088417881317425e-14),25,7,3,yes,x,5,x,0.3954873000038788,1,93,test1,1,0.3956640999967931,-38.0
14,chj,m,20,r,2,(-3.163262682197613e-14, -172.20000000000002),27,5,2,yes,x,5,x,0.5840311000065412,1,94,test1,1,0.5844649000064237,-40.0
14,chj,m,20,r,2,(172.20000000000002, 0.0),21,-5,12,yes,x,5,x,0.4506822000112152,1,95,test1,1,0.450900099996943,-50.0
14,chj,m,20,r,2,(-121.76378772032348, 121.76378772032349),24,5,2,no,m,6,m,0.4096389000042109,1,96,test1,1,0.4101356000028318,-50.0
14,chj,m,20,r,2,(1.0544208940658713e-14, 172.20000000000002),23,-7,13,yes,x,5,x,0.3413388000044506,1,1,test2,1,0.34164460000465624,-52.0
14,chj,m,20,r,2,(121.76378772032349, 121.76378772032349),22,-7,13,yes,x,5,x,0.4097781999880681,1,2,test2,1,0.41057890000229236,-52.0
14,chj,m,20,r,2,(-121.76378772032348, 121.76378772032349),24,7,3,yes,x,5,x,0.31929699999454897,1,3,test2,1,0.3195821999979671,-38.0
14,chj,m,20,r,2,(121.76378772032349, 121.76378772032349),22,-5,12,no,m,6,m,0.4377366999979131,1,4,test2,1,0.4380686000076821,-38.0
14,chj,m,20,r,2,(-121.76378772032348, 121.76378772032349),24,-5,12,yes,x,5,x,0.3694307999976445,1,5,test2,1,0.3695620000071358,-50.0
14,chj,m,20,r,2,(121.76378772032346, -121.76378772032352),28,25,4,yes,x,5,x,0.36634750000666827,1,6,test2,1,0.3664600000047358,-20.0
14,chj,m,20,r,2,(1.0544208940658713e-14, 172.20000000000002),23,5,2,no,m,6,m,0.523575900006108,1,7,test2,1,0.5237829999969108,-20.0
14,chj,m,20,r,2,(121.76378772032349, 121.76378772032349),22,-7,13,yes,x,5,x,0.559467200000654,1,8,test2,1,0.5597540000017034,-52.0
14,chj,m,20,r,2,(-3.163262682197613e-14, -172.20000000000002),27,25,4,no,m,6,m,0.5034180999937234,1,9,test2,1,0.5035824999940814,-52.0
14,chj,m,20,r,2,(172.20000000000002, 0.0),21,25,4,yes,x,5,x,0.39524139999412,1,10,test2,1,0.39534409999032505,-20.0
14,chj,m,20,r,2,(-121.76378772032352, -121.76378772032348),26,25,4,yes,x,5,x,0.3564792000106536,1,11,test2,1,0.35666540000238456,-20.0
14,chj,m,20,r,2,(-3.163262682197613e-14, -172.20000000000002),27,7,3,no,m,6,m,0.5139237999974284,1,12,test2,1,0.5140796000050614,-20.0
14,chj,m,20,r,2,(-172.20000000000002, 2.1088417881317425e-14),25,-3,11,no,m,6,m,0.4446370000077877,1,13,test2,1,0.44520839999313466,-20.0
14,chj,m,20,r,2,(172.20000000000002, 0.0),21,3,1,no,m,6,m,0.6067523000092478,1,14,test2,1,0.6068549000046914,-20.0
14,chj,m,20,r,2,(-172.20000000000002, 2.1088417881317425e-14),25,-25,14,yes,x,5,x,0.36121259999345057,1,15,test2,1,0.36132770001131576,-70.0
14,chj,m,20,r,2,(172.20000000000002, 0.0),21,3,1,yes,x,5,x,0.7118710999930045,1,16,test2,1,0.712205299991183,-42.0
14,chj,m,20,r,2,(1.0544208940658713e-14, 172.20000000000002),23,7,3,yes,x,5,x,0.3985951000067871,1,17,test2,1,0.39871140000468586,-38.0
14,chj,m,20,r,2,(172.20000000000002, 0.0),21,-7,13,no,m,6,m,0.4774108999990858,1,18,test2,1,0.4775690999958897,-38.0
14,chj,m,20,r,2,(-121.76378772032352, -121.76378772032348),26,3,1,yes,x,5,x,0.6205628999887267,1,19,test2,1,0.62095589999808,-42.0
14,chj,m,20,r,2,(-121.76378772032352, -121.76378772032348),26,25,4,no,m,6,m,0.483730200008722,1,20,test2,1,0.48383349999494385,-42.0
14,chj,m,20,r,2,(-121.76378772032352, -121.76378772032348),26,7,3,yes,x,5,x,0.4773836000094889,1,21,test2,1,0.4775060000101803,-38.0
14,chj,m,20,r,2,(121.76378772032349, 121.76378772032349),22,-3,11,yes,x,5,x,0.49360560000059195,1,22,test2,1,0.49372120000771247,-48.0
14,chj,m,20,r,2,(-121.76378772032352, -121.76378772032348),26,7,3,no,m,6,m,0.5822487999976147,1,23,test2,1,0.5825430999975652,-48.0
14,chj,m,20,r,2,(1.0544208940658713e-14, 172.20000000000002),23,-25,14,no,m,6,m,0.46341539999411907,1,24,test2,1,0.46351549999963026,-48.0
14,chj,m,20,r,2,(121.76378772032349, 121.76378772032349),22,-25,14,yes,x,5,x,0.35618539999995846,1,25,test2,1,0.35642209999787156,-70.0
14,chj,m,20,r,2,(1.0544208940658713e-14, 172.20000000000002),23,3,1,yes,x,5,x,0.5726457999990089,1,26,test2,1,0.5732011999934912,-42.0
14,chj,m,20,r,2,(1.0544208940658713e-14, 172.20000000000002),23,-25,14,yes,x,5,x,0.3469784000044456,1,27,test2,1,0.34715590000269003,-70.0
14,chj,m,20,r,2,(-3.163262682197613e-14, -172.20000000000002),27,-3,11,yes,x,5,x,0.6556404000002658,1,28,test2,1,0.6557785000040894,-48.0
14,chj,m,20,r,2,(-121.76378772032352, -121.76378772032348),26,-25,14,no,m,6,m,0.6503905999998096,1,29,test2,1,0.6505068999977084,-48.0
14,chj,m,20,r,2,(172.20000000000002, 0.0),21,3,1,yes,x,5,x,0.6457453000039095,1,30,test2,1,0.6458495999977458,-42.0
14,chj,m,20,r,2,(172.20000000000002, 0.0),21,-7,13,yes,x,5,x,0.35662979999324307,1,31,test2,1,0.3569357999949716,-52.0
14,chj,m,20,r,2,(1.0544208940658713e-14, 172.20000000000002),23,5,2,yes,x,5,x,0.37754319999658037,1,32,test2,1,0.3776452000020072,-40.0
14,chj,m,20,r,2,(172.20000000000002, 0.0),21,-25,14,yes,x,5,x,0.3375800999929197,1,33,test2,1,0.33798850000312086,-70.0
14,chj,m,20,r,2,(121.76378772032349, 121.76378772032349),22,-25,14,yes,x,5,x,0.3304982999979984,1,34,test2,1,0.33073489999515004,-70.0
14,chj,m,20,r,2,(121.76378772032346, -121.76378772032352),28,-7,13,no,m,6,m,0.5076384999993024,1,35,test2,1,0.5077689000027021,-70.0
14,chj,m,20,r,2,(121.76378772032349, 121.76378772032349),22,3,1,yes,x,5,x,0.5438651000004029,1,36,test2,1,0.5442089999996824,-42.0
14,chj,m,20,r,2,(1.0544208940658713e-14, 172.20000000000002),23,-5,12,no,m,6,x,0.4710423999931663,0,37,test2,1,0.47117799999250565,-42.0
14,chj,m,20,r,2,(121.76378772032349, 121.76378772032349),22,7,3,yes,x,5,x,0.4120909000048414,1,38,test2,1,0.41231970000080764,-38.0
14,chj,m,20,r,2,(-121.76378772032352, -121.76378772032348),26,25,4,yes,x,5,x,0.4070462000090629,1,39,test2,1,0.4072811000078218,-20.0
14,chj,m,20,r,2,(121.76378772032346, -121.76378772032352),28,-3,11,yes,x,5,m,0.649321200005943,0,40,test2,1,0.6495013000094332,-48.0
14,chj,m,20,r,2,(-3.163262682197613e-14, -172.20000000000002),27,-5,12,yes,x,5,x,0.43666159998974763,1,41,test2,1,0.436766600003466,-50.0
14,chj,m,20,r,2,(1.0544208940658713e-14, 172.20000000000002),23,25,4,no,m,6,m,0.4964380000019446,1,42,test2,1,0.4965807999979006,-50.0
14,chj,m,20,r,2,(1.0544208940658713e-14, 172.20000000000002),23,-25,14,yes,x,5,x,0.37487460000556894,1,43,test2,1,0.37497109999821987,-70.0
14,chj,m,20,r,2,(121.76378772032346, -121.76378772032352),28,5,2,yes,x,5,x,0.4610666999942623,1,44,test2,1,0.4613018999953056,-40.0
14,chj,m,20,r,2,(-121.76378772032348, 121.76378772032349),24,25,4,no,m,6,m,0.5814919999975245,1,45,test2,1,0.5815909999946598,-40.0
14,chj,m,20,r,2,(-3.163262682197613e-14, -172.20000000000002),27,25,4,yes,x,5,x,0.37980989999778103,1,46,test2,1,0.37993500000447966,-20.0
14,chj,m,20,r,2,(121.76378772032346, -121.76378772032352),28,7,3,yes,x,5,x,0.5176359000033699,1,47,test2,1,0.5178923000057694,-38.0
14,chj,m,20,r,2,(172.20000000000002, 0.0),21,-3,11,no,m,6,m,0.528285299995332,1,48,test2,1,0.5285047999932431,-38.0
14,chj,m,20,r,2,(172.20000000000002, 0.0),21,7,3,yes,x,5,x,0.4223043999954825,1,49,test2,1,0.4226288000063505,-38.0
14,chj,m,20,r,2,(-3.163262682197613e-14, -172.20000000000002),27,-25,14,yes,x,5,x,0.4611002000019653,1,50,test2,1,0.4612022000073921,-70.0
14,chj,m,20,r,2,(-3.163262682197613e-14, -172.20000000000002),27,-5,12,no,m,6,m,0.5845457999967039,1,51,test2,1,0.5846467000083067,-70.0
14,chj,m,20,r,2,(1.0544208940658713e-14, 172.20000000000002),23,-7,13,no,m,6,m,0.595615700003691,1,52,test2,1,0.5960459000052651,-70.0
14,chj,m,20,r,2,(-121.76378772032352, -121.76378772032348),26,5,2,no,m,6,m,0.5252120999939507,1,53,test2,1,0.5253268999949796,-70.0
14,chj,m,20,r,2,(121.76378772032349, 121.76378772032349),22,7,3,yes,x,5,x,0.47752690000925213,1,54,test2,1,0.4777526000107173,-38.0
14,chj,m,20,r,2,(-121.76378772032348, 121.76378772032349),24,7,3,no,m,6,m,0.5921181000012439,1,55,test2,1,0.5927723999921,-38.0
14,chj,m,20,r,2,(-121.76378772032348, 121.76378772032349),24,-25,14,yes,x,5,x,0.3958379999967292,1,56,test2,1,0.39622310000413563,-70.0
14,chj,m,20,r,2,(121.76378772032346, -121.76378772032352),28,-5,12,no,m,6,m,0.4781005999975605,1,57,test2,1,0.47849999999743886,-70.0
14,chj,m,20,r,2,(-3.163262682197613e-14, -172.20000000000002),27,3,1,yes,x,5,m,0.4203642999927979,0,58,test2,1,0.42046680000203196,-42.0
14,chj,m,20,r,2,(-3.163262682197613e-14, -172.20000000000002),27,-25,14,no,m,6,m,0.48181700000714045,1,59,test2,1,0.48193300000275485,-42.0
14,chj,m,20,r,2,(-3.163262682197613e-14, -172.20000000000002),27,7,3,yes,x,5,x,0.42074879999563564,1,60,test2,1,0.42140910000307485,-38.0
14,chj,m,20,r,2,(172.20000000000002, 0.0),21,25,4,no,m,6,m,0.48981389999971725,1,61,test2,1,0.4904444000130752,-38.0
14,chj,m,20,r,2,(121.76378772032349, 121.76378772032349),22,-25,14,no,m,6,m,0.49153660000592936,1,62,test2,1,0.49166230000264477,-38.0
14,chj,m,20,r,2,(121.76378772032346, -121.76378772032352),28,7,3,yes,x,5,x,0.40617159999965224,1,63,test2,1,0.40648459999647457,-38.0
14,chj,m,20,r,2,(-172.20000000000002, 2.1088417881317425e-14),25,-25,14,no,m,6,m,0.6246089999913238,1,64,test2,1,0.6247077000007266,-38.0
14,chj,m,20,r,2,(-121.76378772032352, -121.76378772032348),26,-5,12,yes,x,5,x,0.6811404999898514,1,65,test2,1,0.6813007999880938,-50.0
14,chj,m,20,r,2,(121.76378772032346, -121.76378772032352),28,5,2,yes,x,5,x,0.4742222000058973,1,66,test2,1,0.4747645999887027,-40.0
14,chj,m,20,r,2,(121.76378772032346, -121.76378772032352),28,-3,11,no,m,6,m,0.5171337999927346,1,67,test2,1,0.5173496000061277,-40.0
14,chj,m,20,r,2,(-121.76378772032352, -121.76378772032348),26,5,2,yes,x,5,x,0.5410647000098834,1,68,test2,1,0.5412165999878198,-40.0
14,chj,m,20,r,2,(-172.20000000000002, 2.1088417881317425e-14),25,5,2,no,m,6,m,0.5577175000071293,1,69,test2,1,0.5578653999982635,-40.0
14,chj,m,20,r,2,(-121.76378772032348, 121.76378772032349),24,3,1,no,m,6,m,0.6098138999950606,1,70,test2,1,0.6100450999947498,-40.0
14,chj,m,20,r,2,(121.76378772032349, 121.76378772032349),22,5,2,yes,x,5,x,0.575302900004317,1,71,test2,1,0.5759736000036355,-40.0
14,chj,m,20,r,2,(1.0544208940658713e-14, 172.20000000000002),23,3,1,yes,x,5,x,0.732662700000219,1,72,test2,1,0.7331670000130543,-42.0
14,chj,m,20,r,2,(1.0544208940658713e-14, 172.20000000000002),23,7,3,yes,x,5,x,0.43395990000863094,1,73,test2,1,0.43414120000670664,-38.0
14,chj,m,20,r,2,(172.20000000000002, 0.0),21,5,2,yes,x,5,x,0.4454753000027267,1,74,test2,1,0.44588719999592286,-40.0
14,chj,m,20,r,2,(121.76378772032349, 121.76378772032349),22,-5,12,yes,x,5,x,0.4435315000009723,1,75,test2,1,0.4436313999904087,-50.0
14,chj,m,20,r,2,(-3.163262682197613e-14, -172.20000000000002),27,-7,13,yes,x,5,x,0.37924259999999776,1,76,test2,1,0.37934580000001006,-52.0
14,chj,m,20,r,2,(-172.20000000000002, 2.1088417881317425e-14),25,25,4,yes,x,5,x,0.47750039999664295,1,77,test2,1,0.47773520000919234,-20.0
14,chj,m,20,r,2,(121.76378772032349, 121.76378772032349),22,-3,11,no,m,6,m,0.5636410000006435,1,78,test2,1,0.5637663000088651,-20.0
14,chj,m,20,r,2,(121.76378772032346, -121.76378772032352),28,3,1,yes,x,5,m,0.9236627000063891,0,79,test2,1,0.9238987999997335,-42.0
14,chj,m,20,r,2,(-121.76378772032348, 121.76378772032349),24,-3,11,no,m,6,m,0.4881993000017246,1,80,test2,1,0.4883865000010701,-42.0
14,chj,m,20,r,2,(121.76378772032349, 121.76378772032349),22,7,3,no,m,6,m,0.5442174000054365,1,81,test2,1,0.5443164000025718,-42.0
14,chj,m,20,r,2,(1.0544208940658713e-14, 172.20000000000002),23,-3,11,no,m,6,m,0.5124032999883639,1,82,test2,1,0.5125030000053812,-42.0
14,chj,m,20,r,2,(-3.163262682197613e-14, -172.20000000000002),27,-25,14,yes,x,5,x,0.520250199988368,1,83,test2,1,0.520404700000654,-70.0
14,chj,m,20,r,2,(172.20000000000002, 0.0),21,7,3,yes,x,5,x,0.4426316000026418,1,84,test2,1,0.4428604999993695,-38.0
14,chj,m,20,r,2,(-121.76378772032352, -121.76378772032348),26,5,2,yes,x,5,x,0.4325134000100661,1,85,test2,1,0.4326692000031471,-40.0
14,chj,m,20,r,2,(-172.20000000000002, 2.1088417881317425e-14),25,-5,12,no,m,6,m,0.49646309998934157,1,86,test2,1,0.49669499999436084,-40.0
14,chj,m,20,r,2,(121.76378772032346, -121.76378772032352),28,-25,14,yes,x,5,x,0.4453966000000946,1,87,test2,1,0.44562139999470674,-70.0
14,chj,m,20,r,2,(121.76378772032349, 121.76378772032349),22,3,1,no,m,6,m,0.5855083000060404,1,88,test2,1,0.5861791000061203,-70.0
14,chj,m,20,r,2,(-121.76378772032348, 121.76378772032349),24,25,4,yes,x,5,x,0.3732416999991983,1,89,test2,1,0.3734820999961812,-20.0
14,chj,m,20,r,2,(121.76378772032349, 121.76378772032349),22,25,4,yes,x,5,x,0.3851979000028223,1,90,test2,1,0.3856999999989057,-20.0
14,chj,m,20,r,2,(172.20000000000002, 0.0),21,7,3,no,m,6,m,0.6690862999967067,1,91,test2,1,0.6692978000064613,-20.0
14,chj,m,20,r,2,(1.0544208940658713e-14, 172.20000000000002),23,-5,12,yes,x,5,x,0.522683599992888,1,92,test2,1,0.5227990999992471,-50.0
14,chj,m,20,r,2,(121.76378772032346, -121.76378772032352),28,-7,13,yes,x,5,x,0.5360101999976905,1,93,test2,1,0.5361374999920372,-52.0
14,chj,m,20,r,2,(-121.76378772032348, 121.76378772032349),24,-7,13,no,m,6,m,0.49478360000648536,1,94,test2,1,0.49518820000230335,-52.0
14,chj,m,20,r,2,(-3.163262682197613e-14, -172.20000000000002),27,3,1,yes,x,5,x,0.46680510000442155,1,95,test2,1,0.4669622000074014,-42.0
14,chj,m,20,r,2,(-172.20000000000002, 2.1088417881317425e-14),25,7,3,yes,x,5,x,0.3742781999899307,1,96,test2,1,0.37437179998960346,-38.0
14,chj,m,20,r,2,(-121.76378772032352, -121.76378772032348),26,3,1,yes,x,5,m,0.5859423000074457,0,1,test1,2,0.586042399998405,-42.0
14,chj,m,20,r,2,(-3.163262682197613e-14, -172.20000000000002),27,-7,13,yes,x,5,x,0.342827499989653,1,2,test1,2,0.34322310000425205,-52.0
14,chj,m,20,r,2,(121.76378772032346, -121.76378772032352),28,7,3,no,m,6,m,0.543074200002593,1,3,test1,2,0.543173600002774,-52.0
14,chj,m,20,r,2,(-121.76378772032348, 121.76378772032349),24,-5,12,no,m,6,x,0.7306939999980386,0,4,test1,2,0.7309198999864748,-52.0
14,chj,m,20,r,2,(121.76378772032349, 121.76378772032349),22,-7,13,no,m,6,m,0.5637682000087807,1,5,test1,2,0.5639442999963649,-52.0
14,chj,m,20,r,2,(-121.76378772032348, 121.76378772032349),24,7,3,yes,x,5,x,0.5321070999925723,1,6,test1,2,0.532208399992669,-38.0
14,chj,m,20,r,2,(-172.20000000000002, 2.1088417881317425e-14),25,-3,11,yes,x,5,x,0.45545780000975356,1,7,test1,2,0.45575470000039786,-48.0
14,chj,m,20,r,2,(1.0544208940658713e-14, 172.20000000000002),23,25,4,yes,x,5,x,0.359359999987646,1,8,test1,2,0.3594621999945957,-20.0
14,chj,m,20,r,2,(1.0544208940658713e-14, 172.20000000000002),23,-5,12,yes,x,5,x,0.4062673000007635,1,9,test1,2,0.40650140000798274,-50.0
14,chj,m,20,r,2,(-172.20000000000002, 2.1088417881317425e-14),25,-3,11,yes,x,5,x,0.33056449999276083,1,10,test1,2,0.33090799998899456,-48.0
14,chj,m,20,r,2,(-121.76378772032348, 121.76378772032349),24,3,1,yes,x,5,x,0.33942869999737013,1,11,test1,2,0.33978660000138916,-42.0
14,chj,m,20,r,2,(-172.20000000000002, 2.1088417881317425e-14),25,7,3,no,m,6,m,0.5396802999894135,1,12,test1,2,0.5400125000014668,-42.0
14,chj,m,20,r,2,(1.0544208940658713e-14, 172.20000000000002),23,25,4,yes,x,5,x,0.3437906000035582,1,13,test1,2,0.34425359999295324,-20.0
14,chj,m,20,r,2,(-172.20000000000002, 2.1088417881317425e-14),25,5,2,yes,x,5,x,0.36738539999350905,1,14,test1,2,0.36792039999272674,-40.0
14,chj,m,20,r,2,(-121.76378772032348, 121.76378772032349),24,5,2,yes,x,5,x,0.42502920000697486,1,15,test1,2,0.4253318999981275,-40.0
14,chj,m,20,r,2,(172.20000000000002, 0.0),21,-3,11,yes,x,5,x,0.9147170999931404,1,16,test1,2,0.914861999990535,-48.0
14,chj,m,20,r,2,(1.0544208940658713e-14, 172.20000000000002),23,5,2,yes,x,5,x,0.4077864999999292,1,17,test1,2,0.4079191000055289,-40.0
14,chj,m,20,r,2,(121.76378772032349, 121.76378772032349),22,-5,12,yes,x,5,x,0.5071404999907827,1,18,test1,2,0.507323699988774,-50.0
14,chj,m,20,r,2,(-121.76378772032352, -121.76378772032348),26,7,3,yes,x,5,x,0.37981180001224857,1,19,test1,2,0.37994530001014937,-38.0
14,chj,m,20,r,2,(-3.163262682197613e-14, -172.20000000000002),27,5,2,no,m,6,m,0.5494493000005605,1,20,test1,2,0.5501517999946373,-38.0
14,chj,m,20,r,2,(-172.20000000000002, 2.1088417881317425e-14),25,-5,12,yes,x,5,x,0.40829380000650417,1,21,test1,2,0.40851279998605605,-50.0
14,chj,m,20,r,2,(121.76378772032349, 121.76378772032349),22,25,4,yes,x,5,x,0.41408779998891987,1,22,test1,2,0.41437449998920783,-20.0
14,chj,m,20,r,2,(-121.76378772032348, 121.76378772032349),24,-3,11,yes,x,5,x,0.5333318000048166,1,23,test1,2,0.5334576000022935,-48.0
14,chj,m,20,r,2,(121.76378772032346, -121.76378772032352),28,-3,11,yes,x,5,x,0.6777978999889456,1,24,test1,2,0.6782187999924645,-48.0
14,chj,m,20,r,2,(121.76378772032346, -121.76378772032352),28,5,2,no,m,6,m,0.8291682999988552,1,25,test1,2,0.8292832000006456,-48.0
14,chj,m,20,r,2,(-172.20000000000002, 2.1088417881317425e-14),25,-7,13,yes,x,5,x,0.3763409999955911,1,26,test1,2,0.37697680000565015,-52.0
14,chj,m,20,r,2,(-121.76378772032352, -121.76378772032348),26,-5,12,yes,x,5,x,0.5137063000001945,1,27,test1,2,0.5140646000072593,-50.0
14,chj,m,20,r,2,(121.76378772032349, 121.76378772032349),22,5,2,no,m,6,m,0.6619873000017833,1,28,test1,2,0.6625322000036249,-50.0
14,chj,m,20,r,2,(-172.20000000000002, 2.1088417881317425e-14),25,25,4,no,m,6,m,0.6422434999985853,1,29,test1,2,0.64281530000153,-50.0
14,chj,m,20,r,2,(172.20000000000002, 0.0),21,-25,14,yes,x,5,x,0.34453689999645576,1,30,test1,2,0.34485890000360087,-70.0
14,chj,m,20,r,2,(-172.20000000000002, 2.1088417881317425e-14),25,3,1,yes,x,5,x,0.4931102999980794,1,31,test1,2,0.493344899994554,-42.0
14,chj,m,20,r,2,(-172.20000000000002, 2.1088417881317425e-14),25,-7,13,yes,x,5,x,0.36825990000215825,1,32,test1,2,0.36848299999837764,-52.0
14,chj,m,20,r,2,(121.76378772032346, -121.76378772032352),28,-7,13,yes,x,5,x,0.4464704999991227,1,33,test1,2,0.44656780001241714,-52.0
14,chj,m,20,r,2,(-121.76378772032352, -121.76378772032348),26,-7,13,yes,x,5,x,0.38514529999520164,1,34,test1,2,0.3852742000017315,-52.0
14,chj,m,20,r,2,(121.76378772032346, -121.76378772032352),28,-25,14,yes,x,5,x,0.3907632000045851,1,35,test1,2,0.39086429998860694,-70.0
14,chj,m,20,r,2,(-121.76378772032348, 121.76378772032349),24,3,1,yes,x,5,x,0.4886221999913687,1,36,test1,2,0.4889906000025803,-42.0
14,chj,m,20,r,2,(-121.76378772032352, -121.76378772032348),26,-25,14,yes,x,5,x,0.37361420001252554,1,37,test1,2,0.3741485000064131,-70.0
14,chj,m,20,r,2,(-3.163262682197613e-14, -172.20000000000002),27,-3,11,yes,x,5,x,0.4379321999876993,1,38,test1,2,0.43802770000183955,-48.0
14,chj,m,20,r,2,(121.76378772032349, 121.76378772032349),22,3,1,yes,x,5,x,0.6341308999981266,1,39,test1,2,0.634224000008544,-42.0
14,chj,m,20,r,2,(-121.76378772032352, -121.76378772032348),26,-3,11,yes,x,5,x,0.41613240000151563,1,40,test1,2,0.41625790001126006,-48.0
14,chj,m,20,r,2,(-172.20000000000002, 2.1088417881317425e-14),25,-7,13,no,m,6,m,0.48614249999809545,1,41,test1,2,0.4862418999982765,-48.0
14,chj,m,20,r,2,(-121.76378772032352, -121.76378772032348),26,-5,12,no,m,6,m,0.5918806999980006,1,42,test1,2,0.5920024999941234,-48.0
14,chj,m,20,r,2,(-121.76378772032352, -121.76378772032348),26,3,1,no,m,6,m,0.5129406999913044,1,43,test1,2,0.5130550999892876,-48.0
14,chj,m,20,r,2,(-3.163262682197613e-14, -172.20000000000002),27,-7,13,no,m,6,m,0.41387099999701604,1,44,test1,2,0.4139727000001585,-48.0
14,chj,m,20,r,2,(-121.76378772032348, 121.76378772032349),24,5,2,yes,x,5,x,0.3346808000060264,1,45,test1,2,0.33480969999800436,-40.0
14,chj,m,20,r,2,(172.20000000000002, 0.0),21,-3,11,yes,x,5,m,0.43138129998988006,0,46,test1,2,0.43148549999750685,-48.0
14,chj,m,20,r,2,(-3.163262682197613e-14, -172.20000000000002),27,-3,11,no,m,6,m,0.5438741000107257,1,47,test1,2,0.5441023000021232,-48.0
14,chj,m,20,r,2,(-121.76378772032348, 121.76378772032349),24,-25,14,yes,x,5,x,0.41356420000374783,1,48,test1,2,0.4137817000009818,-70.0
14,chj,m,20,r,2,(-3.163262682197613e-14, -172.20000000000002),27,-5,12,yes,x,5,x,0.43591749999905005,1,49,test1,2,0.4360177000053227,-50.0
14,chj,m,20,r,2,(-121.76378772032352, -121.76378772032348),26,-25,14,yes,x,5,x,0.4041750000033062,1,50,test1,2,0.4045114000036847,-70.0
14,chj,m,20,r,2,(-121.76378772032348, 121.76378772032349),24,-7,13,yes,x,5,x,0.37935709999874234,1,51,test1,2,0.3794577999942703,-52.0
14,chj,m,20,r,2,(172.20000000000002, 0.0),21,-25,14,no,m,6,m,0.5600654000008944,1,52,test1,2,0.5602245000045514,-52.0
14,chj,m,20,r,2,(-172.20000000000002, 2.1088417881317425e-14),25,3,1,no,m,6,m,0.558413799997652,1,53,test1,2,0.5585179000045173,-52.0
14,chj,m,20,r,2,(172.20000000000002, 0.0),21,5,2,no,m,6,m,0.5475026999920374,1,54,test1,2,0.5477425999997649,-52.0
14,chj,m,20,r,2,(-121.76378772032352, -121.76378772032348),26,-7,13,yes,x,5,x,0.414622899988899,1,55,test1,2,0.414780699997209,-52.0
14,chj,m,20,r,2,(121.76378772032346, -121.76378772032352),28,-5,12,yes,x,5,x,0.6133140000019921,1,56,test1,2,0.6134781000000658,-50.0
14,chj,m,20,r,2,(172.20000000000002, 0.0),21,5,2,yes,x,5,x,0.48861840000608936,1,57,test1,2,0.48880150000331923,-40.0
14,chj,m,20,r,2,(-121.76378772032348, 121.76378772032349),24,-5,12,yes,x,5,x,0.45290819999354426,1,58,test1,2,0.45348669998929836,-50.0
14,chj,m,20,r,2,(-121.76378772032348, 121.76378772032349),24,25,4,yes,x,5,x,0.39741600000706967,1,59,test1,2,0.39803500000562053,-20.0
14,chj,m,20,r,2,(-172.20000000000002, 2.1088417881317425e-14),25,-25,14,yes,x,5,x,0.3424210000084713,1,60,test1,2,0.342697699990822,-70.0
14,chj,m,20,r,2,(121.76378772032346, -121.76378772032352),28,-5,12,yes,x,5,x,0.3638836000027368,1,61,test1,2,0.3640328000037698,-50.0
14,chj,m,20,r,2,(-121.76378772032348, 121.76378772032349),24,-25,14,no,m,6,x,0.637032900005579,0,62,test1,2,0.637157200006186,-50.0
14,chj,m,20,r,2,(1.0544208940658713e-14, 172.20000000000002),23,-3,11,yes,x,5,x,0.4751599000010174,1,63,test1,2,0.47530160000314936,-48.0
14,chj,m,20,r,2,(-3.163262682197613e-14, -172.20000000000002),27,7,3,yes,x,5,x,0.4865358999959426,1,64,test1,2,0.4866397000005236,-38.0
14,chj,m,20,r,2,(-3.163262682197613e-14, -172.20000000000002),27,25,4,yes,x,5,x,0.39704080000228714,1,65,test1,2,0.39717079998808913,-20.0
14,chj,m,20,r,2,(1.0544208940658713e-14, 172.20000000000002),23,-7,13,yes,x,5,x,0.4105457999976352,1,66,test1,2,0.41064999999071006,-52.0
14,chj,m,20,r,2,(172.20000000000002, 0.0),21,-7,13,yes,x,5,x,0.38420159999805037,1,67,test1,2,0.3843059000064386,-52.0
14,chj,m,20,r,2,(121.76378772032346, -121.76378772032352),28,3,1,no,m,6,x,0.3977110999985598,0,68,test1,2,0.39791230000264477,-52.0
14,chj,m,20,r,2,(1.0544208940658713e-14, 172.20000000000002),23,7,3,no,m,6,m,0.48735630000010133,1,69,test1,2,0.48774450000200886,-52.0
14,chj,m,20,r,2,(172.20000000000002, 0.0),21,-5,12,yes,x,5,x,0.4285347999975784,1,70,test1,2,0.42863880000368226,-50.0
14,chj,m,20,r,2,(172.20000000000002, 0.0),21,-5,12,no,m,6,m,0.6164056999987224,1,71,test1,2,0.6165664000000106,-50.0
14,chj,m,20,r,2,(121.76378772032349, 121.76378772032349),22,5,2,yes,x,5,x,0.5959915999992518,1,72,test1,2,0.5961982000007993,-40.0
14,chj,m,20,r,2,(-121.76378772032348, 121.76378772032349),24,-7,13,yes,x,5,x,0.3554224000108661,1,73,test1,2,0.3557903000037186,-52.0
14,chj,m,20,r,2,(121.76378772032346, -121.76378772032352),28,3,1,yes,x,5,m,0.4863541999948211,0,74,test1,2,0.4864856000058353,-42.0
14,chj,m,20,r,2,(121.76378772032349, 121.76378772032349),22,25,4,no,m,6,m,0.5022960000060266,1,75,test1,2,0.5023967000015546,-42.0
14,chj,m,20,r,2,(121.76378772032349, 121.76378772032349),22,-3,11,yes,x,5,x,0.5142141999967862,1,76,test1,2,0.514363800000865,-48.0
14,chj,m,20,r,2,(121.76378772032346, -121.76378772032352),28,25,4,no,m,6,m,0.597697999997763,1,77,test1,2,0.5979059999954188,-48.0
14,chj,m,20,r,2,(121.76378772032346, -121.76378772032352),28,25,4,yes,x,5,x,0.6144098000077065,1,78,test1,2,0.6145096999971429,-20.0
14,chj,m,20,r,2,(-3.163262682197613e-14, -172.20000000000002),27,5,2,yes,x,5,x,0.43172380000760313,1,79,test1,2,0.43228010000893846,-40.0
14,chj,m,20,r,2,(1.0544208940658713e-14, 172.20000000000002),23,-3,11,yes,x,5,x,0.5183762999949977,1,80,test1,2,0.5190061000030255,-48.0
14,chj,m,20,r,2,(-172.20000000000002, 2.1088417881317425e-14),25,3,1,yes,x,5,x,0.591025300003821,1,81,test1,2,0.5913837999978568,-42.0
14,chj,m,20,r,2,(-121.76378772032352, -121.76378772032348),26,-7,13,no,m,6,m,0.5889910999976564,1,82,test1,2,0.5890862000087509,-42.0
14,chj,m,20,r,2,(-121.76378772032352, -121.76378772032348),26,-3,11,yes,x,5,x,0.9525190999993356,1,83,test1,2,0.9526353000110248,-48.0
14,chj,m,20,r,2,(121.76378772032346, -121.76378772032352),28,-25,14,no,m,6,m,0.5292594000056852,1,84,test1,2,0.5294182000070577,-48.0
14,chj,m,20,r,2,(-172.20000000000002, 2.1088417881317425e-14),25,5,2,yes,x,5,x,0.4087310000031721,1,85,test1,2,0.40896309999516234,-40.0
14,chj,m,20,r,2,(-121.76378772032348, 121.76378772032349),24,-3,11,yes,x,5,x,0.42097360000479966,1,86,test1,2,0.4211333999992348,-48.0
14,chj,m,20,r,2,(-3.163262682197613e-14, -172.20000000000002),27,3,1,no,m,6,m,0.5677187999972375,1,87,test1,2,0.5681320000003325,-48.0
14,chj,m,20,r,2,(-172.20000000000002, 2.1088417881317425e-14),25,25,4,yes,x,5,x,0.5730845999933081,1,88,test1,2,0.5731850000011036,-20.0
14,chj,m,20,r,2,(172.20000000000002, 0.0),21,25,4,yes,x,5,x,0.38588370000070427,1,89,test1,2,0.3861289000051329,-20.0
14,chj,m,20,r,2,(-172.20000000000002, 2.1088417881317425e-14),25,-5,12,yes,x,5,x,0.4247243999998318,1,90,test1,2,0.4249625999946147,-50.0
14,chj,m,20,r,2,(1.0544208940658713e-14, 172.20000000000002),23,3,1,no,m,6,m,0.49437359999865294,1,91,test1,2,0.4946213000075659,-50.0
14,chj,m,20,r,2,(-121.76378772032352, -121.76378772032348),26,-3,11,no,m,6,m,0.5357156999962172,1,92,test1,2,0.5361661999922944,-50.0
14,chj,m,20,r,2,(-172.20000000000002, 2.1088417881317425e-14),25,7,3,yes,x,5,x,0.3686262999981409,1,93,test1,2,0.36887139998725615,-38.0
14,chj,m,20,r,2,(-3.163262682197613e-14, -172.20000000000002),27,5,2,yes,x,5,x,0.43567910000274424,1,94,test1,2,0.4358399999910034,-40.0
14,chj,m,20,r,2,(172.20000000000002, 0.0),21,-5,12,yes,x,5,x,0.3937820000137435,1,95,test1,2,0.39395140000851825,-50.0
14,chj,m,20,r,2,(-121.76378772032348, 121.76378772032349),24,5,2,no,m,6,m,0.6269553000020096,1,96,test1,2,0.6270545000006678,-50.0
14,chj,m,20,r,2,(1.0544208940658713e-14, 172.20000000000002),23,-7,13,yes,x,5,x,0.4587286000023596,1,1,test2,2,0.458829399998649,-52.0
14,chj,m,20,r,2,(121.76378772032349, 121.76378772032349),22,-7,13,yes,x,5,x,0.44852249999530613,1,2,test2,2,0.4491785999998683,-52.0
14,chj,m,20,r,2,(-121.76378772032348, 121.76378772032349),24,7,3,yes,x,5,x,0.3925312000064878,1,3,test2,2,0.392636799995671,-38.0
14,chj,m,20,r,2,(121.76378772032349, 121.76378772032349),22,-5,12,no,m,6,m,0.5322302999993553,1,4,test2,2,0.5323872000008123,-38.0
14,chj,m,20,r,2,(-121.76378772032348, 121.76378772032349),24,-5,12,yes,x,5,x,0.3624405000009574,1,5,test2,2,0.36277990000962745,-50.0
14,chj,m,20,r,2,(121.76378772032346, -121.76378772032352),28,25,4,yes,x,5,x,0.4058686999924248,1,6,test2,2,0.40609720000065863,-20.0
14,chj,m,20,r,2,(1.0544208940658713e-14, 172.20000000000002),23,5,2,no,m,6,m,0.6918874999973923,1,7,test2,2,0.691983299999265,-20.0
14,chj,m,20,r,2,(121.76378772032349, 121.76378772032349),22,-7,13,yes,x,5,x,0.45436799999151845,1,8,test2,2,0.4545341999910306,-52.0
14,chj,m,20,r,2,(-3.163262682197613e-14, -172.20000000000002),27,25,4,no,m,6,m,0.530366299994057,1,9,test2,2,0.5304801000020234,-52.0
14,chj,m,20,r,2,(172.20000000000002, 0.0),21,25,4,yes,x,5,x,0.40860439999960363,1,10,test2,2,0.408908600002178,-20.0
14,chj,m,20,r,2,(-121.76378772032352, -121.76378772032348),26,25,4,yes,x,5,x,0.32925360000808723,1,11,test2,2,0.3299602000042796,-20.0
14,chj,m,20,r,2,(-3.163262682197613e-14, -172.20000000000002),27,7,3,no,m,6,m,0.4646423000085633,1,12,test2,2,0.464794500003336,-20.0
14,chj,m,20,r,2,(-172.20000000000002, 2.1088417881317425e-14),25,-3,11,no,m,6,m,0.48960580000129994,1,13,test2,2,0.48994329999550246,-20.0
14,chj,m,20,r,2,(172.20000000000002, 0.0),21,3,1,no,m,6,m,0.5041612000059104,1,14,test2,2,0.5045323999947868,-20.0
14,chj,m,20,r,2,(-172.20000000000002, 2.1088417881317425e-14),25,-25,14,yes,x,5,x,0.3437395000073593,1,15,test2,2,0.34399239999765996,-70.0
14,chj,m,20,r,2,(172.20000000000002, 0.0),21,3,1,yes,x,5,x,0.666161800007103,1,16,test2,2,0.6662631000071997,-42.0
14,chj,m,20,r,2,(1.0544208940658713e-14, 172.20000000000002),23,7,3,yes,x,5,x,0.4201506999961566,1,17,test2,2,0.42025370000919793,-38.0
14,chj,m,20,r,2,(172.20000000000002, 0.0),21,-7,13,no,m,6,m,0.5614246000041021,1,18,test2,2,0.5615184000052977,-38.0
14,chj,m,20,r,2,(-121.76378772032352, -121.76378772032348),26,3,1,yes,x,5,x,0.5677900000009686,1,19,test2,2,0.5681717999977991,-42.0
14,chj,m,20,r,2,(-121.76378772032352, -121.76378772032348),26,25,4,no,m,6,m,0.47615590000350494,1,20,test2,2,0.4763712999993004,-42.0
14,chj,m,20,r,2,(-121.76378772032352, -121.76378772032348),26,7,3,yes,x,5,x,0.41245319999870844,1,21,test2,2,0.4126438999956008,-38.0
14,chj,m,20,r,2,(121.76378772032349, 121.76378772032349),22,-3,11,yes,x,5,x,0.5081028999993578,1,22,test2,2,0.50847889999568,-48.0
14,chj,m,20,r,2,(-121.76378772032352, -121.76378772032348),26,7,3,no,m,6,m,0.43516079999972135,1,23,test2,2,0.43526069998915773,-48.0
14,chj,m,20,r,2,(1.0544208940658713e-14, 172.20000000000002),23,-25,14,no,m,6,m,0.47438770000007935,1,24,test2,2,0.4745954999962123,-48.0
14,chj,m,20,r,2,(121.76378772032349, 121.76378772032349),22,-25,14,yes,x,5,x,0.39414239999314304,1,25,test2,2,0.3943096000002697,-70.0
14,chj,m,20,r,2,(1.0544208940658713e-14, 172.20000000000002),23,3,1,yes,x,5,x,0.554115399994771,1,26,test2,2,0.5542121000034967,-42.0
14,chj,m,20,r,2,(1.0544208940658713e-14, 172.20000000000002),23,-25,14,yes,x,5,x,0.3792719000048237,1,27,test2,2,0.3795065999875078,-70.0
14,chj,m,20,r,2,(-3.163262682197613e-14, -172.20000000000002),27,-3,11,yes,x,5,x,0.5347279999987222,1,28,test2,2,0.5351149000052828,-48.0
14,chj,m,20,r,2,(-121.76378772032352, -121.76378772032348),26,-25,14,no,m,6,m,0.6765997000038624,1,29,test2,2,0.6767026000015903,-48.0
14,chj,m,20,r,2,(172.20000000000002, 0.0),21,3,1,yes,x,5,x,0.584961700005806,1,30,test2,2,0.5854051999922376,-42.0
14,chj,m,20,r,2,(172.20000000000002, 0.0),21,-7,13,yes,x,5,x,0.3907184999989113,1,31,test2,2,0.39081630000146106,-52.0
14,chj,m,20,r,2,(1.0544208940658713e-14, 172.20000000000002),23,5,2,yes,x,5,x,0.43870260000403505,1,32,test2,2,0.43897120001201984,-40.0
14,chj,m,20,r,2,(172.20000000000002, 0.0),21,-25,14,yes,x,5,x,0.38237439999647904,1,33,test2,2,0.38266740000108257,-70.0
14,chj,m,20,r,2,(121.76378772032349, 121.76378772032349),22,-25,14,yes,x,5,x,0.3606499999877997,1,34,test2,2,0.3607823000056669,-70.0
14,chj,m,20,r,2,(121.76378772032346, -121.76378772032352),28,-7,13,no,m,6,x,0.7150033000070835,0,35,test2,2,0.7151067000086186,-70.0
14,chj,m,20,r,2,(121.76378772032349, 121.76378772032349),22,3,1,yes,x,5,x,0.5899242000014056,1,36,test2,2,0.5902179999975488,-42.0
14,chj,m,20,r,2,(1.0544208940658713e-14, 172.20000000000002),23,-5,12,no,m,6,m,0.5969366999925114,1,37,test2,2,0.5970581000001403,-42.0
14,chj,m,20,r,2,(121.76378772032349, 121.76378772032349),22,7,3,yes,x,5,x,0.428240299996105,1,38,test2,2,0.4286003000015626,-38.0
14,chj,m,20,r,2,(-121.76378772032352, -121.76378772032348),26,25,4,yes,x,5,x,0.35873890000220854,1,39,test2,2,0.35921899999084417,-20.0
14,chj,m,20,r,2,(121.76378772032346, -121.76378772032352),28,-3,11,yes,x,5,m,0.5667051999917021,0,40,test2,2,0.5671225000114646,-48.0
14,chj,m,20,r,2,(-3.163262682197613e-14, -172.20000000000002),27,-5,12,yes,x,5,x,0.4738666000048397,1,41,test2,2,0.4746000000013737,-50.0
14,chj,m,20,r,2,(1.0544208940658713e-14, 172.20000000000002),23,25,4,no,m,6,m,0.5765897999954177,1,42,test2,2,0.5768973999947775,-50.0
14,chj,m,20,r,2,(1.0544208940658713e-14, 172.20000000000002),23,-25,14,yes,x,5,x,0.38212739999289624,1,43,test2,2,0.38235260000510607,-70.0
14,chj,m,20,r,2,(121.76378772032346, -121.76378772032352),28,5,2,yes,x,5,x,0.5624310999992304,1,44,test2,2,0.56265049999638,-40.0
14,chj,m,20,r,2,(-121.76378772032348, 121.76378772032349),24,25,4,no,m,6,m,0.4349375999881886,1,45,test2,2,0.43507819999649655,-40.0
14,chj,m,20,r,2,(-3.163262682197613e-14, -172.20000000000002),27,25,4,yes,x,5,x,0.3763848999951733,1,46,test2,2,0.37660909999976866,-20.0
14,chj,m,20,r,2,(121.76378772032346, -121.76378772032352),28,7,3,yes,x,5,x,0.41344109999772627,1,47,test2,2,0.4135441000107676,-38.0
14,chj,m,20,r,2,(172.20000000000002, 0.0),21,-3,11,no,m,6,m,0.49556209999718703,1,48,test2,2,0.49590539999189787,-38.0
14,chj,m,20,r,2,(172.20000000000002, 0.0),21,7,3,yes,x,5,x,0.43285409999953117,1,49,test2,2,0.4330703000014182,-38.0
14,chj,m,20,r,2,(-3.163262682197613e-14, -172.20000000000002),27,-25,14,yes,x,5,x,0.3572413000074448,1,50,test2,2,0.3573517000040738,-70.0
14,chj,m,20,r,2,(-3.163262682197613e-14, -172.20000000000002),27,-5,12,no,m,6,m,0.35253309999825433,1,51,test2,2,0.35294349999458063,-70.0
14,chj,m,20,r,2,(1.0544208940658713e-14, 172.20000000000002),23,-7,13,no,m,6,m,0.3704379999981029,1,52,test2,2,0.37066390000109095,-70.0
14,chj,m,20,r,2,(-121.76378772032352, -121.76378772032348),26,5,2,no,m,6,m,0.4986283999896841,1,53,test2,2,0.4987554999970598,-70.0
14,chj,m,20,r,2,(121.76378772032349, 121.76378772032349),22,7,3,yes,x,5,x,0.3982127999915974,1,54,test2,2,0.3984968000004301,-38.0
14,chj,m,20,r,2,(-121.76378772032348, 121.76378772032349),24,7,3,no,m,6,m,0.3909168999962276,1,55,test2,2,0.39115290000336245,-38.0
14,chj,m,20,r,2,(-121.76378772032348, 121.76378772032349),24,-25,14,yes,x,5,x,0.3859171999938553,1,56,test2,2,0.38612470000225585,-70.0
14,chj,m,20,r,2,(121.76378772032346, -121.76378772032352),28,-5,12,no,m,6,m,0.4417174999980489,1,57,test2,2,0.4418957000016235,-70.0
14,chj,m,20,r,2,(-3.163262682197613e-14, -172.20000000000002),27,3,1,yes,x,5,m,0.4804574999870965,0,58,test2,2,0.48069509999186266,-42.0
14,chj,m,20,r,2,(-3.163262682197613e-14, -172.20000000000002),27,-25,14,no,m,6,m,0.5141885000048205,1,59,test2,2,0.51480520000041,-42.0
14,chj,m,20,r,2,(-3.163262682197613e-14, -172.20000000000002),27,7,3,yes,x,5,x,0.3838629999954719,1,60,test2,2,0.3840578000090318,-38.0
14,chj,m,20,r,2,(172.20000000000002, 0.0),21,25,4,no,m,6,m,0.5473651000065729,1,61,test2,2,0.5474797000060789,-38.0
14,chj,m,20,r,2,(121.76378772032349, 121.76378772032349),22,-25,14,no,m,6,m,0.4564581000013277,1,62,test2,2,0.45655689999694005,-38.0
14,chj,m,20,r,2,(121.76378772032346, -121.76378772032352),28,7,3,yes,x,5,x,0.40570370000205,1,63,test2,2,0.40595219998795073,-38.0
14,chj,m,20,r,2,(-172.20000000000002, 2.1088417881317425e-14),25,-25,14,no,m,6,m,0.46459229999163654,1,64,test2,2,0.46496250000200234,-38.0
14,chj,m,20,r,2,(-121.76378772032352, -121.76378772032348),26,-5,12,yes,x,5,x,0.430798399989726,1,65,test2,2,0.4309947000001557,-50.0
14,chj,m,20,r,2,(121.76378772032346, -121.76378772032352),28,5,2,yes,x,5,x,0.5591174000001047,1,66,test2,2,0.5592133000027388,-40.0
14,chj,m,20,r,2,(121.76378772032346, -121.76378772032352),28,-3,11,no,m,6,m,0.6612995000032242,1,67,test2,2,0.6614037999970606,-40.0
14,chj,m,20,r,2,(-121.76378772032352, -121.76378772032348),26,5,2,yes,x,5,x,0.5021831999911228,1,68,test2,2,0.5022819999867352,-40.0
14,chj,m,20,r,2,(-172.20000000000002, 2.1088417881317425e-14),25,5,2,no,m,6,m,0.5337436999980127,1,69,test2,2,0.5340801999991527,-40.0
14,chj,m,20,r,2,(-121.76378772032348, 121.76378772032349),24,3,1,no,m,6,m,0.5570722999982536,1,70,test2,2,0.5571945999981835,-40.0
14,chj,m,20,r,2,(121.76378772032349, 121.76378772032349),22,5,2,yes,x,5,x,0.4132419999950798,1,71,test2,2,0.4134934999892721,-40.0
14,chj,m,20,r,2,(1.0544208940658713e-14, 172.20000000000002),23,3,1,yes,x,5,x,0.44930150000436697,1,72,test2,2,0.44942669999727514,-42.0
14,chj,m,20,r,2,(1.0544208940658713e-14, 172.20000000000002),23,7,3,yes,x,5,x,0.4067440000071656,1,73,test2,2,0.40686469999491237,-38.0
14,chj,m,20,r,2,(172.20000000000002, 0.0),21,5,2,yes,x,5,x,0.5163269999902695,1,74,test2,2,0.516441500003566,-40.0
14,chj,m,20,r,2,(121.76378772032349, 121.76378772032349),22,-5,12,yes,x,5,x,0.4530047000007471,1,75,test2,2,0.4531540000025416,-50.0
14,chj,m,20,r,2,(-3.163262682197613e-14, -172.20000000000002),27,-7,13,yes,x,5,x,0.4210323999868706,1,76,test2,2,0.4212476999964565,-52.0
14,chj,m,20,r,2,(-172.20000000000002, 2.1088417881317425e-14),25,25,4,yes,x,5,x,0.3982894000073429,1,77,test2,2,0.39838750001217704,-20.0
14,chj,m,20,r,2,(121.76378772032349, 121.76378772032349),22,-3,11,no,m,6,m,0.4938782999961404,1,78,test2,2,0.4940668000053847,-20.0
14,chj,m,20,r,2,(121.76378772032346, -121.76378772032352),28,3,1,yes,x,5,x,0.5371832000091672,1,79,test2,2,0.5374031999963336,-42.0
14,chj,m,20,r,2,(-121.76378772032348, 121.76378772032349),24,-3,11,no,m,6,m,0.5955470999906538,1,80,test2,2,0.5957061000081012,-42.0
14,chj,m,20,r,2,(121.76378772032349, 121.76378772032349),22,7,3,no,m,6,m,0.49749619999784045,1,81,test2,2,0.4977978999959305,-42.0
14,chj,m,20,r,2,(1.0544208940658713e-14, 172.20000000000002),23,-3,11,no,m,6,m,0.5561789000057615,1,82,test2,2,0.5564875999989454,-42.0
14,chj,m,20,r,2,(-3.163262682197613e-14, -172.20000000000002),27,-25,14,yes,x,5,x,0.35091100000136066,1,83,test2,2,0.3511997000023257,-70.0
14,chj,m,20,r,2,(172.20000000000002, 0.0),21,7,3,yes,x,5,x,0.40860360000806395,1,84,test2,2,0.4087084000057075,-38.0
14,chj,m,20,r,2,(-121.76378772032352, -121.76378772032348),26,5,2,yes,x,5,x,0.6057865999900969,1,85,test2,2,0.6060782999993535,-40.0
14,chj,m,20,r,2,(-172.20000000000002, 2.1088417881317425e-14),25,-5,12,no,m,6,m,0.4124191000009887,1,86,test2,2,0.41253290000895504,-40.0
14,chj,m,20,r,2,(121.76378772032346, -121.76378772032352),28,-25,14,yes,x,5,x,0.36693340000056196,1,87,test2,2,0.36704650000319816,-70.0
14,chj,m,20,r,2,(121.76378772032349, 121.76378772032349),22,3,1,no,m,6,m,0.45907939999597147,1,88,test2,2,0.4592992999969283,-70.0
14,chj,m,20,r,2,(-121.76378772032348, 121.76378772032349),24,25,4,yes,x,5,x,0.34978799999225885,1,89,test2,2,0.35022659999958705,-20.0
14,chj,m,20,r,2,(121.76378772032349, 121.76378772032349),22,25,4,yes,x,5,x,0.3598612000059802,1,90,test2,2,0.3599956999969436,-20.0
14,chj,m,20,r,2,(172.20000000000002, 0.0),21,7,3,no,m,6,m,0.4187594000104582,1,91,test2,2,0.419060799991712,-20.0
14,chj,m,20,r,2,(1.0544208940658713e-14, 172.20000000000002),23,-5,12,yes,x,5,x,0.3591980999917723,1,92,test2,2,0.3598168999888003,-50.0
14,chj,m,20,r,2,(121.76378772032346, -121.76378772032352),28,-7,13,yes,x,5,x,0.4044897999992827,1,93,test2,2,0.4045919999916805,-52.0
14,chj,m,20,r,2,(-121.76378772032348, 121.76378772032349),24,-7,13,no,m,6,m,0.4845759000018006,1,94,test2,2,0.484949300007429,-52.0
14,chj,m,20,r,2,(-3.163262682197613e-14, -172.20000000000002),27,3,1,yes,x,5,x,0.7621813000005204,1,95,test2,2,0.7625711999862688,-42.0
14,chj,m,20,r,2,(-172.20000000000002, 2.1088417881317425e-14),25,7,3,yes,x,5,x,0.36557409999659285,1,96,test2,2,0.3656907999975374,-38.0
14,chj,m,20,r,2,(-121.76378772032352, -121.76378772032348),26,3,1,yes,x,5,m,0.5508253000007244,0,1,test1,3,0.5515132000000449,-42.0
14,chj,m,20,r,2,(-3.163262682197613e-14, -172.20000000000002),27,-7,13,yes,x,5,x,0.3405500000080792,1,2,test1,3,0.34090809999906924,-52.0
14,chj,m,20,r,2,(121.76378772032346, -121.76378772032352),28,7,3,no,m,6,m,0.5986049000057392,1,3,test1,3,0.5989759999938542,-52.0
14,chj,m,20,r,2,(-121.76378772032348, 121.76378772032349),24,-5,12,no,m,6,m,0.5339426999998977,1,4,test1,3,0.5341634000069462,-52.0
14,chj,m,20,r,2,(121.76378772032349, 121.76378772032349),22,-7,13,no,m,6,m,0.49587650000466965,1,5,test1,3,0.49623190000420436,-52.0
14,chj,m,20,r,2,(-121.76378772032348, 121.76378772032349),24,7,3,yes,x,5,x,0.3970970000082161,1,6,test1,3,0.39749840000877157,-38.0
14,chj,m,20,r,2,(-172.20000000000002, 2.1088417881317425e-14),25,-3,11,yes,x,5,x,0.6430784999975003,1,7,test1,3,0.6432444999954896,-48.0
14,chj,m,20,r,2,(1.0544208940658713e-14, 172.20000000000002),23,25,4,yes,x,5,x,0.4537939000001643,1,8,test1,3,0.45411849999800324,-20.0
14,chj,m,20,r,2,(1.0544208940658713e-14, 172.20000000000002),23,-5,12,yes,x,5,x,0.6382011999958195,1,9,test1,3,0.6383309999946505,-50.0
14,chj,m,20,r,2,(-172.20000000000002, 2.1088417881317425e-14),25,-3,11,yes,x,5,x,0.5717185999965295,1,10,test1,3,0.5719498000107706,-48.0
14,chj,m,20,r,2,(-121.76378772032348, 121.76378772032349),24,3,1,yes,x,5,x,0.4746642999962205,1,11,test1,3,0.47482469999522436,-42.0
14,chj,m,20,r,2,(-172.20000000000002, 2.1088417881317425e-14),25,7,3,no,m,6,x,0.6051585000095656,0,12,test1,3,0.605327799989027,-42.0
14,chj,m,20,r,2,(1.0544208940658713e-14, 172.20000000000002),23,25,4,yes,x,5,x,0.37306009999883827,1,13,test1,3,0.3731984000041848,-20.0
14,chj,m,20,r,2,(-172.20000000000002, 2.1088417881317425e-14),25,5,2,yes,x,5,x,0.382923999990453,1,14,test1,3,0.38333079998847097,-40.0
14,chj,m,20,r,2,(-121.76378772032348, 121.76378772032349),24,5,2,yes,x,5,x,0.3907935000024736,1,15,test1,3,0.39092979999259114,-40.0
14,chj,m,20,r,2,(172.20000000000002, 0.0),21,-3,11,yes,x,5,x,0.5472354999947129,1,16,test1,3,0.5476617000094848,-48.0
14,chj,m,20,r,2,(1.0544208940658713e-14, 172.20000000000002),23,5,2,yes,x,5,x,0.7888447000004817,1,17,test1,3,0.7890880999912042,-40.0
14,chj,m,20,r,2,(121.76378772032349, 121.76378772032349),22,-5,12,yes,x,5,x,0.4695408999978099,1,18,test1,3,0.4697714000067208,-50.0
14,chj,m,20,r,2,(-121.76378772032352, -121.76378772032348),26,7,3,yes,x,5,x,0.4289755000063451,1,19,test1,3,0.4291010000015376,-38.0
14,chj,m,20,r,2,(-3.163262682197613e-14, -172.20000000000002),27,5,2,no,m,6,m,0.6134564999956638,1,20,test1,3,0.6136834999924758,-38.0
14,chj,m,20,r,2,(-172.20000000000002, 2.1088417881317425e-14),25,-5,12,yes,x,5,x,0.45209340000292286,1,21,test1,3,0.4523373999982141,-50.0
14,chj,m,20,r,2,(121.76378772032349, 121.76378772032349),22,25,4,yes,x,5,x,0.38824749999912456,1,22,test1,3,0.3884949999919627,-20.0
14,chj,m,20,r,2,(-121.76378772032348, 121.76378772032349),24,-3,11,yes,x,5,x,0.45176070000161417,1,23,test1,3,0.45196890000079293,-48.0
14,chj,m,20,r,2,(121.76378772032346, -121.76378772032352),28,-3,11,yes,x,5,x,0.5447051000082865,1,24,test1,3,0.5448220999969635,-48.0
14,chj,m,20,r,2,(121.76378772032346, -121.76378772032352),28,5,2,no,m,6,m,0.5133399000042118,1,25,test1,3,0.5135812999942573,-48.0
14,chj,m,20,r,2,(-172.20000000000002, 2.1088417881317425e-14),25,-7,13,yes,x,5,x,0.3882875999988755,1,26,test1,3,0.3885580000060145,-52.0
14,chj,m,20,r,2,(-121.76378772032352, -121.76378772032348),26,-5,12,yes,x,5,x,0.3767216999985976,1,27,test1,3,0.37690289999591187,-50.0
14,chj,m,20,r,2,(121.76378772032349, 121.76378772032349),22,5,2,no,m,6,m,0.5129270999896107,1,28,test1,3,0.5131208000093466,-50.0
14,chj,m,20,r,2,(-172.20000000000002, 2.1088417881317425e-14),25,25,4,no,m,6,m,0.6131635999918217,1,29,test1,3,0.6134575000032783,-50.0
14,chj,m,20,r,2,(172.20000000000002, 0.0),21,-25,14,yes,x,5,x,0.47936069998831954,1,30,test1,3,0.47945509999408387,-70.0
14,chj,m,20,r,2,(-172.20000000000002, 2.1088417881317425e-14),25,3,1,yes,x,5,x,0.5891619000030914,1,31,test1,3,0.5895424999907846,-42.0
14,chj,m,20,r,2,(-172.20000000000002, 2.1088417881317425e-14),25,-7,13,yes,x,5,x,0.4587562000087928,1,32,test1,3,0.45898890000535175,-52.0
14,chj,m,20,r,2,(121.76378772032346, -121.76378772032352),28,-7,13,yes,x,5,x,0.4914210999995703,1,33,test1,3,0.4915413999988232,-52.0
14,chj,m,20,r,2,(-121.76378772032352, -121.76378772032348),26,-7,13,yes,x,5,x,0.42356179999478627,1,34,test1,3,0.42367530000046827,-52.0
14,chj,m,20,r,2,(121.76378772032346, -121.76378772032352),28,-25,14,yes,x,5,x,0.4065337000065483,1,35,test1,3,0.4067501999961678,-70.0
14,chj,m,20,r,2,(-121.76378772032348, 121.76378772032349),24,3,1,yes,x,5,m,0.612402500002645,0,36,test1,3,0.6127538000000641,-42.0
14,chj,m,20,r,2,(-121.76378772032352, -121.76378772032348),26,-25,14,yes,x,5,x,0.37890799999877345,1,37,test1,3,0.3790372999937972,-70.0
14,chj,m,20,r,2,(-3.163262682197613e-14, -172.20000000000002),27,-3,11,yes,x,5,x,0.510392199998023,1,38,test1,3,0.510560800001258,-48.0
14,chj,m,20,r,2,(121.76378772032349, 121.76378772032349),22,3,1,yes,x,5,x,0.8230340000009164,1,39,test1,3,0.8231522999994922,-42.0
14,chj,m,20,r,2,(-121.76378772032352, -121.76378772032348),26,-3,11,yes,x,5,x,0.6878575000009732,1,40,test1,3,0.6882914000016171,-48.0
14,chj,m,20,r,2,(-172.20000000000002, 2.1088417881317425e-14),25,-7,13,no,m,6,m,0.3908945000002859,1,41,test1,3,0.3909962000034284,-48.0
14,chj,m,20,r,2,(-121.76378772032352, -121.76378772032348),26,-5,12,no,m,6,m,0.5371841000014683,1,42,test1,3,0.5374746000015875,-48.0
14,chj,m,20,r,2,(-121.76378772032352, -121.76378772032348),26,3,1,no,m,6,m,0.4432253999984823,1,43,test1,3,0.4433372000057716,-48.0
14,chj,m,20,r,2,(-3.163262682197613e-14, -172.20000000000002),27,-7,13,no,m,6,m,0.5005748999974458,1,44,test1,3,0.5006743999983883,-48.0
14,chj,m,20,r,2,(-121.76378772032348, 121.76378772032349),24,5,2,yes,x,5,m,0.5557501000002958,0,45,test1,3,0.5561198000068543,-40.0
14,chj,m,20,r,2,(172.20000000000002, 0.0),21,-3,11,yes,x,5,x,0.7066511000011815,1,46,test1,3,0.7072640000114916,-48.0
14,chj,m,20,r,2,(-3.163262682197613e-14, -172.20000000000002),27,-3,11,no,m,6,m,0.7917980000056559,1,47,test1,3,0.7920302999991691,-48.0
14,chj,m,20,r,2,(-121.76378772032348, 121.76378772032349),24,-25,14,yes,x,5,x,0.35012770000321325,1,48,test1,3,0.35049670000444166,-70.0
14,chj,m,20,r,2,(-3.163262682197613e-14, -172.20000000000002),27,-5,12,yes,x,5,x,0.5255218999955105,1,49,test1,3,0.5256231999956071,-50.0
14,chj,m,20,r,2,(-121.76378772032352, -121.76378772032348),26,-25,14,yes,x,5,x,0.39257340000767726,1,50,test1,3,0.3930184999917401,-70.0
14,chj,m,20,r,2,(-121.76378772032348, 121.76378772032349),24,-7,13,yes,x,5,x,0.4092800999933388,1,51,test1,3,0.40941259999817703,-52.0
14,chj,m,20,r,2,(172.20000000000002, 0.0),21,-25,14,no,m,6,m,0.6145716000028187,1,52,test1,3,0.6149428999924567,-52.0
14,chj,m,20,r,2,(-172.20000000000002, 2.1088417881317425e-14),25,3,1,no,m,6,m,0.5850734999985434,1,53,test1,3,0.5854784999974072,-52.0
14,chj,m,20,r,2,(172.20000000000002, 0.0),21,5,2,no,m,6,m,0.6450685999880079,1,54,test1,3,0.645184099994367,-52.0
14,chj,m,20,r,2,(-121.76378772032352, -121.76378772032348),26,-7,13,yes,x,5,x,0.4148733999900287,1,55,test1,3,0.41530490000150166,-52.0
14,chj,m,20,r,2,(121.76378772032346, -121.76378772032352),28,-5,12,yes,x,5,x,0.5245322000118904,1,56,test1,3,0.5249117000057595,-50.0
14,chj,m,20,r,2,(172.20000000000002, 0.0),21,5,2,yes,x,5,x,0.5893470000009984,1,57,test1,3,0.5894728999992367,-40.0
14,chj,m,20,r,2,(-121.76378772032348, 121.76378772032349),24,-5,12,yes,x,5,x,0.39313969999784604,1,58,test1,3,0.39349180000135675,-50.0
14,chj,m,20,r,2,(-121.76378772032348, 121.76378772032349),24,25,4,yes,x,5,x,0.4235612000047695,1,59,test1,3,0.4238033000001451,-20.0
14,chj,m,20,r,2,(-172.20000000000002, 2.1088417881317425e-14),25,-25,14,yes,x,5,x,0.5651473000034457,1,60,test1,3,0.5652686000103131,-70.0
14,chj,m,20,r,2,(121.76378772032346, -121.76378772032352),28,-5,12,yes,x,5,x,0.614426399988588,1,61,test1,3,0.6145296999893617,-50.0
14,chj,m,20,r,2,(-121.76378772032348, 121.76378772032349),24,-25,14,no,m,6,m,0.7280144999967888,1,62,test1,3,0.7281814000016311,-50.0
14,chj,m,20,r,2,(1.0544208940658713e-14, 172.20000000000002),23,-3,11,yes,x,5,x,0.5017058000084944,1,63,test1,3,0.5019768000056501,-48.0
14,chj,m,20,r,2,(-3.163262682197613e-14, -172.20000000000002),27,7,3,yes,x,5,x,0.49046120001003146,1,64,test1,3,0.49084189999848604,-38.0
14,chj,m,20,r,2,(-3.163262682197613e-14, -172.20000000000002),27,25,4,yes,x,5,x,0.3925065999937942,1,65,test1,3,0.39277550000406336,-20.0
14,chj,m,20,r,2,(1.0544208940658713e-14, 172.20000000000002),23,-7,13,yes,x,5,x,0.41694559999450576,1,66,test1,3,0.41769139999814797,-52.0
14,chj,m,20,r,2,(172.20000000000002, 0.0),21,-7,13,yes,x,5,x,0.3875323000102071,1,67,test1,3,0.3877719000010984,-52.0
14,chj,m,20,r,2,(121.76378772032346, -121.76378772032352),28,3,1,no,m,6,m,0.7107605000055628,1,68,test1,3,0.7109961999958614,-52.0
14,chj,m,20,r,2,(1.0544208940658713e-14, 172.20000000000002),23,7,3,no,m,6,m,0.5924068999884184,1,69,test1,3,0.5928642000071704,-52.0
14,chj,m,20,r,2,(172.20000000000002, 0.0),21,-5,12,yes,x,5,x,0.448023099990678,1,70,test1,3,0.44871369999600574,-50.0
14,chj,m,20,r,2,(172.20000000000002, 0.0),21,-5,12,no,m,6,m,0.5133847999968566,1,71,test1,3,0.5140277999889804,-50.0
14,chj,m,20,r,2,(121.76378772032349, 121.76378772032349),22,5,2,yes,x,5,x,0.4513862999883713,1,72,test1,3,0.4515294000011636,-40.0
14,chj,m,20,r,2,(-121.76378772032348, 121.76378772032349),24,-7,13,yes,x,5,x,0.3972937000071397,1,73,test1,3,0.39742420001130085,-52.0
14,chj,m,20,r,2,(121.76378772032346, -121.76378772032352),28,3,1,yes,x,5,m,0.5310638999944786,0,74,test1,3,0.5311708000081126,-42.0
14,chj,m,20,r,2,(121.76378772032349, 121.76378772032349),22,25,4,no,m,6,m,0.7266694999998435,1,75,test1,3,0.7267969999957131,-42.0
14,chj,m,20,r,2,(121.76378772032349, 121.76378772032349),22,-3,11,yes,x,5,x,0.524884700003895,1,76,test1,3,0.5251710000011371,-48.0
14,chj,m,20,r,2,(121.76378772032346, -121.76378772032352),28,25,4,no,m,6,m,0.7024830000009388,1,77,test1,3,0.7025882000016281,-48.0
14,chj,m,20,r,2,(121.76378772032346, -121.76378772032352),28,25,4,yes,x,5,x,0.4264050000056159,1,78,test1,3,0.4267002000124194,-20.0
14,chj,m,20,r,2,(-3.163262682197613e-14, -172.20000000000002),27,5,2,yes,x,5,x,0.4809238000016194,1,79,test1,3,0.48128739999083336,-40.0
14,chj,m,20,r,2,(1.0544208940658713e-14, 172.20000000000002),23,-3,11,yes,x,5,x,0.7989020999957575,1,80,test1,3,0.7990066000056686,-48.0
14,chj,m,20,r,2,(-172.20000000000002, 2.1088417881317425e-14),25,3,1,yes,x,5,x,0.6177958000043873,1,81,test1,3,0.6183782000007341,-42.0
14,chj,m,20,r,2,(-121.76378772032352, -121.76378772032348),26,-7,13,no,m,6,m,0.5610467000078643,1,82,test1,3,0.5612189999956172,-42.0
14,chj,m,20,r,2,(-121.76378772032352, -121.76378772032348),26,-3,11,yes,x,5,x,0.9332190999994054,1,83,test1,3,0.9334423999971477,-48.0
14,chj,m,20,r,2,(121.76378772032346, -121.76378772032352),28,-25,14,no,m,6,m,0.820801300011226,1,84,test1,3,0.8210438999958569,-48.0
14,chj,m,20,r,2,(-172.20000000000002, 2.1088417881317425e-14),25,5,2,yes,x,5,x,0.39818869999726303,1,85,test1,3,0.3982877000089502,-40.0
14,chj,m,20,r,2,(-121.76378772032348, 121.76378772032349),24,-3,11,yes,x,5,x,0.4983322999905795,1,86,test1,3,0.4985371000075247,-48.0
14,chj,m,20,r,2,(-3.163262682197613e-14, -172.20000000000002),27,3,1,no,m,6,m,0.6218373000010615,1,87,test1,3,0.6219544000050519,-48.0
14,chj,m,20,r,2,(-172.20000000000002, 2.1088417881317425e-14),25,25,4,yes,x,5,x,0.3848853999952553,1,88,test1,3,0.38531030000012834,-20.0
14,chj,m,20,r,2,(172.20000000000002, 0.0),21,25,4,yes,x,5,x,0.4114658999897074,1,89,test1,3,0.4118240999960108,-20.0
14,chj,m,20,r,2,(-172.20000000000002, 2.1088417881317425e-14),25,-5,12,yes,x,5,x,0.40383809999912046,1,90,test1,3,0.40393760000006296,-50.0
14,chj,m,20,r,2,(1.0544208940658713e-14, 172.20000000000002),23,3,1,no,m,6,m,1.3923217999981716,1,91,test1,3,1.3925630999874556,-50.0
14,chj,m,20,r,2,(-121.76378772032352, -121.76378772032348),26,-3,11,no,m,6,m,0.5579242999956477,1,92,test1,3,0.5584974000084912,-50.0
14,chj,m,20,r,2,(-172.20000000000002, 2.1088417881317425e-14),25,7,3,yes,x,5,x,0.3590731999865966,1,93,test1,3,0.35930379999626894,-38.0
14,chj,m,20,r,2,(-3.163262682197613e-14, -172.20000000000002),27,5,2,yes,x,5,x,0.43442909998702817,1,94,test1,3,0.4345452999987174,-40.0
14,chj,m,20,r,2,(172.20000000000002, 0.0),21,-5,12,yes,x,5,x,0.47386810000170954,1,95,test1,3,0.4741459000069881,-50.0
14,chj,m,20,r,2,(-121.76378772032348, 121.76378772032349),24,5,2,no,m,6,m,0.9263034000032349,1,96,test1,3,0.9264549000072293,-50.0
14,chj,m,20,r,2,(1.0544208940658713e-14, 172.20000000000002),23,-7,13,yes,x,5,x,0.500274799996987,1,1,test2,3,0.5005871000030311,-52.0
14,chj,m,20,r,2,(121.76378772032349, 121.76378772032349),22,-7,13,yes,x,5,x,0.4599748000036925,1,2,test2,3,0.46029650000855327,-52.0
14,chj,m,20,r,2,(-121.76378772032348, 121.76378772032349),24,7,3,yes,x,5,x,0.4563532999891322,1,3,test2,3,0.4566908999986481,-38.0
14,chj,m,20,r,2,(121.76378772032349, 121.76378772032349),22,-5,12,no,m,6,m,0.5634504999907222,1,4,test2,3,0.5636748999968404,-38.0
14,chj,m,20,r,2,(-121.76378772032348, 121.76378772032349),24,-5,12,yes,x,5,x,0.4106783000024734,1,5,test2,3,0.4110007000126643,-50.0
14,chj,m,20,r,2,(121.76378772032346, -121.76378772032352),28,25,4,yes,x,5,x,0.3870558000053279,1,6,test2,3,0.38718959999096114,-20.0
14,chj,m,20,r,2,(1.0544208940658713e-14, 172.20000000000002),23,5,2,no,m,6,m,0.4989371000119718,1,7,test2,3,0.4994899000012083,-20.0
14,chj,m,20,r,2,(121.76378772032349, 121.76378772032349),22,-7,13,yes,x,5,x,0.39494359999662265,1,8,test2,3,0.3951023000117857,-52.0
14,chj,m,20,r,2,(-3.163262682197613e-14, -172.20000000000002),27,25,4,no,m,6,m,0.8196718000108376,1,9,test2,3,0.8199613000033423,-52.0
14,chj,m,20,r,2,(172.20000000000002, 0.0),21,25,4,yes,x,5,x,0.4337541999993846,1,10,test2,3,0.43388910000794567,-20.0
14,chj,m,20,r,2,(-121.76378772032352, -121.76378772032348),26,25,4,yes,x,5,x,0.38200360001064837,1,11,test2,3,0.3822863000095822,-20.0
14,chj,m,20,r,2,(-3.163262682197613e-14, -172.20000000000002),27,7,3,no,m,6,m,0.5131907000031788,1,12,test2,3,0.5134718000044813,-20.0
14,chj,m,20,r,2,(-172.20000000000002, 2.1088417881317425e-14),25,-3,11,no,m,6,m,0.53447210000013,1,13,test2,3,0.5348304999934044,-20.0
14,chj,m,20,r,2,(172.20000000000002, 0.0),21,3,1,no,m,6,m,0.4106582999957027,1,14,test2,3,0.4110184000019217,-20.0
14,chj,m,20,r,2,(-172.20000000000002, 2.1088417881317425e-14),25,-25,14,yes,x,5,x,0.3988320000062231,1,15,test2,3,0.3993431000126293,-70.0
14,chj,m,20,r,2,(172.20000000000002, 0.0),21,3,1,yes,x,5,m,0.5284578000137117,0,16,test2,3,0.5285854000103427,-42.0
14,chj,m,20,r,2,(1.0544208940658713e-14, 172.20000000000002),23,7,3,yes,x,5,x,0.4581834999989951,1,17,test2,3,0.45845740000368096,-38.0
14,chj,m,20,r,2,(172.20000000000002, 0.0),21,-7,13,no,m,6,m,0.49668940000992734,1,18,test2,3,0.49679780000587925,-38.0
14,chj,m,20,r,2,(-121.76378772032352, -121.76378772032348),26,3,1,yes,x,5,m,0.47050100000342354,0,19,test2,3,0.4706263999978546,-42.0
14,chj,m,20,r,2,(-121.76378772032352, -121.76378772032348),26,25,4,no,m,6,m,0.4502171000058297,1,20,test2,3,0.4503541000012774,-42.0
14,chj,m,20,r,2,(-121.76378772032352, -121.76378772032348),26,7,3,yes,x,5,x,0.40031949999684,1,21,test2,3,0.4004362000123365,-38.0
14,chj,m,20,r,2,(121.76378772032349, 121.76378772032349),22,-3,11,yes,x,5,x,0.6215700000029756,1,22,test2,3,0.6217411999969045,-48.0
14,chj,m,20,r,2,(-121.76378772032352, -121.76378772032348),26,7,3,no,m,6,m,0.7970619999978226,1,23,test2,3,0.7971888000029139,-48.0
14,chj,m,20,r,2,(1.0544208940658713e-14, 172.20000000000002),23,-25,14,no,m,6,m,0.4787514000054216,1,24,test2,3,0.478981099993689,-48.0
14,chj,m,20,r,2,(121.76378772032349, 121.76378772032349),22,-25,14,yes,x,5,x,0.4197978000011062,1,25,test2,3,0.4198949999990873,-70.0
14,chj,m,20,r,2,(1.0544208940658713e-14, 172.20000000000002),23,3,1,yes,x,5,x,0.4996372000023257,1,26,test2,3,0.49980649999633897,-42.0
14,chj,m,20,r,2,(1.0544208940658713e-14, 172.20000000000002),23,-25,14,yes,x,5,x,0.4163159000017913,1,27,test2,3,0.41684520000126213,-70.0
14,chj,m,20,r,2,(-3.163262682197613e-14, -172.20000000000002),27,-3,11,yes,x,5,x,0.5239507000078447,1,28,test2,3,0.5240817000012612,-48.0
14,chj,m,20,r,2,(-121.76378772032352, -121.76378772032348),26,-25,14,no,m,6,m,0.608972600006382,1,29,test2,3,0.609110999997938,-48.0
14,chj,m,20,r,2,(172.20000000000002, 0.0),21,3,1,yes,x,5,m,0.5027551999955904,0,30,test2,3,0.5029707000066992,-42.0
14,chj,m,20,r,2,(172.20000000000002, 0.0),21,-7,13,yes,x,5,x,0.4231498000008287,1,31,test2,3,0.42326320000574924,-52.0
14,chj,m,20,r,2,(1.0544208940658713e-14, 172.20000000000002),23,5,2,yes,x,5,x,0.43608949999907054,1,32,test2,3,0.4362455999944359,-40.0
14,chj,m,20,r,2,(172.20000000000002, 0.0),21,-25,14,yes,x,5,x,0.4357842999888817,1,33,test2,3,0.43600299999525305,-70.0
14,chj,m,20,r,2,(121.76378772032349, 121.76378772032349),22,-25,14,yes,x,5,x,0.40396419999888167,1,34,test2,3,0.40418440000212286,-70.0
14,chj,m,20,r,2,(121.76378772032346, -121.76378772032352),28,-7,13,no,m,6,m,0.6981335000018589,1,35,test2,3,0.6983578999934252,-70.0
14,chj,m,20,r,2,(121.76378772032349, 121.76378772032349),22,3,1,yes,x,5,x,0.4780858000012813,1,36,test2,3,0.47829909999563824,-42.0
14,chj,m,20,r,2,(1.0544208940658713e-14, 172.20000000000002),23,-5,12,no,m,6,m,1.026918300005491,1,37,test2,3,1.0273586999974214,-42.0
14,chj,m,20,r,2,(121.76378772032349, 121.76378772032349),22,7,3,yes,x,5,x,0.44683070000610314,1,38,test2,3,0.44719229999464005,-38.0
14,chj,m,20,r,2,(-121.76378772032352, -121.76378772032348),26,25,4,yes,x,5,x,0.4327816000004532,1,39,test2,3,0.4328818000067258,-20.0
14,chj,m,20,r,2,(121.76378772032346, -121.76378772032352),28,-3,11,yes,x,5,x,0.9228984000073979,1,40,test2,3,0.9233198000001721,-48.0
14,chj,m,20,r,2,(-3.163262682197613e-14, -172.20000000000002),27,-5,12,yes,x,5,x,0.47255520000180695,1,41,test2,3,0.4726863000105368,-50.0
14,chj,m,20,r,2,(1.0544208940658713e-14, 172.20000000000002),23,25,4,no,m,6,m,0.5998479999980191,1,42,test2,3,0.59997489998932,-50.0
14,chj,m,20,r,2,(1.0544208940658713e-14, 172.20000000000002),23,-25,14,yes,x,5,x,0.40666670000064187,1,43,test2,3,0.4069022000039695,-70.0
14,chj,m,20,r,2,(121.76378772032346, -121.76378772032352),28,5,2,yes,x,5,x,0.5132809999922756,1,44,test2,3,0.5134426000004169,-40.0
14,chj,m,20,r,2,(-121.76378772032348, 121.76378772032349),24,25,4,no,m,6,m,0.5749505999992834,1,45,test2,3,0.5753274000016972,-40.0
14,chj,m,20,r,2,(-3.163262682197613e-14, -172.20000000000002),27,25,4,yes,x,5,x,0.43920079999952577,1,46,test2,3,0.43945109999913257,-20.0
14,chj,m,20,r,2,(121.76378772032346, -121.76378772032352),28,7,3,yes,x,5,x,0.4456631000066409,1,47,test2,3,0.44595800001116004,-38.0
14,chj,m,20,r,2,(172.20000000000002, 0.0),21,-3,11,no,m,6,m,0.5991508000006434,1,48,test2,3,0.5993600999936461,-38.0
14,chj,m,20,r,2,(172.20000000000002, 0.0),21,7,3,yes,x,5,x,0.4281236999959219,1,49,test2,3,0.4286154000001261,-38.0
14,chj,m,20,r,2,(-3.163262682197613e-14, -172.20000000000002),27,-25,14,yes,x,5,x,0.36738500000501517,1,50,test2,3,0.36749020000570454,-70.0
14,chj,m,20,r,2,(-3.163262682197613e-14, -172.20000000000002),27,-5,12,no,m,6,m,0.568774500003201,1,51,test2,3,0.5689014999952633,-70.0
14,chj,m,20,r,2,(1.0544208940658713e-14, 172.20000000000002),23,-7,13,no,m,6,m,0.538727100007236,1,52,test2,3,0.5389667999988887,-70.0
14,chj,m,20,r,2,(-121.76378772032352, -121.76378772032348),26,5,2,no,m,6,m,0.4841299999970943,1,53,test2,3,0.4845212999935029,-70.0
14,chj,m,20,r,2,(121.76378772032349, 121.76378772032349),22,7,3,yes,x,5,x,0.4291097999957856,1,54,test2,3,0.4292459999996936,-38.0
14,chj,m,20,r,2,(-121.76378772032348, 121.76378772032349),24,7,3,no,m,6,m,0.5566448000026867,1,55,test2,3,0.5568358000018634,-38.0
14,chj,m,20,r,2,(-121.76378772032348, 121.76378772032349),24,-25,14,yes,x,5,x,0.3792358999926364,1,56,test2,3,0.3793557999888435,-70.0
14,chj,m,20,r,2,(121.76378772032346, -121.76378772032352),28,-5,12,no,m,6,m,0.5022793999960413,1,57,test2,3,0.5024057999980869,-70.0
14,chj,m,20,r,2,(-3.163262682197613e-14, -172.20000000000002),27,3,1,yes,x,5,m,0.5756500999996206,0,58,test2,3,0.5757521000050474,-42.0
14,chj,m,20,r,2,(-3.163262682197613e-14, -172.20000000000002),27,-25,14,no,m,6,m,0.4764026999910129,1,59,test2,3,0.47657140000956133,-42.0
14,chj,m,20,r,2,(-3.163262682197613e-14, -172.20000000000002),27,7,3,yes,x,5,x,0.36705329999676906,1,60,test2,3,0.36730759999773,-38.0
14,chj,m,20,r,2,(172.20000000000002, 0.0),21,25,4,no,m,6,m,0.5079341999953613,1,61,test2,3,0.5080654000048526,-38.0
14,chj,m,20,r,2,(121.76378772032349, 121.76378772032349),22,-25,14,no,m,6,m,0.4789119000051869,1,62,test2,3,0.4790260000008857,-38.0
14,chj,m,20,r,2,(121.76378772032346, -121.76378772032352),28,7,3,yes,x,5,x,0.44221560000733007,1,63,test2,3,0.4423549999919487,-38.0
14,chj,m,20,r,2,(-172.20000000000002, 2.1088417881317425e-14),25,-25,14,no,m,6,m,0.4876855000038631,1,64,test2,3,0.487783299991861,-38.0
14,chj,m,20,r,2,(-121.76378772032352, -121.76378772032348),26,-5,12,yes,x,5,x,0.42179559999203775,1,65,test2,3,0.42215959999884944,-50.0
14,chj,m,20,r,2,(121.76378772032346, -121.76378772032352),28,5,2,yes,x,5,x,0.5158330999984173,1,66,test2,3,0.516056699998444,-40.0
14,chj,m,20,r,2,(121.76378772032346, -121.76378772032352),28,-3,11,no,m,6,m,0.49821170000359416,1,67,test2,3,0.4984919999988051,-40.0
14,chj,m,20,r,2,(-121.76378772032352, -121.76378772032348),26,5,2,yes,x,5,x,0.5240383000054862,1,68,test2,3,0.52425950000179,-40.0
14,chj,m,20,r,2,(-172.20000000000002, 2.1088417881317425e-14),25,5,2,no,m,6,m,0.43666469999880064,1,69,test2,3,0.4367924999969546,-40.0
14,chj,m,20,r,2,(-121.76378772032348, 121.76378772032349),24,3,1,no,m,6,m,0.43291170000156853,1,70,test2,3,0.4330788999941433,-40.0
14,chj,m,20,r,2,(121.76378772032349, 121.76378772032349),22,5,2,yes,x,5,x,0.616315699997358,1,71,test2,3,0.6167429000051925,-40.0
14,chj,m,20,r,2,(1.0544208940658713e-14, 172.20000000000002),23,3,1,yes,x,5,x,0.5089728000020841,1,72,test2,3,0.5096505999972578,-42.0
14,chj,m,20,r,2,(1.0544208940658713e-14, 172.20000000000002),23,7,3,yes,x,5,x,0.47314649999316316,1,73,test2,3,0.47355209999659564,-38.0
14,chj,m,20,r,2,(172.20000000000002, 0.0),21,5,2,yes,x,5,x,0.4483089999994263,1,74,test2,3,0.4485320999956457,-40.0
14,chj,m,20,r,2,(121.76378772032349, 121.76378772032349),22,-5,12,yes,x,5,x,0.40274789999239147,1,75,test2,3,0.40285660000517964,-50.0
14,chj,m,20,r,2,(-3.163262682197613e-14, -172.20000000000002),27,-7,13,yes,x,5,x,0.3829208999959519,1,76,test2,3,0.3834456000040518,-52.0
14,chj,m,20,r,2,(-172.20000000000002, 2.1088417881317425e-14),25,25,4,yes,x,5,x,0.3531700000021374,1,77,test2,3,0.3533285000012256,-20.0
14,chj,m,20,r,2,(121.76378772032349, 121.76378772032349),22,-3,11,no,m,6,m,0.5552019999886397,1,78,test2,3,0.5553312000120059,-20.0
14,chj,m,20,r,2,(121.76378772032346, -121.76378772032352),28,3,1,yes,x,5,x,0.49663419999706093,1,79,test2,3,0.497003999989829,-42.0
14,chj,m,20,r,2,(-121.76378772032348, 121.76378772032349),24,-3,11,no,m,6,m,0.5900579000008292,1,80,test2,3,0.5903054999944288,-42.0
14,chj,m,20,r,2,(121.76378772032349, 121.76378772032349),22,7,3,no,m,6,m,0.7975470000092173,1,81,test2,3,0.7977903999999398,-42.0
14,chj,m,20,r,2,(1.0544208940658713e-14, 172.20000000000002),23,-3,11,no,m,6,m,0.5169096999889007,1,82,test2,3,0.5170054999907734,-42.0
14,chj,m,20,r,2,(-3.163262682197613e-14, -172.20000000000002),27,-25,14,yes,x,5,x,0.3305675000010524,1,83,test2,3,0.3306624999968335,-70.0
14,chj,m,20,r,2,(172.20000000000002, 0.0),21,7,3,yes,x,5,x,0.43821600000956096,1,84,test2,3,0.4384057999996003,-38.0
14,chj,m,20,r,2,(-121.76378772032352, -121.76378772032348),26,5,2,yes,x,5,x,0.4291788999980781,1,85,test2,3,0.42955679999431595,-40.0
14,chj,m,20,r,2,(-172.20000000000002, 2.1088417881317425e-14),25,-5,12,no,m,6,m,0.5299479000095744,1,86,test2,3,0.5301832000113791,-40.0
14,chj,m,20,r,2,(121.76378772032346, -121.76378772032352),28,-25,14,yes,x,5,x,0.38445450000290293,1,87,test2,3,0.38479430000006687,-70.0
14,chj,m,20,r,2,(121.76378772032349, 121.76378772032349),22,3,1,no,m,6,m,0.5612948999914806,1,88,test2,3,0.5613937000016449,-70.0
14,chj,m,20,r,2,(-121.76378772032348, 121.76378772032349),24,25,4,yes,x,5,x,0.3829911000066204,1,89,test2,3,0.3831578000099398,-20.0
14,chj,m,20,r,2,(121.76378772032349, 121.76378772032349),22,25,4,yes,x,5,x,0.420819399994798,1,90,test2,3,0.421044399990933,-20.0
14,chj,m,20,r,2,(172.20000000000002, 0.0),21,7,3,no,m,6,m,0.454206599999452,1,91,test2,3,0.4545591000060085,-20.0
14,chj,m,20,r,2,(1.0544208940658713e-14, 172.20000000000002),23,-5,12,yes,x,5,x,0.4109357999986969,1,92,test2,3,0.4112285000010161,-50.0
14,chj,m,20,r,2,(121.76378772032346, -121.76378772032352),28,-7,13,yes,x,5,x,1.6384846000000834,1,93,test2,3,1.6387417999940226,-52.0
14,chj,m,20,r,2,(-121.76378772032348, 121.76378772032349),24,-7,13,no,m,6,m,0.7889063000038732,1,94,test2,3,0.7891384999966249,-52.0
14,chj,m,20,r,2,(-3.163262682197613e-14, -172.20000000000002),27,3,1,yes,x,5,x,0.5896579000109341,1,95,test2,3,0.58979779999936,-42.0
14,chj,m,20,r,2,(-172.20000000000002, 2.1088417881317425e-14),25,7,3,yes,x,5,x,0.3725352000037674,1,96,test2,3,0.37269210000522435,-38.0
14,chj,m,20,r,2,(-121.76378772032352, -121.76378772032348),26,3,1,yes,x,5,x,0.6731148999970173,1,1,test1,4,0.6737801999988733,-42.0
14,chj,m,20,r,2,(-3.163262682197613e-14, -172.20000000000002),27,-7,13,yes,x,5,x,0.3612393999937922,1,2,test1,4,0.36158419999992475,-52.0
14,chj,m,20,r,2,(121.76378772032346, -121.76378772032352),28,7,3,no,m,6,m,0.49077910000050906,1,3,test1,4,0.4909087999985786,-52.0
14,chj,m,20,r,2,(-121.76378772032348, 121.76378772032349),24,-5,12,no,m,6,m,0.504799100002856,1,4,test1,4,0.5054565000027651,-52.0
14,chj,m,20,r,2,(121.76378772032349, 121.76378772032349),22,-7,13,no,m,6,m,0.5476810999971349,1,5,test1,4,0.5479186000011396,-52.0
14,chj,m,20,r,2,(-121.76378772032348, 121.76378772032349),24,7,3,yes,x,5,x,0.3963246000057552,1,6,test1,4,0.3968841000023531,-38.0
14,chj,m,20,r,2,(-172.20000000000002, 2.1088417881317425e-14),25,-3,11,yes,x,5,x,0.47304369999619666,1,7,test1,4,0.47314870000991505,-48.0
14,chj,m,20,r,2,(1.0544208940658713e-14, 172.20000000000002),23,25,4,yes,x,5,x,0.43109939999703784,1,8,test1,4,0.4312248000060208,-20.0
14,chj,m,20,r,2,(1.0544208940658713e-14, 172.20000000000002),23,-5,12,yes,x,5,x,0.48391280000214465,1,9,test1,4,0.48419159998593386,-50.0
14,chj,m,20,r,2,(-172.20000000000002, 2.1088417881317425e-14),25,-3,11,yes,x,5,x,0.6649284000013722,1,10,test1,4,0.6656190999929095,-48.0
14,chj,m,20,r,2,(-121.76378772032348, 121.76378772032349),24,3,1,yes,x,5,x,0.6777987999957986,1,11,test1,4,0.6780171999998856,-42.0
14,chj,m,20,r,2,(-172.20000000000002, 2.1088417881317425e-14),25,7,3,no,m,6,m,0.8954301000048872,1,12,test1,4,0.8955323999980465,-42.0
14,chj,m,20,r,2,(1.0544208940658713e-14, 172.20000000000002),23,25,4,yes,x,5,x,0.4606059999932768,1,13,test1,4,0.4607681000052253,-20.0
14,chj,m,20,r,2,(-172.20000000000002, 2.1088417881317425e-14),25,5,2,yes,x,5,x,0.4196218999859411,1,14,test1,4,0.41975270000693854,-40.0
14,chj,m,20,r,2,(-121.76378772032348, 121.76378772032349),24,5,2,yes,x,5,x,0.4987182000040775,1,15,test1,4,0.49929839999822434,-40.0
14,chj,m,20,r,2,(172.20000000000002, 0.0),21,-3,11,yes,x,5,x,0.5721657999965828,1,16,test1,4,0.572501500006183,-48.0
14,chj,m,20,r,2,(1.0544208940658713e-14, 172.20000000000002),23,5,2,yes,x,5,x,0.46205109999573324,1,17,test1,4,0.46241330000339076,-40.0
14,chj,m,20,r,2,(121.76378772032349, 121.76378772032349),22,-5,12,yes,x,5,x,0.4788293000019621,1,18,test1,4,0.4789621999952942,-50.0
14,chj,m,20,r,2,(-121.76378772032352, -121.76378772032348),26,7,3,yes,x,5,x,0.44651900000462774,1,19,test1,4,0.44718940000166185,-38.0
14,chj,m,20,r,2,(-3.163262682197613e-14, -172.20000000000002),27,5,2,no,m,6,m,0.6474550999992061,1,20,test1,4,0.6477661000099033,-38.0
14,chj,m,20,r,2,(-172.20000000000002, 2.1088417881317425e-14),25,-5,12,yes,x,5,x,0.34682939999038354,1,21,test1,4,0.346934200002579,-50.0
14,chj,m,20,r,2,(121.76378772032349, 121.76378772032349),22,25,4,yes,x,5,x,0.5349678999918979,1,22,test1,4,0.5351091000047745,-20.0
14,chj,m,20,r,2,(-121.76378772032348, 121.76378772032349),24,-3,11,yes,x,5,m,0.5452674000116531,0,23,test1,4,0.5454844999912893,-48.0
14,chj,m,20,r,2,(121.76378772032346, -121.76378772032352),28,-3,11,yes,x,5,x,0.7825579999916954,1,24,test1,4,0.7826895999896806,-48.0
14,chj,m,20,r,2,(121.76378772032346, -121.76378772032352),28,5,2,no,m,6,m,0.5863481000124011,1,25,test1,4,0.5867591999995057,-48.0
14,chj,m,20,r,2,(-172.20000000000002, 2.1088417881317425e-14),25,-7,13,yes,x,5,x,0.35550719998718705,1,26,test1,4,0.35570700000971556,-52.0
14,chj,m,20,r,2,(-121.76378772032352, -121.76378772032348),26,-5,12,yes,x,5,x,0.43670510000083596,1,27,test1,4,0.4369468000077177,-50.0
14,chj,m,20,r,2,(121.76378772032349, 121.76378772032349),22,5,2,no,m,6,m,0.5864499000017531,1,28,test1,4,0.5865511000010883,-50.0
14,chj,m,20,r,2,(-172.20000000000002, 2.1088417881317425e-14),25,25,4,no,m,6,m,0.7456624999904307,1,29,test1,4,0.7458429000107571,-50.0
14,chj,m,20,r,2,(172.20000000000002, 0.0),21,-25,14,yes,x,5,x,0.39196170000650454,1,30,test1,4,0.39218219999747816,-70.0
14,chj,m,20,r,2,(-172.20000000000002, 2.1088417881317425e-14),25,3,1,yes,x,5,x,0.4677994999947259,1,31,test1,4,0.467952899998636,-42.0
14,chj,m,20,r,2,(-172.20000000000002, 2.1088417881317425e-14),25,-7,13,yes,x,5,x,0.3973889000044437,1,32,test1,4,0.3975244000030216,-52.0
14,chj,m,20,r,2,(121.76378772032346, -121.76378772032352),28,-7,13,yes,x,5,x,0.49471660000563134,1,33,test1,4,0.4950378999928944,-52.0
14,chj,m,20,r,2,(-121.76378772032352, -121.76378772032348),26,-7,13,yes,x,5,x,0.39565740000398364,1,34,test1,4,0.3958803999994416,-52.0
14,chj,m,20,r,2,(121.76378772032346, -121.76378772032352),28,-25,14,yes,x,5,x,0.4115031000110321,1,35,test1,4,0.4118490000109887,-70.0
14,chj,m,20,r,2,(-121.76378772032348, 121.76378772032349),24,3,1,yes,x,5,m,0.5864896999992197,0,36,test1,4,0.5865921999939019,-42.0
14,chj,m,20,r,2,(-121.76378772032352, -121.76378772032348),26,-25,14,yes,x,5,x,0.39667119999649003,1,37,test1,4,0.39684200000192504,-70.0
14,chj,m,20,r,2,(-3.163262682197613e-14, -172.20000000000002),27,-3,11,yes,x,5,x,0.4745843999990029,1,38,test1,4,0.4748840999964159,-48.0
14,chj,m,20,r,2,(121.76378772032349, 121.76378772032349),22,3,1,yes,x,5,x,0.786792200000491,1,39,test1,4,0.7871085999940988,-42.0
14,chj,m,20,r,2,(-121.76378772032352, -121.76378772032348),26,-3,11,yes,x,5,x,0.7378502000065055,1,40,test1,4,0.7382929000013974,-48.0
14,chj,m,20,r,2,(-172.20000000000002, 2.1088417881317425e-14),25,-7,13,no,m,6,m,0.5674446999910288,1,41,test1,4,0.5676222000038251,-48.0
14,chj,m,20,r,2,(-121.76378772032352, -121.76378772032348),26,-5,12,no,m,6,m,0.5633456000068691,1,42,test1,4,0.5637655000027735,-48.0
14,chj,m,20,r,2,(-121.76378772032352, -121.76378772032348),26,3,1,no,m,6,m,0.7341239999950631,1,43,test1,4,0.7343562000023667,-48.0
14,chj,m,20,r,2,(-3.163262682197613e-14, -172.20000000000002),27,-7,13,no,m,6,m,0.5241231999971205,1,44,test1,4,0.5243559000082314,-48.0
14,chj,m,20,r,2,(-121.76378772032348, 121.76378772032349),24,5,2,yes,x,5,x,0.4139621999929659,1,45,test1,4,0.4140632999915397,-40.0
14,chj,m,20,r,2,(172.20000000000002, 0.0),21,-3,11,yes,x,5,x,0.5371043999912217,1,46,test1,4,0.5373453000065638,-48.0
14,chj,m,20,r,2,(-3.163262682197613e-14, -172.20000000000002),27,-3,11,no,m,6,m,0.6470970999944257,1,47,test1,4,0.647286699997494,-48.0
14,chj,m,20,r,2,(-121.76378772032348, 121.76378772032349),24,-25,14,yes,x,5,x,0.4307979000004707,1,48,test1,4,0.43103469999914523,-70.0
14,chj,m,20,r,2,(-3.163262682197613e-14, -172.20000000000002),27,-5,12,yes,x,5,x,0.4900575000065146,1,49,test1,4,0.4902231999876676,-50.0
14,chj,m,20,r,2,(-121.76378772032352, -121.76378772032348),26,-25,14,yes,x,5,x,0.38411520000954624,1,50,test1,4,0.38472810000530444,-70.0
14,chj,m,20,r,2,(-121.76378772032348, 121.76378772032349),24,-7,13,yes,x,5,x,0.4147823000093922,1,51,test1,4,0.41489739999815356,-52.0
14,chj,m,20,r,2,(172.20000000000002, 0.0),21,-25,14,no,m,6,m,1.1020145999937085,1,52,test1,4,1.1021275999955833,-52.0
14,chj,m,20,r,2,(-172.20000000000002, 2.1088417881317425e-14),25,3,1,no,m,6,m,0.49438910000026226,1,53,test1,4,0.49455579998902977,-52.0
14,chj,m,20,r,2,(172.20000000000002, 0.0),21,5,2,no,m,6,m,0.7470406999927945,1,54,test1,4,0.7473376999987522,-52.0
14,chj,m,20,r,2,(-121.76378772032352, -121.76378772032348),26,-7,13,yes,x,5,x,0.3693792999983998,1,55,test1,4,0.3694839000090724,-52.0
14,chj,m,20,r,2,(121.76378772032346, -121.76378772032352),28,-5,12,yes,x,5,x,0.48539260000688955,1,56,test1,4,0.485699900003965,-50.0
14,chj,m,20,r,2,(172.20000000000002, 0.0),21,5,2,yes,x,5,x,0.6301073000067845,1,57,test1,4,0.6302128999959677,-40.0
14,chj,m,20,r,2,(-121.76378772032348, 121.76378772032349),24,-5,12,yes,x,5,x,0.4140728000056697,1,58,test1,4,0.41417240000737365,-50.0
14,chj,m,20,r,2,(-121.76378772032348, 121.76378772032349),24,25,4,yes,x,5,x,0.4487790999992285,1,59,test1,4,0.44929180000326596,-20.0
14,chj,m,20,r,2,(-172.20000000000002, 2.1088417881317425e-14),25,-25,14,yes,x,5,x,0.33994190000521485,1,60,test1,4,0.340555900009349,-70.0
14,chj,m,20,r,2,(121.76378772032346, -121.76378772032352),28,-5,12,yes,x,5,x,0.5244583000021521,1,61,test1,4,0.524676000000909,-50.0
14,chj,m,20,r,2,(-121.76378772032348, 121.76378772032349),24,-25,14,no,m,6,m,0.7019500999886077,1,62,test1,4,0.7020534000039333,-50.0
14,chj,m,20,r,2,(1.0544208940658713e-14, 172.20000000000002),23,-3,11,yes,x,5,x,0.5309588999953121,1,63,test1,4,0.5312946000049124,-48.0
14,chj,m,20,r,2,(-3.163262682197613e-14, -172.20000000000002),27,7,3,yes,x,5,x,0.4976625999988755,1,64,test1,4,0.4978566000063438,-38.0
14,chj,m,20,r,2,(-3.163262682197613e-14, -172.20000000000002),27,25,4,yes,x,5,x,0.40840270000626333,1,65,test1,4,0.4085336999996798,-20.0
14,chj,m,20,r,2,(1.0544208940658713e-14, 172.20000000000002),23,-7,13,yes,x,5,x,0.4056482000014512,1,66,test1,4,0.4058939999958966,-52.0
14,chj,m,20,r,2,(172.20000000000002, 0.0),21,-7,13,yes,x,5,x,0.4544039000029443,1,67,test1,4,0.4546266999968793,-52.0
14,chj,m,20,r,2,(121.76378772032346, -121.76378772032352),28,3,1,no,m,6,m,0.5847425999963889,1,68,test1,4,0.5848471000063,-52.0
14,chj,m,20,r,2,(1.0544208940658713e-14, 172.20000000000002),23,7,3,no,m,6,m,0.5321417999948608,1,69,test1,4,0.5322560000058729,-52.0
14,chj,m,20,r,2,(172.20000000000002, 0.0),21,-5,12,yes,x,5,x,0.46020789998874534,1,70,test1,4,0.4603727999929106,-50.0
14,chj,m,20,r,2,(172.20000000000002, 0.0),21,-5,12,no,m,6,m,0.6314443000010215,1,71,test1,4,0.6316546000016388,-50.0
14,chj,m,20,r,2,(121.76378772032349, 121.76378772032349),22,5,2,yes,x,5,x,0.4416362000047229,1,72,test1,4,0.44195829999807756,-40.0
14,chj,m,20,r,2,(-121.76378772032348, 121.76378772032349),24,-7,13,yes,x,5,x,0.5712581999978283,1,73,test1,4,0.5714262000110466,-52.0
14,chj,m,20,r,2,(121.76378772032346, -121.76378772032352),28,3,1,yes,x,5,x,0.7650991999980761,1,74,test1,4,0.7653239999926882,-42.0
14,chj,m,20,r,2,(121.76378772032349, 121.76378772032349),22,25,4,no,m,6,m,0.5532126999896718,1,75,test1,4,0.553492399994866,-42.0
14,chj,m,20,r,2,(121.76378772032349, 121.76378772032349),22,-3,11,yes,x,5,x,0.5367111999948975,1,76,test1,4,0.5368124999949941,-48.0
14,chj,m,20,r,2,(121.76378772032346, -121.76378772032352),28,25,4,no,m,6,m,0.7452096000051824,1,77,test1,4,0.7454304999992019,-48.0
14,chj,m,20,r,2,(121.76378772032346, -121.76378772032352),28,25,4,yes,x,5,x,0.4231729000021005,1,78,test1,4,0.42336559999966994,-20.0
14,chj,m,20,r,2,(-3.163262682197613e-14, -172.20000000000002),27,5,2,yes,x,5,x,0.4179281999968225,1,79,test1,4,0.418100199996843,-40.0
14,chj,m,20,r,2,(1.0544208940658713e-14, 172.20000000000002),23,-3,11,yes,x,5,x,0.5037267000006977,1,80,test1,4,0.5038302000029944,-48.0
14,chj,m,20,r,2,(-172.20000000000002, 2.1088417881317425e-14),25,3,1,yes,x,5,m,0.510147799999686,0,81,test1,4,0.5102617000084138,-42.0
14,chj,m,20,r,2,(-121.76378772032352, -121.76378772032348),26,-7,13,no,m,6,m,0.5725748999975622,1,82,test1,4,0.5727327999920817,-42.0
14,chj,m,20,r,2,(-121.76378772032352, -121.76378772032348),26,-3,11,yes,x,5,x,0.42217999999411404,1,83,test1,4,0.42237300000851974,-48.0
14,chj,m,20,r,2,(121.76378772032346, -121.76378772032352),28,-25,14,no,m,6,m,0.6240593999973498,1,84,test1,4,0.6241631000011694,-48.0
14,chj,m,20,r,2,(-172.20000000000002, 2.1088417881317425e-14),25,5,2,yes,x,5,x,0.41684649999660905,1,85,test1,4,0.41731619999336544,-40.0
14,chj,m,20,r,2,(-121.76378772032348, 121.76378772032349),24,-3,11,yes,x,5,x,0.4705085000023246,1,86,test1,4,0.4709361999994144,-48.0
14,chj,m,20,r,2,(-3.163262682197613e-14, -172.20000000000002),27,3,1,no,m,6,m,0.5427496999909636,1,87,test1,4,0.5434256000007736,-48.0
14,chj,m,20,r,2,(-172.20000000000002, 2.1088417881317425e-14),25,25,4,yes,x,5,x,0.5011945000005653,1,88,test1,4,0.5016717999969842,-20.0
14,chj,m,20,r,2,(172.20000000000002, 0.0),21,25,4,yes,x,5,x,0.41975030000321567,1,89,test1,4,0.4198822000034852,-20.0
14,chj,m,20,r,2,(-172.20000000000002, 2.1088417881317425e-14),25,-5,12,yes,x,5,x,0.4395260000019334,1,90,test1,4,0.43966550000186544,-50.0
14,chj,m,20,r,2,(1.0544208940658713e-14, 172.20000000000002),23,3,1,no,m,6,m,0.586876300003496,1,91,test1,4,0.5870936999999685,-50.0
14,chj,m,20,r,2,(-121.76378772032352, -121.76378772032348),26,-3,11,no,m,6,m,0.5092860999866389,1,92,test1,4,0.5096126999997068,-50.0
14,chj,m,20,r,2,(-172.20000000000002, 2.1088417881317425e-14),25,7,3,yes,x,5,x,0.33426170000166167,1,93,test1,4,0.33456489999662153,-38.0
14,chj,m,20,r,2,(-3.163262682197613e-14, -172.20000000000002),27,5,2,yes,x,5,x,0.50072569999611,1,94,test1,4,0.5008266999939224,-40.0
14,chj,m,20,r,2,(172.20000000000002, 0.0),21,-5,12,yes,x,5,x,0.4861355999892112,1,95,test1,4,0.4862722000107169,-50.0
14,chj,m,20,r,2,(-121.76378772032348, 121.76378772032349),24,5,2,no,m,6,m,0.6933919000002788,1,96,test1,4,0.6937114000029396,-50.0
14,chj,m,20,r,2,(1.0544208940658713e-14, 172.20000000000002),23,-7,13,yes,x,5,x,0.359205299988389,1,1,test2,4,0.35933859999931883,-52.0
14,chj,m,20,r,2,(121.76378772032349, 121.76378772032349),22,-7,13,yes,x,5,x,0.4025817000074312,1,2,test2,4,0.40290960000129417,-52.0
14,chj,m,20,r,2,(-121.76378772032348, 121.76378772032349),24,7,3,yes,x,5,x,0.361344500008272,1,3,test2,4,0.3619858000020031,-38.0
14,chj,m,20,r,2,(121.76378772032349, 121.76378772032349),22,-5,12,no,m,6,m,0.5142532000027131,1,4,test2,4,0.5148297999985516,-38.0
14,chj,m,20,r,2,(-121.76378772032348, 121.76378772032349),24,-5,12,yes,x,5,x,0.3547593999974197,1,5,test2,4,0.3548746000014944,-50.0
14,chj,m,20,r,2,(121.76378772032346, -121.76378772032352),28,25,4,yes,x,5,x,0.39312120000249706,1,6,test2,4,0.393490100002964,-20.0
14,chj,m,20,r,2,(1.0544208940658713e-14, 172.20000000000002),23,5,2,no,m,6,m,0.6305157000024337,1,7,test2,4,0.6306359000009252,-20.0
14,chj,m,20,r,2,(121.76378772032349, 121.76378772032349),22,-7,13,yes,x,5,x,0.339117499999702,1,8,test2,4,0.3393398999905912,-52.0
14,chj,m,20,r,2,(-3.163262682197613e-14, -172.20000000000002),27,25,4,no,m,6,m,0.46583849999296945,1,9,test2,4,0.46653629999491386,-52.0
14,chj,m,20,r,2,(172.20000000000002, 0.0),21,25,4,yes,x,5,x,0.5496412000065902,1,10,test2,4,0.5498987000028137,-20.0
14,chj,m,20,r,2,(-121.76378772032352, -121.76378772032348),26,25,4,yes,x,5,x,0.5432227999990573,1,11,test2,4,0.5433385999931488,-20.0
14,chj,m,20,r,2,(-3.163262682197613e-14, -172.20000000000002),27,7,3,no,m,6,m,0.5691890000016429,1,12,test2,4,0.5696497000026284,-20.0
14,chj,m,20,r,2,(-172.20000000000002, 2.1088417881317425e-14),25,-3,11,no,m,6,m,0.48959759999706876,1,13,test2,4,0.48970020000706427,-20.0
14,chj,m,20,r,2,(172.20000000000002, 0.0),21,3,1,no,m,6,m,0.4618426999950316,1,14,test2,4,0.4622729000111576,-20.0
14,chj,m,20,r,2,(-172.20000000000002, 2.1088417881317425e-14),25,-25,14,yes,x,5,x,0.4044916999991983,1,15,test2,4,0.40498350000416394,-70.0
14,chj,m,20,r,2,(172.20000000000002, 0.0),21,3,1,yes,x,5,x,0.6018638999958057,1,16,test2,4,0.6019686000072397,-42.0
14,chj,m,20,r,2,(1.0544208940658713e-14, 172.20000000000002),23,7,3,yes,x,5,x,0.4205991000053473,1,17,test2,4,0.42072989999724086,-38.0
14,chj,m,20,r,2,(172.20000000000002, 0.0),21,-7,13,no,m,6,m,0.6980085999966832,1,18,test2,4,0.6981120000127703,-38.0
14,chj,m,20,r,2,(-121.76378772032352, -121.76378772032348),26,3,1,yes,x,5,m,0.7101988000067649,0,19,test2,4,0.7105529999971623,-42.0
14,chj,m,20,r,2,(-121.76378772032352, -121.76378772032348),26,25,4,no,m,6,m,0.67622740000661,1,20,test2,4,0.6767074999952456,-42.0
14,chj,m,20,r,2,(-121.76378772032352, -121.76378772032348),26,7,3,yes,x,5,x,0.4135219000017969,1,21,test2,4,0.413749800005462,-38.0
14,chj,m,20,r,2,(121.76378772032349, 121.76378772032349),22,-3,11,yes,x,5,x,0.6082336999970721,1,22,test2,4,0.6084554999979446,-48.0
14,chj,m,20,r,2,(-121.76378772032352, -121.76378772032348),26,7,3,no,m,6,m,0.5220186999940779,1,23,test2,4,0.5224669000017457,-48.0
14,chj,m,20,r,2,(1.0544208940658713e-14, 172.20000000000002),23,-25,14,no,m,6,m,0.47361889999592677,1,24,test2,4,0.47396170000138227,-48.0
14,chj,m,20,r,2,(121.76378772032349, 121.76378772032349),22,-25,14,yes,x,5,x,0.5841883999964921,1,25,test2,4,0.5844104999996489,-70.0
14,chj,m,20,r,2,(1.0544208940658713e-14, 172.20000000000002),23,3,1,yes,x,5,x,0.5347051999997348,1,26,test2,4,0.5348028000007616,-42.0
14,chj,m,20,r,2,(1.0544208940658713e-14, 172.20000000000002),23,-25,14,yes,x,5,x,0.4238062000076752,1,27,test2,4,0.4239353000011761,-70.0
14,chj,m,20,r,2,(-3.163262682197613e-14, -172.20000000000002),27,-3,11,yes,x,5,m,0.6234378000081051,0,28,test2,4,0.6235511000122642,-48.0
14,chj,m,20,r,2,(-121.76378772032352, -121.76378772032348),26,-25,14,no,m,6,m,0.5997157999954652,1,29,test2,4,0.5998175999993691,-48.0
14,chj,m,20,r,2,(172.20000000000002, 0.0),21,3,1,yes,x,5,x,0.5718652000068687,1,30,test2,4,0.5722211000102106,-42.0
14,chj,m,20,r,2,(172.20000000000002, 0.0),21,-7,13,yes,x,5,x,0.4265778999979375,1,31,test2,4,0.42667649999202695,-52.0
14,chj,m,20,r,2,(1.0544208940658713e-14, 172.20000000000002),23,5,2,yes,x,5,x,0.4358691999950679,1,32,test2,4,0.43625800000154413,-40.0
14,chj,m,20,r,2,(172.20000000000002, 0.0),21,-25,14,yes,x,5,x,0.4178115999966394,1,33,test2,4,0.4181846000137739,-70.0
14,chj,m,20,r,2,(121.76378772032349, 121.76378772032349),22,-25,14,yes,x,5,x,0.4156261000025552,1,34,test2,4,0.4157287999987602,-70.0
14,chj,m,20,r,2,(121.76378772032346, -121.76378772032352),28,-7,13,no,m,6,m,0.6248725000041304,1,35,test2,4,0.6250698999938322,-70.0
14,chj,m,20,r,2,(121.76378772032349, 121.76378772032349),22,3,1,yes,x,5,x,0.5959385000023758,1,36,test2,4,0.5962793999933638,-42.0
14,chj,m,20,r,2,(1.0544208940658713e-14, 172.20000000000002),23,-5,12,no,m,6,m,0.5571669999917503,1,37,test2,4,0.5574673999944935,-42.0
14,chj,m,20,r,2,(121.76378772032349, 121.76378772032349),22,7,3,yes,x,5,x,0.43376489999354817,1,38,test2,4,0.4339062999933958,-38.0
14,chj,m,20,r,2,(-121.76378772032352, -121.76378772032348),26,25,4,yes,x,5,x,0.36958559999766294,1,39,test2,4,0.36971500000800006,-20.0
14,chj,m,20,r,2,(121.76378772032346, -121.76378772032352),28,-3,11,yes,x,5,m,0.4347404000000097,0,40,test2,4,0.43499539999174885,-48.0
14,chj,m,20,r,2,(-3.163262682197613e-14, -172.20000000000002),27,-5,12,yes,x,5,x,0.4016062000009697,1,41,test2,4,0.40212009999959264,-50.0
14,chj,m,20,r,2,(1.0544208940658713e-14, 172.20000000000002),23,25,4,no,m,6,m,0.4917983000050299,1,42,test2,4,0.49202530000184197,-50.0
14,chj,m,20,r,2,(1.0544208940658713e-14, 172.20000000000002),23,-25,14,yes,x,5,x,0.39873820000502747,1,43,test2,4,0.3991085000016028,-70.0
14,chj,m,20,r,2,(121.76378772032346, -121.76378772032352),28,5,2,yes,x,5,x,0.4910100999986753,1,44,test2,4,0.49112720000266563,-40.0
14,chj,m,20,r,2,(-121.76378772032348, 121.76378772032349),24,25,4,no,m,6,m,0.4737726000021212,1,45,test2,4,0.47408280000672676,-40.0
14,chj,m,20,r,2,(-3.163262682197613e-14, -172.20000000000002),27,25,4,yes,x,5,x,0.3829739999928279,1,46,test2,4,0.38310989999445155,-20.0
14,chj,m,20,r,2,(121.76378772032346, -121.76378772032352),28,7,3,yes,x,5,x,0.47516380000161007,1,47,test2,4,0.4754977999982657,-38.0
14,chj,m,20,r,2,(172.20000000000002, 0.0),21,-3,11,no,m,6,m,0.5506024999922374,1,48,test2,4,0.5507040999946184,-38.0
14,chj,m,20,r,2,(172.20000000000002, 0.0),21,7,3,yes,x,5,x,0.5537135000049602,1,49,test2,4,0.5539448999916203,-38.0
14,chj,m,20,r,2,(-3.163262682197613e-14, -172.20000000000002),27,-25,14,yes,x,5,x,0.4037753000011435,1,50,test2,4,0.40406699999584816,-70.0
14,chj,m,20,r,2,(-3.163262682197613e-14, -172.20000000000002),27,-5,12,no,m,6,m,0.6718964000028791,1,51,test2,4,0.6722722999984398,-70.0
14,chj,m,20,r,2,(1.0544208940658713e-14, 172.20000000000002),23,-7,13,no,m,6,m,0.6009116000059294,1,52,test2,4,0.6010590999940177,-70.0
14,chj,m,20,r,2,(-121.76378772032352, -121.76378772032348),26,5,2,no,m,6,x,0.4116448999993736,0,53,test2,4,0.41175070000463165,-70.0
14,chj,m,20,r,2,(121.76378772032349, 121.76378772032349),22,7,3,yes,x,5,x,0.42176140000810847,1,54,test2,4,0.42213039999478497,-38.0
14,chj,m,20,r,2,(-121.76378772032348, 121.76378772032349),24,7,3,no,m,6,m,0.5097720999910962,1,55,test2,4,0.5100074999936623,-38.0
14,chj,m,20,r,2,(-121.76378772032348, 121.76378772032349),24,-25,14,yes,x,5,x,0.36080999999830965,1,56,test2,4,0.3614212999964366,-70.0
14,chj,m,20,r,2,(121.76378772032346, -121.76378772032352),28,-5,12,no,m,6,m,0.4824639999860665,1,57,test2,4,0.48271830000157934,-70.0
14,chj,m,20,r,2,(-3.163262682197613e-14, -172.20000000000002),27,3,1,yes,x,5,x,0.662919200010947,1,58,test2,4,0.6630246000131592,-42.0
14,chj,m,20,r,2,(-3.163262682197613e-14, -172.20000000000002),27,-25,14,no,m,6,m,0.48953329998767003,1,59,test2,4,0.4897551000030944,-42.0
14,chj,m,20,r,2,(-3.163262682197613e-14, -172.20000000000002),27,7,3,yes,x,5,x,0.4491266999975778,1,60,test2,4,0.4493621999863535,-38.0
14,chj,m,20,r,2,(172.20000000000002, 0.0),21,25,4,no,m,6,m,0.6246949000051245,1,61,test2,4,0.6247976000013296,-38.0
14,chj,m,20,r,2,(121.76378772032349, 121.76378772032349),22,-25,14,no,m,6,m,0.5265133999928366,1,62,test2,4,0.5266135999991093,-38.0
14,chj,m,20,r,2,(121.76378772032346, -121.76378772032352),28,7,3,yes,x,5,x,0.5115507000009529,1,63,test2,4,0.5118428999994649,-38.0
14,chj,m,20,r,2,(-172.20000000000002, 2.1088417881317425e-14),25,-25,14,no,m,6,m,0.5732023999880766,1,64,test2,4,0.5734249999950407,-38.0
14,chj,m,20,r,2,(-121.76378772032352, -121.76378772032348),26,-5,12,yes,x,5,x,0.5067072999954689,1,65,test2,4,0.5070949999935692,-50.0
14,chj,m,20,r,2,(121.76378772032346, -121.76378772032352),28,5,2,yes,x,5,x,0.4698774999997113,1,66,test2,4,0.47002740000607446,-40.0
14,chj,m,20,r,2,(121.76378772032346, -121.76378772032352),28,-3,11,no,m,6,m,0.6543118999979924,1,67,test2,4,0.6546948999894084,-40.0
14,chj,m,20,r,2,(-121.76378772032352, -121.76378772032348),26,5,2,yes,x,5,x,0.4892604000051506,1,68,test2,4,0.4894820999907097,-40.0
14,chj,m,20,r,2,(-172.20000000000002, 2.1088417881317425e-14),25,5,2,no,m,6,m,0.6589884999993956,1,69,test2,4,0.6592206000059377,-40.0
14,chj,m,20,r,2,(-121.76378772032348, 121.76378772032349),24,3,1,no,m,6,m,0.5677230000001146,1,70,test2,4,0.567847400001483,-40.0
14,chj,m,20,r,2,(121.76378772032349, 121.76378772032349),22,5,2,yes,x,5,x,0.5053811999969184,1,71,test2,4,0.5055535999999847,-40.0
14,chj,m,20,r,2,(1.0544208940658713e-14, 172.20000000000002),23,3,1,yes,x,5,x,0.511053099995479,1,72,test2,4,0.5111518000048818,-42.0
14,chj,m,20,r,2,(1.0544208940658713e-14, 172.20000000000002),23,7,3,yes,x,5,x,0.38565359999483917,1,73,test2,4,0.3861423000053037,-38.0
14,chj,m,20,r,2,(172.20000000000002, 0.0),21,5,2,yes,x,5,x,0.4115868000080809,1,74,test2,4,0.41198080001049675,-40.0
14,chj,m,20,r,2,(121.76378772032349, 121.76378772032349),22,-5,12,yes,x,5,x,0.42242250000708736,1,75,test2,4,0.42253169999457896,-50.0
