subj_id,subj_name,subj_gender ,subj_age,subj_handedness,subj_runNum,tar_l_x,tar_l_y,loc_code,tar_ori,tar_code,tar_pre ,cor_response,pre_code,subj_response,RT,correct,trial_num,type,bloc_num,dur, real_tar
15,wht,f,19,r,2,(-3.163262682197613e-14, -172.20000000000002),27,5,2,no,m,6,m,0.7031164999998509,1,1,test1,1,0.7033566000000064,0.0
15,wht,f,19,r,2,(172.20000000000002, 0.0),21,-5,12,yes,x,5,x,0.5643357999997534,1,2,test1,1,0.5644605000006777,-50.0
15,wht,f,19,r,2,(-121.76378772032352, -121.76378772032348),26,-3,11,no,m,6,m,0.7734823000000688,1,3,test1,1,0.7736060999995971,-50.0
15,wht,f,19,r,2,(121.76378772032346, -121.76378772032352),28,-3,11,no,m,6,m,0.9044142000002466,1,4,test1,1,0.9045276999995622,-50.0
15,wht,f,19,r,2,(121.76378772032346, -121.76378772032352),28,-5,12,no,m,6,x,0.9806356000008236,0,5,test1,1,0.981250299999374,-50.0
15,wht,f,19,r,2,(121.76378772032346, -121.76378772032352),28,7,3,no,m,6,m,0.8015665000002627,1,6,test1,1,0.8021257000000332,-50.0
15,wht,f,19,r,2,(1.0544208940658713e-14, 172.20000000000002),23,-5,12,no,m,6,m,0.755682899999556,1,7,test1,1,0.755946600000243,-50.0
15,wht,f,19,r,2,(-3.163262682197613e-14, -172.20000000000002),27,-25,14,yes,x,5,x,0.48409519999950135,1,8,test1,1,0.4842205000004469,-70.0
15,wht,f,19,r,2,(1.0544208940658713e-14, 172.20000000000002),23,5,2,yes,x,5,x,0.6515737999998237,1,9,test1,1,0.6518010999998296,-40.0
15,wht,f,19,r,2,(-172.20000000000002, 2.1088417881317425e-14),25,-5,12,yes,x,5,x,0.7783269000001383,1,10,test1,1,0.7784246999999596,-50.0
15,wht,f,19,r,2,(-172.20000000000002, 2.1088417881317425e-14),25,-3,11,no,m,6,x,0.9588693999994575,0,11,test1,1,0.9590025999996215,-50.0
15,wht,f,19,r,2,(-172.20000000000002, 2.1088417881317425e-14),25,3,1,yes,x,5,x,0.8441953999999896,1,12,test1,1,0.8443638999997347,-42.0
15,wht,f,19,r,2,(1.0544208940658713e-14, 172.20000000000002),23,-3,11,no,m,6,m,0.6615993000004892,1,13,test1,1,0.6616966999999931,-42.0
15,wht,f,19,r,2,(121.76378772032349, 121.76378772032349),22,-7,13,yes,x,5,x,0.5720203000000765,1,14,test1,1,0.5722648999999365,-52.0
15,wht,f,19,r,2,(121.76378772032346, -121.76378772032352),28,3,1,yes,x,5,x,0.9716244999999617,1,15,test1,1,0.9718146000004708,-42.0
15,wht,f,19,r,2,(-172.20000000000002, 2.1088417881317425e-14),25,3,1,yes,x,5,m,0.6408757000008336,0,16,test1,1,0.6411044999995283,-42.0
15,wht,f,19,r,2,(-121.76378772032348, 121.76378772032349),24,-3,11,yes,x,5,m,0.7374235999996017,0,17,test1,1,0.7377893000002587,-48.0
15,wht,f,19,r,2,(121.76378772032349, 121.76378772032349),22,-5,12,no,m,6,x,0.7502426000000924,0,18,test1,1,0.7503360000000612,-48.0
15,wht,f,19,r,2,(-121.76378772032352, -121.76378772032348),26,7,3,yes,x,5,m,0.7223100000001068,0,19,test1,1,0.7229795999992348,-38.0
15,wht,f,19,r,2,(172.20000000000002, 0.0),21,-25,14,yes,x,5,x,0.5097774999994726,1,20,test1,1,0.5102388000004794,-70.0
15,wht,f,19,r,2,(-3.163262682197613e-14, -172.20000000000002),27,25,4,yes,x,5,x,0.537563500000033,1,21,test1,1,0.5382302999996682,-20.0
15,wht,f,19,r,2,(121.76378772032349, 121.76378772032349),22,-3,11,yes,x,5,m,0.7323884000006728,0,22,test1,1,0.7326476999996885,-48.0
15,wht,f,19,r,2,(-121.76378772032348, 121.76378772032349),24,7,3,yes,x,5,x,0.5574105000005147,1,23,test1,1,0.557626299999356,-38.0
15,wht,f,19,r,2,(1.0544208940658713e-14, 172.20000000000002),23,-25,14,yes,x,5,x,0.4309653000000253,1,24,test1,1,0.4310667999998259,-70.0
15,wht,f,19,r,2,(172.20000000000002, 0.0),21,-5,12,no,m,6,m,0.7478614999999991,1,25,test1,1,0.7479622000000745,-70.0
15,wht,f,19,r,2,(1.0544208940658713e-14, 172.20000000000002),23,3,1,yes,x,5,x,0.73884309999994,1,26,test1,1,0.739053100000092,-42.0
15,wht,f,19,r,2,(172.20000000000002, 0.0),21,25,4,yes,x,5,x,0.4790720999999394,1,27,test1,1,0.47953360000065004,-20.0
15,wht,f,19,r,2,(-3.163262682197613e-14, -172.20000000000002),27,-3,11,no,m,6,m,0.7631815999993705,1,28,test1,1,0.7633587999998781,-20.0
15,wht,f,19,r,2,(121.76378772032349, 121.76378772032349),22,-5,12,yes,x,5,x,0.5833954999998241,1,29,test1,1,0.5837325000002238,-50.0
15,wht,f,19,r,2,(-121.76378772032352, -121.76378772032348),26,3,1,yes,x,5,m,0.8191106999993281,0,30,test1,1,0.8195007999993322,-42.0
15,wht,f,19,r,2,(172.20000000000002, 0.0),21,-3,11,no,m,6,x,1.0596485000005487,0,31,test1,1,1.059806700000081,-42.0
15,wht,f,19,r,2,(-3.163262682197613e-14, -172.20000000000002),27,5,2,yes,x,5,x,0.7960312000004706,1,32,test1,1,0.7962723000000551,-40.0
15,wht,f,19,r,2,(1.0544208940658713e-14, 172.20000000000002),23,-25,14,no,m,6,m,0.818043299999772,1,33,test1,1,0.8182879000005414,-40.0
15,wht,f,19,r,2,(121.76378772032346, -121.76378772032352),28,-3,11,yes,x,5,x,0.9533750000000509,1,34,test1,1,0.9535568999999668,-48.0
15,wht,f,19,r,2,(-121.76378772032352, -121.76378772032348),26,5,2,no,m,6,x,1.3557854999999108,0,35,test1,1,1.355992600000718,-48.0
15,wht,f,19,r,2,(121.76378772032346, -121.76378772032352),28,7,3,yes,x,5,m,0.7337255999991612,0,36,test1,1,0.7340633000003436,-38.0
15,wht,f,19,r,2,(-121.76378772032348, 121.76378772032349),24,5,2,yes,x,5,x,0.6897349000000759,1,37,test1,1,0.6909305999997741,-40.0
15,wht,f,19,r,2,(-121.76378772032352, -121.76378772032348),26,3,1,no,m,6,m,1.031116799999836,1,38,test1,1,1.0313264999995226,-40.0
15,wht,f,19,r,2,(121.76378772032349, 121.76378772032349),22,-5,12,yes,x,5,x,0.8634001999998873,1,39,test1,1,0.8636110999996163,-50.0
15,wht,f,19,r,2,(-121.76378772032348, 121.76378772032349),24,-3,11,no,m,6,m,1.2861864999995305,1,40,test1,1,1.2863105999995241,-50.0
15,wht,f,19,r,2,(-121.76378772032352, -121.76378772032348),26,7,3,yes,x,5,x,0.6521609999999782,1,41,test1,1,0.6522938999996768,-38.0
15,wht,f,19,r,2,(1.0544208940658713e-14, 172.20000000000002),23,-5,12,yes,x,5,x,0.5322923000003357,1,42,test1,1,0.5325627000001987,-50.0
15,wht,f,19,r,2,(-121.76378772032348, 121.76378772032349),24,-7,13,no,m,6,m,0.9440098999994007,1,43,test1,1,0.9441722999999911,-50.0
15,wht,f,19,r,2,(-121.76378772032348, 121.76378772032349),24,5,2,yes,x,5,x,0.49174130000028526,1,44,test1,1,0.4918426999993244,-40.0
15,wht,f,19,r,2,(121.76378772032349, 121.76378772032349),22,-25,14,yes,x,5,x,0.6005081000002974,1,45,test1,1,0.6006717000000208,-70.0
15,wht,f,19,r,2,(121.76378772032346, -121.76378772032352),28,25,4,yes,x,5,x,0.45885529999941355,1,46,test1,1,0.4591206000004604,-20.0
15,wht,f,19,r,2,(121.76378772032346, -121.76378772032352),28,-7,13,yes,x,5,x,0.5706778000003396,1,47,test1,1,0.570917200000622,-52.0
15,wht,f,19,r,2,(-3.163262682197613e-14, -172.20000000000002),27,-5,12,no,m,6,m,0.868171699999948,1,48,test1,1,0.8684008999998696,-52.0
15,wht,f,19,r,2,(-172.20000000000002, 2.1088417881317425e-14),25,5,2,yes,x,5,x,0.9017704999996567,1,49,test1,1,0.9020038999997269,-40.0
15,wht,f,19,r,2,(-121.76378772032348, 121.76378772032349),24,-25,14,yes,x,5,x,0.48010510000040085,1,50,test1,1,0.4803388000000268,-70.0
15,wht,f,19,r,2,(-3.163262682197613e-14, -172.20000000000002),27,-7,13,no,m,6,m,0.7982651000002079,1,51,test1,1,0.7988909000005151,-70.0
15,wht,f,19,r,2,(-172.20000000000002, 2.1088417881317425e-14),25,-25,14,no,m,6,m,0.8146681999996872,1,52,test1,1,0.8148285999996006,-70.0
15,wht,f,19,r,2,(-121.76378772032348, 121.76378772032349),24,-5,12,yes,x,5,x,0.5874256000006426,1,53,test1,1,0.5880637999998726,-50.0
15,wht,f,19,r,2,(172.20000000000002, 0.0),21,7,3,yes,x,5,x,0.5151965000004566,1,54,test1,1,0.5154803000004904,-38.0
15,wht,f,19,r,2,(121.76378772032349, 121.76378772032349),22,-7,13,yes,x,5,x,0.5166266000005635,1,55,test1,1,0.5167475999996896,-52.0
15,wht,f,19,r,2,(-172.20000000000002, 2.1088417881317425e-14),25,25,4,yes,x,5,x,0.40838179999991553,1,56,test1,1,0.40854420000050595,-20.0
15,wht,f,19,r,2,(-3.163262682197613e-14, -172.20000000000002),27,25,4,no,m,6,m,0.9260606000007101,1,57,test1,1,0.926224199999524,-20.0
15,wht,f,19,r,2,(-172.20000000000002, 2.1088417881317425e-14),25,-7,13,no,m,6,m,0.6323864000005415,1,58,test1,1,0.6324967999998989,-20.0
15,wht,f,19,r,2,(-3.163262682197613e-14, -172.20000000000002),27,-5,12,yes,x,5,x,0.7880341000000044,1,59,test1,1,0.7883889999993698,-50.0
15,wht,f,19,r,2,(-121.76378772032348, 121.76378772032349),24,-5,12,no,m,6,m,0.9396004999998695,1,60,test1,1,0.9397541999996974,-50.0
15,wht,f,19,r,2,(-172.20000000000002, 2.1088417881317425e-14),25,7,3,no,m,6,m,0.6138122999991538,1,61,test1,1,0.614119999999275,-50.0
15,wht,f,19,r,2,(-121.76378772032352, -121.76378772032348),26,-7,13,yes,x,5,x,0.6179442000002382,1,62,test1,1,0.6181719999995039,-52.0
15,wht,f,19,r,2,(-172.20000000000002, 2.1088417881317425e-14),25,-7,13,yes,x,5,x,0.5017880999994304,1,63,test1,1,0.501888599999802,-52.0
15,wht,f,19,r,2,(121.76378772032346, -121.76378772032352),28,25,4,no,m,6,m,0.8485147000001234,1,64,test1,1,0.848628199999439,-52.0
15,wht,f,19,r,2,(-172.20000000000002, 2.1088417881317425e-14),25,-25,14,yes,x,5,x,0.46933850000004895,1,65,test1,1,0.4694663000000219,-70.0
15,wht,f,19,r,2,(-121.76378772032348, 121.76378772032349),24,5,2,no,m,6,m,0.69007959999999,1,66,test1,1,0.6905145999999149,-70.0
15,wht,f,19,r,2,(-121.76378772032352, -121.76378772032348),26,-5,12,yes,x,5,x,0.7304482999998072,1,67,test1,1,0.7306447000000844,-50.0
15,wht,f,19,r,2,(121.76378772032346, -121.76378772032352),28,5,2,yes,x,5,x,0.5915202999995017,1,68,test1,1,0.5920460999996067,-40.0
15,wht,f,19,r,2,(172.20000000000002, 0.0),21,7,3,yes,x,5,x,0.5457648000001427,1,69,test1,1,0.546383899999455,-38.0
15,wht,f,19,r,2,(121.76378772032346, -121.76378772032352),28,3,1,yes,x,5,x,0.7482656000001953,1,70,test1,1,0.7485969000008481,-42.0
15,wht,f,19,r,2,(-3.163262682197613e-14, -172.20000000000002),27,3,1,no,m,6,m,0.9092006000000765,1,71,test1,1,0.9093332000002192,-42.0
15,wht,f,19,r,2,(121.76378772032349, 121.76378772032349),22,7,3,yes,x,5,x,0.5255332999995517,1,72,test1,1,0.5258229999999458,-38.0
15,wht,f,19,r,2,(-121.76378772032348, 121.76378772032349),24,25,4,no,m,6,m,0.6933207000001858,1,73,test1,1,0.6936365000001388,-38.0
15,wht,f,19,r,2,(-172.20000000000002, 2.1088417881317425e-14),25,5,2,yes,x,5,x,0.811311399999795,1,74,test1,1,0.811848899999859,-40.0
15,wht,f,19,r,2,(-3.163262682197613e-14, -172.20000000000002),27,-25,14,yes,x,5,x,0.46424800000022515,1,75,test1,1,0.4644741000001886,-70.0
15,wht,f,19,r,2,(-3.163262682197613e-14, -172.20000000000002),27,7,3,yes,x,5,x,0.6058556999996654,1,76,test1,1,0.6060137000004033,-38.0
15,wht,f,19,r,2,(-121.76378772032352, -121.76378772032348),26,-25,14,yes,x,5,x,0.39433980000012525,1,77,test1,1,0.39455530000032013,-70.0
15,wht,f,19,r,2,(121.76378772032349, 121.76378772032349),22,-7,13,no,m,6,m,0.7166717000000062,1,78,test1,1,0.7167756999997437,-70.0
15,wht,f,19,r,2,(-121.76378772032352, -121.76378772032348),26,-25,14,yes,x,5,x,0.4683853000005911,1,79,test1,1,0.46847859999979846,-70.0
15,wht,f,19,r,2,(-172.20000000000002, 2.1088417881317425e-14),25,-7,13,yes,x,5,x,0.577473800000007,1,80,test1,1,0.5777063000005,-52.0
15,wht,f,19,r,2,(121.76378772032349, 121.76378772032349),22,3,1,no,m,6,m,0.8484390000003259,1,81,test1,1,0.848772899999858,-52.0
15,wht,f,19,r,2,(121.76378772032349, 121.76378772032349),22,-3,11,yes,x,5,x,0.8739009999999325,1,82,test1,1,0.8741166999998313,-48.0
15,wht,f,19,r,2,(-121.76378772032352, -121.76378772032348),26,7,3,no,m,6,m,0.7967789000003904,1,83,test1,1,0.7973246000001382,-48.0
15,wht,f,19,r,2,(-172.20000000000002, 2.1088417881317425e-14),25,-3,11,yes,x,5,x,0.8063948000008168,1,84,test1,1,0.8065538999999262,-48.0
15,wht,f,19,r,2,(172.20000000000002, 0.0),21,3,1,yes,x,5,x,1.1130510000002687,1,85,test1,1,1.1131679999998596,-42.0
15,wht,f,19,r,2,(121.76378772032346, -121.76378772032352),28,3,1,no,m,6,m,0.8737146000003122,1,86,test1,1,0.8738762999992105,-42.0
15,wht,f,19,r,2,(172.20000000000002, 0.0),21,-3,11,yes,x,5,x,0.8642619999991439,1,87,test1,1,0.8644495999997162,-48.0
15,wht,f,19,r,2,(172.20000000000002, 0.0),21,-25,14,yes,x,5,x,0.4644404000000577,1,88,test1,1,0.4645724000001792,-70.0
15,wht,f,19,r,2,(-121.76378772032348, 121.76378772032349),24,7,3,yes,x,5,x,0.6355796000007103,1,89,test1,1,0.6357915000007779,-38.0
15,wht,f,19,r,2,(-3.163262682197613e-14, -172.20000000000002),27,-5,12,yes,x,5,x,0.6678110000002562,1,90,test1,1,0.6679543000000194,-50.0
15,wht,f,19,r,2,(-121.76378772032352, -121.76378772032348),26,-5,12,yes,x,5,x,0.6710444999998799,1,91,test1,1,0.6712393999996493,-50.0
15,wht,f,19,r,2,(-121.76378772032352, -121.76378772032348),26,-3,11,yes,x,5,m,0.8894682000000103,0,92,test1,1,0.8896862999999939,-48.0
15,wht,f,19,r,2,(-172.20000000000002, 2.1088417881317425e-14),25,-5,12,yes,x,5,x,0.5744073999994725,1,93,test1,1,0.5746385000002192,-50.0
15,wht,f,19,r,2,(-121.76378772032348, 121.76378772032349),24,-7,13,yes,x,5,x,0.5519844000000376,1,94,test1,1,0.5521967000004224,-52.0
15,wht,f,19,r,2,(172.20000000000002, 0.0),21,5,2,yes,x,5,x,0.9475048999993305,1,95,test1,1,0.9479294000002483,-40.0
15,wht,f,19,r,2,(172.20000000000002, 0.0),21,-3,11,yes,x,5,x,0.7331300000005285,1,96,test1,1,0.7332318000007945,-48.0
15,wht,f,19,r,2,(121.76378772032346, -121.76378772032352),28,-25,14,no,m,6,m,0.6918148000004294,1,1,test2,1,0.6919536999994307,-48.0
15,wht,f,19,r,2,(1.0544208940658713e-14, 172.20000000000002),23,3,1,no,m,6,m,0.8810984000001554,1,2,test2,1,0.8812200000002122,-48.0
15,wht,f,19,r,2,(172.20000000000002, 0.0),21,3,1,no,m,6,m,0.9218346999996356,1,3,test2,1,0.9219800999999279,-48.0
15,wht,f,19,r,2,(-121.76378772032348, 121.76378772032349),24,7,3,no,m,6,m,0.8627683000004254,1,4,test2,1,0.8629331000001912,-48.0
15,wht,f,19,r,2,(-121.76378772032348, 121.76378772032349),24,3,1,yes,x,5,m,1.003516299999319,0,5,test2,1,1.003629999999248,-42.0
15,wht,f,19,r,2,(172.20000000000002, 0.0),21,-7,13,yes,x,5,x,0.4741713000003074,1,6,test2,1,0.4743042999998579,-52.0
15,wht,f,19,r,2,(121.76378772032349, 121.76378772032349),22,3,1,yes,x,5,x,0.9519166000000041,1,7,test2,1,0.9522094999992987,-42.0
15,wht,f,19,r,2,(1.0544208940658713e-14, 172.20000000000002),23,7,3,no,m,6,m,0.67543569999998,1,8,test2,1,0.675632499999665,-42.0
15,wht,f,19,r,2,(-121.76378772032348, 121.76378772032349),24,25,4,yes,x,5,x,0.5227938000007271,1,9,test2,1,0.5230390000006082,-20.0
15,wht,f,19,r,2,(1.0544208940658713e-14, 172.20000000000002),23,3,1,yes,x,5,x,1.0100615000001198,1,10,test2,1,1.010391200000413,-42.0
15,wht,f,19,r,2,(-121.76378772032352, -121.76378772032348),26,25,4,yes,x,5,x,0.5018465999992259,1,11,test2,1,0.5021691000001738,-20.0
15,wht,f,19,r,2,(172.20000000000002, 0.0),21,25,4,yes,x,5,x,0.4780945000002248,1,12,test2,1,0.4782863999998881,-20.0
15,wht,f,19,r,2,(1.0544208940658713e-14, 172.20000000000002),23,-3,11,yes,x,5,x,0.8250039000004108,1,13,test2,1,0.8252243999995699,-48.0
15,wht,f,19,r,2,(121.76378772032349, 121.76378772032349),22,5,2,yes,x,5,x,0.5393106999999873,1,14,test2,1,0.5394363999994312,-40.0
15,wht,f,19,r,2,(-121.76378772032348, 121.76378772032349),24,3,1,no,m,6,m,0.646678700000848,1,15,test2,1,0.6469740000002275,-40.0
15,wht,f,19,r,2,(1.0544208940658713e-14, 172.20000000000002),23,-3,11,yes,x,5,m,0.6731595000001107,0,16,test2,1,0.6735123999997086,-48.0
15,wht,f,19,r,2,(121.76378772032346, -121.76378772032352),28,25,4,yes,x,5,x,0.5138050999994448,1,17,test2,1,0.5140435000002981,-20.0
15,wht,f,19,r,2,(-172.20000000000002, 2.1088417881317425e-14),25,25,4,no,m,6,m,0.9475437999999485,1,18,test2,1,0.9478329999992638,-20.0
15,wht,f,19,r,2,(-3.163262682197613e-14, -172.20000000000002),27,3,1,yes,x,5,x,0.9620112000002337,1,19,test2,1,0.9621863000002122,-42.0
15,wht,f,19,r,2,(121.76378772032349, 121.76378772032349),22,25,4,yes,x,5,x,0.43497110000043904,1,20,test2,1,0.4353301000001011,-20.0
15,wht,f,19,r,2,(172.20000000000002, 0.0),21,7,3,no,m,6,m,0.7717088000008516,1,21,test2,1,0.7718621000003623,-20.0
15,wht,f,19,r,2,(-121.76378772032352, -121.76378772032348),26,25,4,no,m,6,m,0.8781308000006902,1,22,test2,1,0.8782896000002438,-20.0
15,wht,f,19,r,2,(-121.76378772032352, -121.76378772032348),26,-3,11,yes,x,5,x,0.9444164999995337,1,23,test2,1,0.9446928000006665,-48.0
15,wht,f,19,r,2,(121.76378772032346, -121.76378772032352),28,5,2,yes,x,5,x,0.6353793999996924,1,24,test2,1,0.6355006000003414,-40.0
15,wht,f,19,r,2,(1.0544208940658713e-14, 172.20000000000002),23,25,4,yes,x,5,x,0.4665017999996053,1,25,test2,1,0.4666250999998738,-20.0
15,wht,f,19,r,2,(1.0544208940658713e-14, 172.20000000000002),23,-7,13,no,m,6,m,0.802762299999813,1,26,test2,1,0.8029065000000628,-20.0
15,wht,f,19,r,2,(-121.76378772032348, 121.76378772032349),24,-25,14,no,m,6,m,0.6435292000005575,1,27,test2,1,0.6436303000000407,-20.0
15,wht,f,19,r,2,(-3.163262682197613e-14, -172.20000000000002),27,-7,13,yes,x,5,x,0.5989996999996947,1,28,test2,1,0.5994509000001926,-52.0
15,wht,f,19,r,2,(121.76378772032349, 121.76378772032349),22,7,3,no,m,6,m,0.7123851000005743,1,29,test2,1,0.7124863999997615,-52.0
15,wht,f,19,r,2,(121.76378772032346, -121.76378772032352),28,-5,12,yes,x,5,x,0.6581668999997419,1,30,test2,1,0.6582913000002009,-50.0
15,wht,f,19,r,2,(1.0544208940658713e-14, 172.20000000000002),23,25,4,no,m,6,m,0.7831707999994251,1,31,test2,1,0.7833694999999352,-50.0
15,wht,f,19,r,2,(1.0544208940658713e-14, 172.20000000000002),23,5,2,yes,x,5,x,0.5500364999998055,1,32,test2,1,0.5503208999998606,-40.0
15,wht,f,19,r,2,(121.76378772032346, -121.76378772032352),28,-5,12,yes,x,5,x,0.649162200000319,1,33,test2,1,0.649568900000304,-50.0
15,wht,f,19,r,2,(121.76378772032349, 121.76378772032349),22,-3,11,no,m,6,m,0.7003758999999263,1,34,test2,1,0.7005395999995017,-50.0
15,wht,f,19,r,2,(1.0544208940658713e-14, 172.20000000000002),23,7,3,yes,x,5,x,0.470572500000344,1,35,test2,1,0.4707005999998728,-38.0
15,wht,f,19,r,2,(121.76378772032346, -121.76378772032352),28,-3,11,yes,x,5,x,0.7779600999992908,1,36,test2,1,0.7786224000001312,-48.0
15,wht,f,19,r,2,(-172.20000000000002, 2.1088417881317425e-14),25,7,3,yes,x,5,x,0.4789026999997077,1,37,test2,1,0.47924539999985427,-38.0
15,wht,f,19,r,2,(-121.76378772032352, -121.76378772032348),26,25,4,yes,x,5,x,0.439168900000368,1,38,test2,1,0.4394366999995327,-20.0
15,wht,f,19,r,2,(172.20000000000002, 0.0),21,5,2,yes,x,5,x,0.6150453000000198,1,39,test2,1,0.6152544999995371,-40.0
15,wht,f,19,r,2,(-172.20000000000002, 2.1088417881317425e-14),25,-25,14,yes,x,5,x,0.42375319999973726,1,40,test2,1,0.4238977999993949,-70.0
15,wht,f,19,r,2,(-121.76378772032352, -121.76378772032348),26,3,1,yes,x,5,x,0.76536969999961,1,41,test2,1,0.765582699999868,-42.0
15,wht,f,19,r,2,(172.20000000000002, 0.0),21,-5,12,yes,x,5,x,0.558449300000575,1,42,test2,1,0.5585681000002296,-50.0
15,wht,f,19,r,2,(172.20000000000002, 0.0),21,3,1,yes,x,5,x,0.8492978999993284,1,43,test2,1,0.8498122000000876,-42.0
15,wht,f,19,r,2,(172.20000000000002, 0.0),21,5,2,no,m,6,m,0.9138962999995783,1,44,test2,1,0.914014899999529,-42.0
15,wht,f,19,r,2,(-121.76378772032352, -121.76378772032348),26,-7,13,yes,x,5,x,0.6489917999997488,1,45,test2,1,0.6490874000000986,-52.0
15,wht,f,19,r,2,(121.76378772032346, -121.76378772032352),28,-7,13,no,m,6,m,0.7244182000004002,1,46,test2,1,0.7247227999996539,-52.0
15,wht,f,19,r,2,(121.76378772032346, -121.76378772032352),28,-25,14,yes,x,5,x,0.520426199999747,1,47,test2,1,0.5206721999993533,-70.0
15,wht,f,19,r,2,(121.76378772032349, 121.76378772032349),22,-25,14,yes,x,5,x,0.5167505999997957,1,48,test2,1,0.5170404000000417,-70.0
15,wht,f,19,r,2,(-121.76378772032352, -121.76378772032348),26,-7,13,no,m,6,m,0.6494929000000411,1,49,test2,1,0.6496357000005446,-70.0
15,wht,f,19,r,2,(121.76378772032349, 121.76378772032349),22,3,1,yes,x,5,x,0.8495642000007138,1,50,test2,1,0.8496905000001789,-42.0
15,wht,f,19,r,2,(121.76378772032349, 121.76378772032349),22,25,4,no,m,6,m,0.7302731999998286,1,51,test2,1,0.730402199999844,-42.0
15,wht,f,19,r,2,(-121.76378772032348, 121.76378772032349),24,-7,13,yes,x,5,x,0.4586724000000686,1,52,test2,1,0.4587693000003128,-52.0
15,wht,f,19,r,2,(1.0544208940658713e-14, 172.20000000000002),23,-7,13,yes,x,5,x,0.5239894000005734,1,53,test2,1,0.5243934000000081,-52.0
15,wht,f,19,r,2,(-172.20000000000002, 2.1088417881317425e-14),25,3,1,no,m,6,m,0.6737048999993931,1,54,test2,1,0.6739330000000336,-52.0
15,wht,f,19,r,2,(121.76378772032346, -121.76378772032352),28,-7,13,yes,x,5,x,0.6360789999998815,1,55,test2,1,0.6361797999998089,-52.0
15,wht,f,19,r,2,(-121.76378772032352, -121.76378772032348),26,5,2,yes,x,5,x,0.8450768000002427,1,56,test2,1,0.845530399999916,-40.0
15,wht,f,19,r,2,(-121.76378772032352, -121.76378772032348),26,-25,14,no,m,6,m,0.6299540999998499,1,57,test2,1,0.6300627999999051,-40.0
15,wht,f,19,r,2,(121.76378772032349, 121.76378772032349),22,25,4,yes,x,5,x,0.47988549999990937,1,58,test2,1,0.4801064999992377,-20.0
15,wht,f,19,r,2,(-121.76378772032348, 121.76378772032349),24,3,1,yes,x,5,x,0.8228429999999207,1,59,test2,1,0.8229726999998093,-42.0
15,wht,f,19,r,2,(-3.163262682197613e-14, -172.20000000000002),27,-25,14,no,m,6,m,0.8574889999999868,1,60,test2,1,0.8576272000000245,-42.0
15,wht,f,19,r,2,(-172.20000000000002, 2.1088417881317425e-14),25,5,2,no,m,6,x,0.6523268999999345,0,61,test2,1,0.6524292000003697,-42.0
15,wht,f,19,r,2,(-3.163262682197613e-14, -172.20000000000002),27,-7,13,yes,x,5,x,0.4885548000002018,1,62,test2,1,0.4886587999999392,-52.0
15,wht,f,19,r,2,(1.0544208940658713e-14, 172.20000000000002),23,-5,12,yes,x,5,x,0.6359399000002668,1,63,test2,1,0.6360394000002998,-50.0
15,wht,f,19,r,2,(121.76378772032349, 121.76378772032349),22,5,2,no,m,6,m,0.6357684000004156,1,64,test2,1,0.6359883999994054,-50.0
15,wht,f,19,r,2,(-3.163262682197613e-14, -172.20000000000002),27,5,2,yes,x,5,x,0.7981667000003654,1,65,test2,1,0.7983951999995043,-40.0
15,wht,f,19,r,2,(-121.76378772032348, 121.76378772032349),24,-3,11,yes,x,5,m,0.5277132000001075,0,66,test2,1,0.5278248000004169,-48.0
15,wht,f,19,r,2,(172.20000000000002, 0.0),21,25,4,no,m,6,x,0.7112991000003603,0,67,test2,1,0.7115447999995013,-48.0
15,wht,f,19,r,2,(121.76378772032346, -121.76378772032352),28,5,2,no,m,6,m,0.8259003000002849,1,68,test2,1,0.8261102000005849,-48.0
15,wht,f,19,r,2,(172.20000000000002, 0.0),21,-7,13,no,m,6,m,0.7933432999998331,1,69,test2,1,0.793581500000073,-48.0
15,wht,f,19,r,2,(-121.76378772032348, 121.76378772032349),24,-5,12,yes,x,5,x,0.5458395000005112,1,70,test2,1,0.5460214000004271,-50.0
15,wht,f,19,r,2,(-172.20000000000002, 2.1088417881317425e-14),25,-3,11,yes,x,5,x,0.9183336999994935,1,71,test2,1,0.9184298000000126,-48.0
15,wht,f,19,r,2,(1.0544208940658713e-14, 172.20000000000002),23,-7,13,yes,x,5,x,0.49004860000059125,1,72,test2,1,0.4901585999996314,-52.0
15,wht,f,19,r,2,(-3.163262682197613e-14, -172.20000000000002),27,25,4,yes,x,5,x,0.47743700000046374,1,73,test2,1,0.4776849999998376,-20.0
15,wht,f,19,r,2,(1.0544208940658713e-14, 172.20000000000002),23,-25,14,yes,x,5,x,0.4228778999995484,1,74,test2,1,0.42340430000058404,-70.0
15,wht,f,19,r,2,(-121.76378772032348, 121.76378772032349),24,-25,14,yes,x,5,x,0.3949278999998569,1,75,test2,1,0.3951206000001548,-70.0
15,wht,f,19,r,2,(-121.76378772032348, 121.76378772032349),24,25,4,yes,x,5,x,0.44178720000036265,1,76,test2,1,0.44199399999979505,-20.0
15,wht,f,19,r,2,(1.0544208940658713e-14, 172.20000000000002),23,5,2,no,m,6,m,0.5923166000002311,1,77,test2,1,0.5926178999998228,-20.0
15,wht,f,19,r,2,(172.20000000000002, 0.0),21,-25,14,no,m,6,m,0.9367196000002878,1,78,test2,1,0.9371280999994269,-20.0
15,wht,f,19,r,2,(-3.163262682197613e-14, -172.20000000000002),27,-3,11,yes,x,5,m,0.5940088999996078,0,79,test2,1,0.5941037000002325,-48.0
15,wht,f,19,r,2,(121.76378772032349, 121.76378772032349),22,5,2,yes,x,5,x,0.6809456999999384,1,80,test2,1,0.6815681999996741,-40.0
15,wht,f,19,r,2,(-121.76378772032352, -121.76378772032348),26,-5,12,no,m,6,m,0.7064675999999963,1,81,test2,1,0.7067511999994167,-40.0
15,wht,f,19,r,2,(-3.163262682197613e-14, -172.20000000000002),27,-3,11,yes,x,5,x,0.8462958999998591,1,82,test2,1,0.8465155000003506,-48.0
15,wht,f,19,r,2,(-3.163262682197613e-14, -172.20000000000002),27,7,3,no,m,6,m,0.80128699999932,1,83,test2,1,0.8013884000001781,-48.0
15,wht,f,19,r,2,(-172.20000000000002, 2.1088417881317425e-14),25,7,3,yes,x,5,x,0.45992610000030254,1,84,test2,1,0.46002750000025117,-38.0
15,wht,f,19,r,2,(-172.20000000000002, 2.1088417881317425e-14),25,-5,12,no,m,6,m,0.7121021000002656,1,85,test2,1,0.7122220999999627,-38.0
15,wht,f,19,r,2,(1.0544208940658713e-14, 172.20000000000002),23,7,3,yes,x,5,x,0.48667700000078185,1,86,test2,1,0.4871524000000136,-38.0
15,wht,f,19,r,2,(-3.163262682197613e-14, -172.20000000000002),27,3,1,yes,x,5,m,0.8178706999997303,0,87,test2,1,0.8180407999998351,-42.0
15,wht,f,19,r,2,(121.76378772032349, 121.76378772032349),22,7,3,yes,x,5,m,0.48738569999932224,0,88,test2,1,0.48768610000024637,-38.0
15,wht,f,19,r,2,(-3.163262682197613e-14, -172.20000000000002),27,7,3,yes,x,5,x,0.566862100000435,1,89,test2,1,0.5671518999997716,-38.0
15,wht,f,19,r,2,(121.76378772032346, -121.76378772032352),28,-25,14,yes,x,5,x,0.4719598000001497,1,90,test2,1,0.4722418999999718,-70.0
15,wht,f,19,r,2,(1.0544208940658713e-14, 172.20000000000002),23,25,4,yes,x,5,x,0.4289888000002975,1,91,test2,1,0.4291027999997823,-20.0
15,wht,f,19,r,2,(121.76378772032349, 121.76378772032349),22,-25,14,no,m,6,m,0.7059333999995943,1,92,test2,1,0.7063489000001937,-20.0
15,wht,f,19,r,2,(-172.20000000000002, 2.1088417881317425e-14),25,25,4,yes,x,5,x,0.5442653000000064,1,93,test2,1,0.5443791999996392,-20.0
15,wht,f,19,r,2,(-121.76378772032352, -121.76378772032348),26,5,2,yes,x,5,x,0.8191133999998783,1,94,test2,1,0.819416899999851,-40.0
15,wht,f,19,r,2,(172.20000000000002, 0.0),21,-7,13,yes,x,5,x,0.62401890000001,1,95,test2,1,0.6242271000000983,-52.0
15,wht,f,19,r,2,(121.76378772032346, -121.76378772032352),28,7,3,yes,x,5,x,0.5464066000004095,1,96,test2,1,0.5466592000002493,-38.0
15,wht,f,19,r,2,(-3.163262682197613e-14, -172.20000000000002),27,5,2,no,m,6,x,0.6008392000003369,0,1,test1,2,0.6009750000002896,-38.0
15,wht,f,19,r,2,(172.20000000000002, 0.0),21,-5,12,yes,x,5,x,0.6817905999996583,1,2,test1,2,0.6820533000000069,-50.0
15,wht,f,19,r,2,(-121.76378772032352, -121.76378772032348),26,-3,11,no,m,6,m,0.9819974000001821,1,3,test1,2,0.9821352999997544,-50.0
15,wht,f,19,r,2,(121.76378772032346, -121.76378772032352),28,-3,11,no,m,6,m,0.7627996999999596,1,4,test1,2,0.763044200000877,-50.0
15,wht,f,19,r,2,(121.76378772032346, -121.76378772032352),28,-5,12,no,m,6,m,0.7418252999996184,1,5,test1,2,0.7422190999996019,-50.0
15,wht,f,19,r,2,(121.76378772032346, -121.76378772032352),28,7,3,no,m,6,m,0.9854346000001897,1,6,test1,2,0.9855317000001378,-50.0
15,wht,f,19,r,2,(1.0544208940658713e-14, 172.20000000000002),23,-5,12,no,m,6,m,0.7443628999999419,1,7,test1,2,0.7445864000001166,-50.0
15,wht,f,19,r,2,(-3.163262682197613e-14, -172.20000000000002),27,-25,14,yes,x,5,x,0.4619924999997238,1,8,test1,2,0.462289499999315,-70.0
15,wht,f,19,r,2,(1.0544208940658713e-14, 172.20000000000002),23,5,2,yes,x,5,x,0.7248988000001191,1,9,test1,2,0.7250002999999197,-40.0
15,wht,f,19,r,2,(-172.20000000000002, 2.1088417881317425e-14),25,-5,12,yes,x,5,x,0.46532029999980296,1,10,test1,2,0.46594249999998283,-50.0
15,wht,f,19,r,2,(-172.20000000000002, 2.1088417881317425e-14),25,-3,11,no,m,6,m,0.7691132999998445,1,11,test1,2,0.7693020000006072,-50.0
15,wht,f,19,r,2,(-172.20000000000002, 2.1088417881317425e-14),25,3,1,yes,x,5,x,0.9672350000000733,1,12,test1,2,0.9673403999995571,-42.0
15,wht,f,19,r,2,(1.0544208940658713e-14, 172.20000000000002),23,-3,11,no,m,6,m,0.7135623999993186,1,13,test1,2,0.7139564000008249,-42.0
15,wht,f,19,r,2,(121.76378772032349, 121.76378772032349),22,-7,13,yes,x,5,x,0.5958058999995046,1,14,test1,2,0.5960900999998557,-52.0
15,wht,f,19,r,2,(121.76378772032346, -121.76378772032352),28,3,1,yes,x,5,x,0.6603808999998364,1,15,test1,2,0.6606054000003496,-42.0
15,wht,f,19,r,2,(-172.20000000000002, 2.1088417881317425e-14),25,3,1,yes,x,5,m,1.078646499999195,0,16,test1,2,1.0787687000001824,-42.0
15,wht,f,19,r,2,(-121.76378772032348, 121.76378772032349),24,-3,11,yes,x,5,m,0.6304949999994278,0,17,test1,2,0.630653500000335,-48.0
15,wht,f,19,r,2,(121.76378772032349, 121.76378772032349),22,-5,12,no,m,6,x,1.306652999999642,0,18,test1,2,1.3067606000004162,-48.0
15,wht,f,19,r,2,(-121.76378772032352, -121.76378772032348),26,7,3,yes,x,5,x,1.011675799999466,1,19,test1,2,1.0118410000004587,-38.0
15,wht,f,19,r,2,(172.20000000000002, 0.0),21,-25,14,yes,x,5,x,0.49566070000037143,1,20,test1,2,0.49612400000023626,-70.0
15,wht,f,19,r,2,(-3.163262682197613e-14, -172.20000000000002),27,25,4,yes,x,5,x,0.5062219999999797,1,21,test1,2,0.5066141999996034,-20.0
15,wht,f,19,r,2,(121.76378772032349, 121.76378772032349),22,-3,11,yes,x,5,x,0.8755933000002187,1,22,test1,2,0.8757321000002776,-48.0
15,wht,f,19,r,2,(-121.76378772032348, 121.76378772032349),24,7,3,yes,x,5,x,0.5626388000000588,1,23,test1,2,0.5629205000004731,-38.0
15,wht,f,19,r,2,(1.0544208940658713e-14, 172.20000000000002),23,-25,14,yes,x,5,x,0.3980581000005259,1,24,test1,2,0.3982952000005753,-70.0
15,wht,f,19,r,2,(172.20000000000002, 0.0),21,-5,12,no,m,6,m,0.79026740000063,1,25,test1,2,0.7903853000007075,-70.0
15,wht,f,19,r,2,(1.0544208940658713e-14, 172.20000000000002),23,3,1,yes,x,5,x,0.6540807999999743,1,26,test1,2,0.6543683999998393,-42.0
15,wht,f,19,r,2,(172.20000000000002, 0.0),21,25,4,yes,x,5,x,0.5870144000000437,1,27,test1,2,0.5871061999996527,-20.0
15,wht,f,19,r,2,(-3.163262682197613e-14, -172.20000000000002),27,-3,11,no,m,6,m,0.7568976000002294,1,28,test1,2,0.7571253999994951,-20.0
15,wht,f,19,r,2,(121.76378772032349, 121.76378772032349),22,-5,12,yes,x,5,x,0.7498212999998941,1,29,test1,2,0.7501201999994009,-50.0
15,wht,f,19,r,2,(-121.76378772032352, -121.76378772032348),26,3,1,yes,x,5,x,0.8827257000002646,1,30,test1,2,0.882868800000324,-42.0
15,wht,f,19,r,2,(172.20000000000002, 0.0),21,-3,11,no,m,6,x,0.759868600000118,0,31,test1,2,0.7600970999992569,-42.0
15,wht,f,19,r,2,(-3.163262682197613e-14, -172.20000000000002),27,5,2,yes,x,5,x,0.9703208000000814,1,32,test1,2,0.9707106000005297,-40.0
15,wht,f,19,r,2,(1.0544208940658713e-14, 172.20000000000002),23,-25,14,no,m,6,m,0.7087569000004805,1,33,test1,2,0.7088919999996506,-40.0
15,wht,f,19,r,2,(121.76378772032346, -121.76378772032352),28,-3,11,yes,x,5,x,1.0516589000008025,1,34,test1,2,1.0518510000001697,-48.0
15,wht,f,19,r,2,(-121.76378772032352, -121.76378772032348),26,5,2,no,m,6,m,1.0375177000005351,1,35,test1,2,1.0376459999997678,-48.0
15,wht,f,19,r,2,(121.76378772032346, -121.76378772032352),28,7,3,yes,x,5,x,0.619374599999901,1,36,test1,2,0.6194662999996581,-38.0
15,wht,f,19,r,2,(-121.76378772032348, 121.76378772032349),24,5,2,yes,x,5,x,0.956541799999286,1,37,test1,2,0.9568778999991991,-40.0
15,wht,f,19,r,2,(-121.76378772032352, -121.76378772032348),26,3,1,no,m,6,m,0.9855140999998184,1,38,test1,2,0.9857105999999476,-40.0
15,wht,f,19,r,2,(121.76378772032349, 121.76378772032349),22,-5,12,yes,x,5,x,0.5488612999997713,1,39,test1,2,0.5491703999996389,-50.0
15,wht,f,19,r,2,(-121.76378772032348, 121.76378772032349),24,-3,11,no,m,6,m,0.6523286000001463,1,40,test1,2,0.6525623000006817,-50.0
15,wht,f,19,r,2,(-121.76378772032352, -121.76378772032348),26,7,3,yes,x,5,x,0.5377895000001445,1,41,test1,2,0.5380561000001762,-38.0
15,wht,f,19,r,2,(1.0544208940658713e-14, 172.20000000000002),23,-5,12,yes,x,5,x,0.5999009000006481,1,42,test1,2,0.6001419000003807,-50.0
15,wht,f,19,r,2,(-121.76378772032348, 121.76378772032349),24,-7,13,no,m,6,x,1.268579100000352,0,43,test1,2,1.2687896999996156,-50.0
15,wht,f,19,r,2,(-121.76378772032348, 121.76378772032349),24,5,2,yes,x,5,x,0.8420025000004898,1,44,test1,2,0.8422245000001567,-40.0
15,wht,f,19,r,2,(121.76378772032349, 121.76378772032349),22,-25,14,yes,x,5,x,0.4888721999996051,1,45,test1,2,0.48993270000028133,-70.0
15,wht,f,19,r,2,(121.76378772032346, -121.76378772032352),28,25,4,yes,x,5,x,0.511942199999794,1,46,test1,2,0.5121758999994199,-20.0
15,wht,f,19,r,2,(121.76378772032346, -121.76378772032352),28,-7,13,yes,x,5,x,0.5212011000003258,1,47,test1,2,0.5215097000000242,-52.0
15,wht,f,19,r,2,(-3.163262682197613e-14, -172.20000000000002),27,-5,12,no,m,6,x,0.5227238000006764,0,48,test1,2,0.5228461000006064,-52.0
15,wht,f,19,r,2,(-172.20000000000002, 2.1088417881317425e-14),25,5,2,yes,x,5,x,0.8170998000005056,1,49,test1,2,0.8172672999999122,-40.0
15,wht,f,19,r,2,(-121.76378772032348, 121.76378772032349),24,-25,14,yes,x,5,x,0.6474331999997958,1,50,test1,2,0.647712899999533,-70.0
15,wht,f,19,r,2,(-3.163262682197613e-14, -172.20000000000002),27,-7,13,no,m,6,m,0.8415570999995907,1,51,test1,2,0.8418633999999656,-70.0
15,wht,f,19,r,2,(-172.20000000000002, 2.1088417881317425e-14),25,-25,14,no,m,6,m,0.6509205000002112,1,52,test1,2,0.6510433000003104,-70.0
15,wht,f,19,r,2,(-121.76378772032348, 121.76378772032349),24,-5,12,yes,x,5,x,0.5465488999998342,1,53,test1,2,0.5469302999999854,-50.0
15,wht,f,19,r,2,(172.20000000000002, 0.0),21,7,3,yes,x,5,x,0.6123403999999937,1,54,test1,2,0.6124343999999837,-38.0
15,wht,f,19,r,2,(121.76378772032349, 121.76378772032349),22,-7,13,yes,x,5,x,0.5623603000003641,1,55,test1,2,0.5625804999999673,-52.0
15,wht,f,19,r,2,(-172.20000000000002, 2.1088417881317425e-14),25,25,4,yes,x,5,x,0.4461694000001444,1,56,test1,2,0.4462845999996716,-20.0
15,wht,f,19,r,2,(-3.163262682197613e-14, -172.20000000000002),27,25,4,no,m,6,m,0.6619082999995953,1,57,test1,2,0.6620362000003297,-20.0
15,wht,f,19,r,2,(-172.20000000000002, 2.1088417881317425e-14),25,-7,13,no,m,6,m,0.7145003999994515,1,58,test1,2,0.7149540000000343,-20.0
15,wht,f,19,r,2,(-3.163262682197613e-14, -172.20000000000002),27,-5,12,yes,x,5,x,0.7027711000000636,1,59,test1,2,0.7028937000004589,-50.0
15,wht,f,19,r,2,(-121.76378772032348, 121.76378772032349),24,-5,12,no,m,6,m,0.6483471999999892,1,60,test1,2,0.6485425999999279,-50.0
15,wht,f,19,r,2,(-172.20000000000002, 2.1088417881317425e-14),25,7,3,no,m,6,m,0.6873298999998951,1,61,test1,2,0.6874280000001818,-50.0
15,wht,f,19,r,2,(-121.76378772032352, -121.76378772032348),26,-7,13,yes,x,5,x,0.6148135000003094,1,62,test1,2,0.6149846999996953,-52.0
15,wht,f,19,r,2,(-172.20000000000002, 2.1088417881317425e-14),25,-7,13,yes,x,5,x,0.5000261999994109,1,63,test1,2,0.5005086999999548,-52.0
15,wht,f,19,r,2,(121.76378772032346, -121.76378772032352),28,25,4,no,m,6,m,0.6090165999994497,1,64,test1,2,0.6091998000001695,-52.0
15,wht,f,19,r,2,(-172.20000000000002, 2.1088417881317425e-14),25,-25,14,yes,x,5,x,0.4511640000000625,1,65,test1,2,0.4512961999998879,-70.0
15,wht,f,19,r,2,(-121.76378772032348, 121.76378772032349),24,5,2,no,m,6,m,0.6380035000001953,1,66,test1,2,0.6382510000003094,-70.0
15,wht,f,19,r,2,(-121.76378772032352, -121.76378772032348),26,-5,12,yes,x,5,x,0.6982661000001826,1,67,test1,2,0.6984642000006716,-50.0
15,wht,f,19,r,2,(121.76378772032346, -121.76378772032352),28,5,2,yes,x,5,x,0.8490772999994078,1,68,test1,2,0.8494444999996631,-40.0
15,wht,f,19,r,2,(172.20000000000002, 0.0),21,7,3,yes,x,5,x,0.7104437000007238,1,69,test1,2,0.7106579999999667,-38.0
15,wht,f,19,r,2,(121.76378772032346, -121.76378772032352),28,3,1,yes,x,5,x,0.8309425999996165,1,70,test1,2,0.8314246999998431,-42.0
15,wht,f,19,r,2,(-3.163262682197613e-14, -172.20000000000002),27,3,1,no,m,6,m,0.7806145999993532,1,71,test1,2,0.7811426999996911,-42.0
15,wht,f,19,r,2,(121.76378772032349, 121.76378772032349),22,7,3,yes,x,5,x,0.6723330000004353,1,72,test1,2,0.6726717000001372,-38.0
15,wht,f,19,r,2,(-121.76378772032348, 121.76378772032349),24,25,4,no,m,6,m,0.5995903999992152,1,73,test1,2,0.5999002999997174,-38.0
15,wht,f,19,r,2,(-172.20000000000002, 2.1088417881317425e-14),25,5,2,yes,x,5,x,0.6902340000006006,1,74,test1,2,0.6904691999998249,-40.0
15,wht,f,19,r,2,(-3.163262682197613e-14, -172.20000000000002),27,-25,14,yes,x,5,x,0.4921469999999317,1,75,test1,2,0.4924588000003496,-70.0
15,wht,f,19,r,2,(-3.163262682197613e-14, -172.20000000000002),27,7,3,yes,x,5,x,0.6924162999994223,1,76,test1,2,0.6925283000000491,-38.0
15,wht,f,19,r,2,(-121.76378772032352, -121.76378772032348),26,-25,14,yes,x,5,x,0.5490848999997979,1,77,test1,2,0.5492856999999276,-70.0
15,wht,f,19,r,2,(121.76378772032349, 121.76378772032349),22,-7,13,no,m,6,m,0.5559856999998374,1,78,test1,2,0.5562067999999272,-70.0
15,wht,f,19,r,2,(-121.76378772032352, -121.76378772032348),26,-25,14,yes,x,5,x,0.8048697000003813,1,79,test1,2,0.8049911999996766,-70.0
15,wht,f,19,r,2,(-172.20000000000002, 2.1088417881317425e-14),25,-7,13,yes,x,5,x,0.6302381000004971,1,80,test1,2,0.6303338999996413,-52.0
15,wht,f,19,r,2,(121.76378772032349, 121.76378772032349),22,3,1,no,m,6,m,0.6420133000001442,1,81,test1,2,0.6421402999994825,-52.0
15,wht,f,19,r,2,(121.76378772032349, 121.76378772032349),22,-3,11,yes,x,5,x,0.7044972000003327,1,82,test1,2,0.7049079999997048,-48.0
15,wht,f,19,r,2,(-121.76378772032352, -121.76378772032348),26,7,3,no,m,6,x,0.7204259000000093,0,83,test1,2,0.7207927999997992,-48.0
15,wht,f,19,r,2,(-172.20000000000002, 2.1088417881317425e-14),25,-3,11,yes,x,5,x,0.9027853000006871,1,84,test1,2,0.9030228999999963,-48.0
15,wht,f,19,r,2,(172.20000000000002, 0.0),21,3,1,yes,x,5,x,0.7726481999998214,1,85,test1,2,0.7729315000005954,-42.0
15,wht,f,19,r,2,(121.76378772032346, -121.76378772032352),28,3,1,no,m,6,m,0.8340394999995624,1,86,test1,2,0.8341827999993257,-42.0
15,wht,f,19,r,2,(172.20000000000002, 0.0),21,-3,11,yes,x,5,x,0.7079929000001357,1,87,test1,2,0.7084545000006983,-48.0
15,wht,f,19,r,2,(172.20000000000002, 0.0),21,-25,14,yes,x,5,x,0.5118560999999318,1,88,test1,2,0.5119703999998819,-70.0
15,wht,f,19,r,2,(-121.76378772032348, 121.76378772032349),24,7,3,yes,x,5,x,0.5618509000005361,1,89,test1,2,0.5620681000000332,-38.0
15,wht,f,19,r,2,(-3.163262682197613e-14, -172.20000000000002),27,-5,12,yes,x,5,x,0.8179749000000811,1,90,test1,2,0.818250899999839,-50.0
15,wht,f,19,r,2,(-121.76378772032352, -121.76378772032348),26,-5,12,yes,x,5,x,0.7109725999998773,1,91,test1,2,0.7118581000004269,-50.0
15,wht,f,19,r,2,(-121.76378772032352, -121.76378772032348),26,-3,11,yes,x,5,m,0.8987602999995943,0,92,test1,2,0.8989798000002338,-48.0
15,wht,f,19,r,2,(-172.20000000000002, 2.1088417881317425e-14),25,-5,12,yes,x,5,x,0.4988115000005564,1,93,test1,2,0.49893410000004224,-50.0
15,wht,f,19,r,2,(-121.76378772032348, 121.76378772032349),24,-7,13,yes,x,5,x,0.45869089999996504,1,94,test1,2,0.458872700000029,-52.0
15,wht,f,19,r,2,(172.20000000000002, 0.0),21,5,2,yes,x,5,x,0.5770626000003176,1,95,test1,2,0.5771692999996958,-40.0
15,wht,f,19,r,2,(172.20000000000002, 0.0),21,-3,11,yes,x,5,x,0.8956300999998348,1,96,test1,2,0.8957803000002968,-48.0
15,wht,f,19,r,2,(121.76378772032346, -121.76378772032352),28,-25,14,no,m,6,m,0.6700602999999319,1,1,test2,2,0.6702492000003986,-48.0
15,wht,f,19,r,2,(1.0544208940658713e-14, 172.20000000000002),23,3,1,no,m,6,m,0.9534409999996569,1,2,test2,2,0.9535954000002675,-48.0
15,wht,f,19,r,2,(172.20000000000002, 0.0),21,3,1,no,m,6,m,0.7198613000000478,1,3,test2,2,0.7205090999996173,-48.0
15,wht,f,19,r,2,(-121.76378772032348, 121.76378772032349),24,7,3,no,m,6,m,0.6341929000000164,1,4,test2,2,0.634414299999662,-48.0
15,wht,f,19,r,2,(-121.76378772032348, 121.76378772032349),24,3,1,yes,x,5,m,0.9953730999995969,0,5,test2,2,0.9955225000003338,-42.0
15,wht,f,19,r,2,(172.20000000000002, 0.0),21,-7,13,yes,x,5,x,0.47319710000010673,1,6,test2,2,0.4736487999998644,-52.0
15,wht,f,19,r,2,(121.76378772032349, 121.76378772032349),22,3,1,yes,x,5,x,1.0663526999996975,1,7,test2,2,1.0664495999999417,-42.0
15,wht,f,19,r,2,(1.0544208940658713e-14, 172.20000000000002),23,7,3,no,m,6,m,0.838379800000439,1,8,test2,2,0.8387407999998686,-42.0
15,wht,f,19,r,2,(-121.76378772032348, 121.76378772032349),24,25,4,yes,x,5,x,0.7084492999993017,1,9,test2,2,0.7088469999998779,-20.0
15,wht,f,19,r,2,(1.0544208940658713e-14, 172.20000000000002),23,3,1,yes,x,5,x,0.8886759999995775,1,10,test2,2,0.889083699999901,-42.0
15,wht,f,19,r,2,(-121.76378772032352, -121.76378772032348),26,25,4,yes,x,5,x,0.5666589000002205,1,11,test2,2,0.5667556999997032,-20.0
15,wht,f,19,r,2,(172.20000000000002, 0.0),21,25,4,yes,x,5,x,0.5495971999998801,1,12,test2,2,0.5500168999997186,-20.0
15,wht,f,19,r,2,(1.0544208940658713e-14, 172.20000000000002),23,-3,11,yes,x,5,x,0.7546830000001137,1,13,test2,2,0.7549091999999291,-48.0
15,wht,f,19,r,2,(121.76378772032349, 121.76378772032349),22,5,2,yes,x,5,x,0.4885628000001816,1,14,test2,2,0.4886627000005319,-40.0
15,wht,f,19,r,2,(-121.76378772032348, 121.76378772032349),24,3,1,no,m,6,m,0.6733150999998543,1,15,test2,2,0.6735932999999932,-40.0
15,wht,f,19,r,2,(1.0544208940658713e-14, 172.20000000000002),23,-3,11,yes,x,5,x,0.47354429999995773,1,16,test2,2,0.473677800000587,-48.0
15,wht,f,19,r,2,(121.76378772032346, -121.76378772032352),28,25,4,yes,x,5,x,0.4924040999994759,1,17,test2,2,0.49258669999926497,-20.0
15,wht,f,19,r,2,(-172.20000000000002, 2.1088417881317425e-14),25,25,4,no,m,6,m,0.8677102000001469,1,18,test2,2,0.8678088999995452,-20.0
15,wht,f,19,r,2,(-3.163262682197613e-14, -172.20000000000002),27,3,1,yes,x,5,x,0.8688344000001962,1,19,test2,2,0.8691381999997247,-42.0
15,wht,f,19,r,2,(121.76378772032349, 121.76378772032349),22,25,4,yes,x,5,x,0.4225133999998434,1,20,test2,2,0.4226104999997915,-20.0
15,wht,f,19,r,2,(172.20000000000002, 0.0),21,7,3,no,m,6,m,0.7110073000003467,1,21,test2,2,0.7111629999999423,-20.0
15,wht,f,19,r,2,(-121.76378772032352, -121.76378772032348),26,25,4,no,m,6,m,0.8318887000004906,1,22,test2,2,0.8319822000003114,-20.0
15,wht,f,19,r,2,(-121.76378772032352, -121.76378772032348),26,-3,11,yes,x,5,x,0.6946400999995603,1,23,test2,2,0.6947615999997652,-48.0
15,wht,f,19,r,2,(121.76378772032346, -121.76378772032352),28,5,2,yes,x,5,x,0.6443970999998783,1,24,test2,2,0.6446789999999964,-40.0
15,wht,f,19,r,2,(1.0544208940658713e-14, 172.20000000000002),23,25,4,yes,x,5,x,0.5482364999998026,1,25,test2,2,0.5493438000003152,-20.0
15,wht,f,19,r,2,(1.0544208940658713e-14, 172.20000000000002),23,-7,13,no,m,6,m,0.6193012000003364,1,26,test2,2,0.6194672000001447,-20.0
15,wht,f,19,r,2,(-121.76378772032348, 121.76378772032349),24,-25,14,no,m,6,m,0.7603567000005569,1,27,test2,2,0.7606620999995357,-20.0
15,wht,f,19,r,2,(-3.163262682197613e-14, -172.20000000000002),27,-7,13,yes,x,5,x,0.5598392000001695,1,28,test2,2,0.5602142999996431,-52.0
15,wht,f,19,r,2,(121.76378772032349, 121.76378772032349),22,7,3,no,m,6,m,0.6926776000000245,1,29,test2,2,0.6927749000005861,-52.0
15,wht,f,19,r,2,(121.76378772032346, -121.76378772032352),28,-5,12,yes,x,5,x,0.6051391999999396,1,30,test2,2,0.6054186999999729,-50.0
15,wht,f,19,r,2,(1.0544208940658713e-14, 172.20000000000002),23,25,4,no,m,6,m,0.6996576000001369,1,31,test2,2,0.6997850999996444,-50.0
15,wht,f,19,r,2,(1.0544208940658713e-14, 172.20000000000002),23,5,2,yes,x,5,x,0.5593399999997928,1,32,test2,2,0.5594310999995287,-40.0
15,wht,f,19,r,2,(121.76378772032346, -121.76378772032352),28,-5,12,yes,x,5,x,0.8241429999998218,1,33,test2,2,0.8243007000000944,-50.0
15,wht,f,19,r,2,(121.76378772032349, 121.76378772032349),22,-3,11,no,m,6,m,0.6704414000005272,1,34,test2,2,0.6706065999997008,-50.0
15,wht,f,19,r,2,(1.0544208940658713e-14, 172.20000000000002),23,7,3,yes,x,5,m,1.3259913000001688,0,35,test2,2,1.3271488000000318,-38.0
15,wht,f,19,r,2,(121.76378772032346, -121.76378772032352),28,-3,11,yes,x,5,x,0.7395946999995431,1,36,test2,2,0.739823200000501,-48.0
15,wht,f,19,r,2,(-172.20000000000002, 2.1088417881317425e-14),25,7,3,yes,x,5,x,0.549236099999689,1,37,test2,2,0.5497007999993002,-38.0
15,wht,f,19,r,2,(-121.76378772032352, -121.76378772032348),26,25,4,yes,x,5,x,0.4767231999994692,1,38,test2,2,0.47687630000018544,-20.0
15,wht,f,19,r,2,(172.20000000000002, 0.0),21,5,2,yes,x,5,x,0.7786222000004273,1,39,test2,2,0.7787856000004467,-40.0
15,wht,f,19,r,2,(-172.20000000000002, 2.1088417881317425e-14),25,-25,14,yes,x,5,x,0.40396440000040457,1,40,test2,2,0.4041968999999881,-70.0
15,wht,f,19,r,2,(-121.76378772032352, -121.76378772032348),26,3,1,yes,x,5,x,0.8994228999999905,1,41,test2,2,0.8996087000004991,-42.0
15,wht,f,19,r,2,(172.20000000000002, 0.0),21,-5,12,yes,x,5,x,0.5650285000001531,1,42,test2,2,0.5651476000002731,-50.0
15,wht,f,19,r,2,(172.20000000000002, 0.0),21,3,1,yes,x,5,x,0.583633700000064,1,43,test2,2,0.5837646999998469,-42.0
15,wht,f,19,r,2,(172.20000000000002, 0.0),21,5,2,no,m,6,x,0.9365559000007124,0,44,test2,2,0.9368102999997063,-42.0
15,wht,f,19,r,2,(-121.76378772032352, -121.76378772032348),26,-7,13,yes,x,5,x,0.5391124999996464,1,45,test2,2,0.539209700000356,-52.0
15,wht,f,19,r,2,(121.76378772032346, -121.76378772032352),28,-7,13,no,m,6,m,0.8607294000003094,1,46,test2,2,0.8608274999996866,-52.0
15,wht,f,19,r,2,(121.76378772032346, -121.76378772032352),28,-25,14,yes,x,5,x,0.4897719999999026,1,47,test2,2,0.4901343999999881,-70.0
15,wht,f,19,r,2,(121.76378772032349, 121.76378772032349),22,-25,14,yes,x,5,x,0.46251500000016676,1,48,test2,2,0.4630255000001853,-70.0
15,wht,f,19,r,2,(-121.76378772032352, -121.76378772032348),26,-7,13,no,m,6,m,0.7135643999999957,1,49,test2,2,0.7139317999999548,-70.0
15,wht,f,19,r,2,(121.76378772032349, 121.76378772032349),22,3,1,yes,x,5,x,0.6797362999996039,1,50,test2,2,0.6800432000000001,-42.0
15,wht,f,19,r,2,(121.76378772032349, 121.76378772032349),22,25,4,no,m,6,m,0.7230674000002182,1,51,test2,2,0.7231745999997656,-42.0
15,wht,f,19,r,2,(-121.76378772032348, 121.76378772032349),24,-7,13,yes,x,5,x,0.5060925000007046,1,52,test2,2,0.5062006999996811,-52.0
15,wht,f,19,r,2,(1.0544208940658713e-14, 172.20000000000002),23,-7,13,yes,x,5,x,0.5360449999998309,1,53,test2,2,0.5361351000001378,-52.0
15,wht,f,19,r,2,(-172.20000000000002, 2.1088417881317425e-14),25,3,1,no,m,6,m,0.6765826000000743,1,54,test2,2,0.6769297999999253,-52.0
15,wht,f,19,r,2,(121.76378772032346, -121.76378772032352),28,-7,13,yes,x,5,x,0.6146908000000622,1,55,test2,2,0.6150389999993422,-52.0
15,wht,f,19,r,2,(-121.76378772032352, -121.76378772032348),26,5,2,yes,x,5,x,0.6442427000001771,1,56,test2,2,0.6443630000003395,-40.0
15,wht,f,19,r,2,(-121.76378772032352, -121.76378772032348),26,-25,14,no,m,6,m,0.7506972000001042,1,57,test2,2,0.7510839999995369,-40.0
15,wht,f,19,r,2,(121.76378772032349, 121.76378772032349),22,25,4,yes,x,5,x,0.5154971000001751,1,58,test2,2,0.5157800999995743,-20.0
15,wht,f,19,r,2,(-121.76378772032348, 121.76378772032349),24,3,1,yes,x,5,x,1.099398299999848,1,59,test2,2,1.0995425999999497,-42.0
15,wht,f,19,r,2,(-3.163262682197613e-14, -172.20000000000002),27,-25,14,no,m,6,m,0.7089492000004611,1,60,test2,2,0.7093629000000874,-42.0
15,wht,f,19,r,2,(-172.20000000000002, 2.1088417881317425e-14),25,5,2,no,m,6,x,0.746901099999377,0,61,test2,2,0.7470221000003221,-42.0
15,wht,f,19,r,2,(-3.163262682197613e-14, -172.20000000000002),27,-7,13,yes,x,5,x,0.6254646000006687,1,62,test2,2,0.6257565999994767,-52.0
15,wht,f,19,r,2,(1.0544208940658713e-14, 172.20000000000002),23,-5,12,yes,x,5,x,0.6420634999994945,1,63,test2,2,0.6421557999992729,-50.0
15,wht,f,19,r,2,(121.76378772032349, 121.76378772032349),22,5,2,no,m,6,m,0.7726592999997592,1,64,test2,2,0.7727951999995639,-50.0
15,wht,f,19,r,2,(-3.163262682197613e-14, -172.20000000000002),27,5,2,yes,x,5,x,0.699524300000121,1,65,test2,2,0.6997582000003604,-40.0
15,wht,f,19,r,2,(-121.76378772032348, 121.76378772032349),24,-3,11,yes,x,5,x,0.9295619999993505,1,66,test2,2,0.9297166000005745,-48.0
15,wht,f,19,r,2,(172.20000000000002, 0.0),21,25,4,no,m,6,m,0.7562486999995599,1,67,test2,2,0.756358900000123,-48.0
15,wht,f,19,r,2,(121.76378772032346, -121.76378772032352),28,5,2,no,m,6,m,0.6820327000004909,1,68,test2,2,0.6823168000000805,-48.0
15,wht,f,19,r,2,(172.20000000000002, 0.0),21,-7,13,no,m,6,m,0.6383127000008244,1,69,test2,2,0.6384431000005861,-48.0
15,wht,f,19,r,2,(-121.76378772032348, 121.76378772032349),24,-5,12,yes,x,5,x,0.5925537000002805,1,70,test2,2,0.593343200000163,-50.0
15,wht,f,19,r,2,(-172.20000000000002, 2.1088417881317425e-14),25,-3,11,yes,x,5,x,0.9037224000003334,1,71,test2,2,0.9038455999998405,-48.0
15,wht,f,19,r,2,(1.0544208940658713e-14, 172.20000000000002),23,-7,13,yes,x,5,x,0.7273558999995657,1,72,test2,2,0.7279866999997466,-52.0
15,wht,f,19,r,2,(-3.163262682197613e-14, -172.20000000000002),27,25,4,yes,x,5,x,0.5593636000003244,1,73,test2,2,0.5595183000004909,-20.0
15,wht,f,19,r,2,(1.0544208940658713e-14, 172.20000000000002),23,-25,14,yes,x,5,x,0.4706127999997989,1,74,test2,2,0.4709483000006003,-70.0
15,wht,f,19,r,2,(-121.76378772032348, 121.76378772032349),24,-25,14,yes,x,5,x,0.4686714999998003,1,75,test2,2,0.46880419999979495,-70.0
15,wht,f,19,r,2,(-121.76378772032348, 121.76378772032349),24,25,4,yes,x,5,x,0.5450173999997787,1,76,test2,2,0.5451339000001099,-20.0
15,wht,f,19,r,2,(1.0544208940658713e-14, 172.20000000000002),23,5,2,no,m,6,m,0.6705269000003682,1,77,test2,2,0.6709995000001072,-20.0
15,wht,f,19,r,2,(172.20000000000002, 0.0),21,-25,14,no,m,6,m,0.8385047000001578,1,78,test2,2,0.8385975999999573,-20.0
15,wht,f,19,r,2,(-3.163262682197613e-14, -172.20000000000002),27,-3,11,yes,x,5,x,0.9454384999999093,1,79,test2,2,0.9455508000000918,-48.0
15,wht,f,19,r,2,(121.76378772032349, 121.76378772032349),22,5,2,yes,x,5,x,0.6467734999996537,1,80,test2,2,0.6475384000004851,-40.0
15,wht,f,19,r,2,(-121.76378772032352, -121.76378772032348),26,-5,12,no,m,6,x,0.1066435000002457,0,81,test2,2,0.1068225999997594,-40.0
15,wht,f,19,r,2,(-3.163262682197613e-14, -172.20000000000002),27,-3,11,yes,x,5,x,0.8482993999996324,1,82,test2,2,0.8486058999997113,-48.0
15,wht,f,19,r,2,(-3.163262682197613e-14, -172.20000000000002),27,7,3,no,m,6,m,0.7388104999999996,1,83,test2,2,0.7389711000005263,-48.0
15,wht,f,19,r,2,(-172.20000000000002, 2.1088417881317425e-14),25,7,3,yes,x,5,x,0.748119100000622,1,84,test2,2,0.7485573000003569,-38.0
15,wht,f,19,r,2,(-172.20000000000002, 2.1088417881317425e-14),25,-5,12,no,m,6,m,0.8845245000002251,1,85,test2,2,0.8846528999993097,-38.0
15,wht,f,19,r,2,(1.0544208940658713e-14, 172.20000000000002),23,7,3,yes,x,5,x,1.1960932000001776,1,86,test2,2,1.196204900000339,-38.0
15,wht,f,19,r,2,(-3.163262682197613e-14, -172.20000000000002),27,3,1,yes,x,5,x,0.7497929999999542,1,87,test2,2,0.7499659999994037,-42.0
15,wht,f,19,r,2,(121.76378772032349, 121.76378772032349),22,7,3,yes,x,5,x,0.4920763000000079,1,88,test2,2,0.49246300000049814,-38.0
15,wht,f,19,r,2,(-3.163262682197613e-14, -172.20000000000002),27,7,3,yes,x,5,x,0.5643731999998636,1,89,test2,2,0.5645665000001827,-38.0
15,wht,f,19,r,2,(121.76378772032346, -121.76378772032352),28,-25,14,yes,x,5,x,0.45152890000008483,1,90,test2,2,0.4516469000000143,-70.0
15,wht,f,19,r,2,(1.0544208940658713e-14, 172.20000000000002),23,25,4,yes,x,5,x,0.5948068999996394,1,91,test2,2,0.5949192000007315,-20.0
15,wht,f,19,r,2,(121.76378772032349, 121.76378772032349),22,-25,14,no,m,6,x,0.807272500000181,0,92,test2,2,0.8074133000000074,-20.0
15,wht,f,19,r,2,(-172.20000000000002, 2.1088417881317425e-14),25,25,4,yes,x,5,x,0.4889886999999362,1,93,test2,2,0.48908639999990555,-20.0
15,wht,f,19,r,2,(-121.76378772032352, -121.76378772032348),26,5,2,yes,x,5,m,0.7409676999996009,0,94,test2,2,0.7411430000001928,-40.0
15,wht,f,19,r,2,(172.20000000000002, 0.0),21,-7,13,yes,x,5,x,0.5433189000004859,1,95,test2,2,0.5434103000006871,-52.0
15,wht,f,19,r,2,(121.76378772032346, -121.76378772032352),28,7,3,yes,x,5,x,0.5313479999995252,1,96,test2,2,0.5315567999996347,-38.0
15,wht,f,19,r,2,(-3.163262682197613e-14, -172.20000000000002),27,5,2,no,m,6,x,0.8426201000002038,0,1,test1,3,0.8427172000001519,-38.0
15,wht,f,19,r,2,(172.20000000000002, 0.0),21,-5,12,yes,x,5,x,0.5247298000003866,1,2,test1,3,0.5248260000007576,-50.0
15,wht,f,19,r,2,(-121.76378772032352, -121.76378772032348),26,-3,11,no,m,6,m,0.912310400000024,1,3,test1,3,0.9127388999995674,-50.0
15,wht,f,19,r,2,(121.76378772032346, -121.76378772032352),28,-3,11,no,m,6,m,0.9209434000003967,1,4,test1,3,0.9212602999996307,-50.0
15,wht,f,19,r,2,(121.76378772032346, -121.76378772032352),28,-5,12,no,m,6,m,0.8665808999994624,1,5,test1,3,0.867050100000597,-50.0
15,wht,f,19,r,2,(121.76378772032346, -121.76378772032352),28,7,3,no,m,6,m,0.7805299999999988,1,6,test1,3,0.7806627999998454,-50.0
15,wht,f,19,r,2,(1.0544208940658713e-14, 172.20000000000002),23,-5,12,no,m,6,m,0.8464881999998397,1,7,test1,3,0.8466091999998753,-50.0
15,wht,f,19,r,2,(-3.163262682197613e-14, -172.20000000000002),27,-25,14,yes,x,5,x,0.5066903000006278,1,8,test1,3,0.5068676999999298,-70.0
15,wht,f,19,r,2,(1.0544208940658713e-14, 172.20000000000002),23,5,2,yes,x,5,x,0.5164551000007123,1,9,test1,3,0.51673479999954,-40.0
15,wht,f,19,r,2,(-172.20000000000002, 2.1088417881317425e-14),25,-5,12,yes,x,5,x,0.4974191000001156,1,10,test1,3,0.4975747999997111,-50.0
15,wht,f,19,r,2,(-172.20000000000002, 2.1088417881317425e-14),25,-3,11,no,m,6,m,0.8200755999996545,1,11,test1,3,0.8201813000005131,-50.0
15,wht,f,19,r,2,(-172.20000000000002, 2.1088417881317425e-14),25,3,1,yes,x,5,x,1.0979359999992084,1,12,test1,3,1.0983114999999088,-42.0
15,wht,f,19,r,2,(1.0544208940658713e-14, 172.20000000000002),23,-3,11,no,m,6,m,0.798887900000409,1,13,test1,3,0.7991549999997005,-42.0
15,wht,f,19,r,2,(121.76378772032349, 121.76378772032349),22,-7,13,yes,x,5,x,0.5013343999999051,1,14,test1,3,0.5014541999998983,-52.0
15,wht,f,19,r,2,(121.76378772032346, -121.76378772032352),28,3,1,yes,x,5,x,0.63870069999939,1,15,test1,3,0.6390062999998918,-42.0
15,wht,f,19,r,2,(-172.20000000000002, 2.1088417881317425e-14),25,3,1,yes,x,5,x,0.816660899999988,1,16,test1,3,0.8167675000004238,-42.0
15,wht,f,19,r,2,(-121.76378772032348, 121.76378772032349),24,-3,11,yes,x,5,x,0.5285207000006267,1,17,test1,3,0.5291146999998091,-48.0
15,wht,f,19,r,2,(121.76378772032349, 121.76378772032349),22,-5,12,no,m,6,m,0.688594500000363,1,18,test1,3,0.6887170999998489,-48.0
15,wht,f,19,r,2,(-121.76378772032352, -121.76378772032348),26,7,3,yes,x,5,x,0.5163087000000814,1,19,test1,3,0.5164757000002282,-38.0
15,wht,f,19,r,2,(172.20000000000002, 0.0),21,-25,14,yes,x,5,x,0.5354450000004363,1,20,test1,3,0.5355787000007695,-70.0
15,wht,f,19,r,2,(-3.163262682197613e-14, -172.20000000000002),27,25,4,yes,x,5,x,0.47437929999978223,1,21,test1,3,0.47447399999964546,-20.0
15,wht,f,19,r,2,(121.76378772032349, 121.76378772032349),22,-3,11,yes,x,5,x,0.6193970000003901,1,22,test1,3,0.6195215999996435,-48.0
15,wht,f,19,r,2,(-121.76378772032348, 121.76378772032349),24,7,3,yes,x,5,x,0.45890140000028623,1,23,test1,3,0.4590280000002167,-38.0
15,wht,f,19,r,2,(1.0544208940658713e-14, 172.20000000000002),23,-25,14,yes,x,5,x,0.42435029999978724,1,24,test1,3,0.42447339999944234,-70.0
15,wht,f,19,r,2,(172.20000000000002, 0.0),21,-5,12,no,m,6,m,0.7465847000003123,1,25,test1,3,0.7469873999998526,-70.0
15,wht,f,19,r,2,(1.0544208940658713e-14, 172.20000000000002),23,3,1,yes,x,5,x,0.7339694000002055,1,26,test1,3,0.7341229000003295,-42.0
15,wht,f,19,r,2,(172.20000000000002, 0.0),21,25,4,yes,x,5,x,0.48951299999953335,1,27,test1,3,0.4896915999997873,-20.0
15,wht,f,19,r,2,(-3.163262682197613e-14, -172.20000000000002),27,-3,11,no,m,6,m,0.9596109999993132,1,28,test1,3,0.9599177000000054,-20.0
15,wht,f,19,r,2,(121.76378772032349, 121.76378772032349),22,-5,12,yes,x,5,x,0.5568229999998948,1,29,test1,3,0.557272500000181,-50.0
15,wht,f,19,r,2,(-121.76378772032352, -121.76378772032348),26,3,1,yes,x,5,x,0.7903747999998814,1,30,test1,3,0.7907697999999073,-42.0
15,wht,f,19,r,2,(172.20000000000002, 0.0),21,-3,11,no,m,6,m,0.7463653000004342,1,31,test1,3,0.7466846999996051,-42.0
15,wht,f,19,r,2,(-3.163262682197613e-14, -172.20000000000002),27,5,2,yes,x,5,x,0.4556609999999637,1,32,test1,3,0.45608159999937925,-40.0
15,wht,f,19,r,2,(1.0544208940658713e-14, 172.20000000000002),23,-25,14,no,m,6,m,0.6908180999998876,1,33,test1,3,0.6913717000006727,-40.0
15,wht,f,19,r,2,(121.76378772032346, -121.76378772032352),28,-3,11,yes,x,5,m,0.8853019000007407,0,34,test1,3,0.8855216000001747,-48.0
15,wht,f,19,r,2,(-121.76378772032352, -121.76378772032348),26,5,2,no,m,6,x,0.5890571999998429,0,35,test1,3,0.5891880999997738,-48.0
15,wht,f,19,r,2,(121.76378772032346, -121.76378772032352),28,7,3,yes,x,5,x,0.6991312999998627,1,36,test1,3,0.6992560999997295,-38.0
15,wht,f,19,r,2,(-121.76378772032348, 121.76378772032349),24,5,2,yes,x,5,x,0.6230036000006294,1,37,test1,3,0.6232441000001927,-40.0
15,wht,f,19,r,2,(-121.76378772032352, -121.76378772032348),26,3,1,no,m,6,x,0.7603269999999611,0,38,test1,3,0.7607009999992442,-40.0
15,wht,f,19,r,2,(121.76378772032349, 121.76378772032349),22,-5,12,yes,x,5,x,0.5662953999999445,1,39,test1,3,0.5668197999993936,-50.0
15,wht,f,19,r,2,(-121.76378772032348, 121.76378772032349),24,-3,11,no,m,6,m,0.8901311999998143,1,40,test1,3,0.8902274000001853,-50.0
15,wht,f,19,r,2,(-121.76378772032352, -121.76378772032348),26,7,3,yes,x,5,x,0.5612236000006305,1,41,test1,3,0.5615631999999096,-38.0
15,wht,f,19,r,2,(1.0544208940658713e-14, 172.20000000000002),23,-5,12,yes,x,5,x,0.41747420000046986,1,42,test1,3,0.4176930999992692,-50.0
15,wht,f,19,r,2,(-121.76378772032348, 121.76378772032349),24,-7,13,no,m,6,m,0.7483935999998721,1,43,test1,3,0.7485695000004853,-50.0
15,wht,f,19,r,2,(-121.76378772032348, 121.76378772032349),24,5,2,yes,x,5,x,0.6063966000001528,1,44,test1,3,0.606704400000126,-40.0
15,wht,f,19,r,2,(121.76378772032349, 121.76378772032349),22,-25,14,yes,x,5,x,0.4279257000007419,1,45,test1,3,0.4281350000001112,-70.0
15,wht,f,19,r,2,(121.76378772032346, -121.76378772032352),28,25,4,yes,x,5,x,0.42724490000000515,1,46,test1,3,0.4274586999999883,-20.0
15,wht,f,19,r,2,(121.76378772032346, -121.76378772032352),28,-7,13,yes,x,5,x,0.5289167000000816,1,47,test1,3,0.5290387999993982,-52.0
15,wht,f,19,r,2,(-3.163262682197613e-14, -172.20000000000002),27,-5,12,no,m,6,m,0.8232567999993989,1,48,test1,3,0.8234682000002067,-52.0
15,wht,f,19,r,2,(-172.20000000000002, 2.1088417881317425e-14),25,5,2,yes,x,5,x,0.600698399999601,1,49,test1,3,0.6008174999997209,-40.0
15,wht,f,19,r,2,(-121.76378772032348, 121.76378772032349),24,-25,14,yes,x,5,x,0.41614709999976185,1,50,test1,3,0.41647939999984374,-70.0
15,wht,f,19,r,2,(-3.163262682197613e-14, -172.20000000000002),27,-7,13,no,m,6,m,0.7609259999999267,1,51,test1,3,0.7613603999998304,-70.0
15,wht,f,19,r,2,(-172.20000000000002, 2.1088417881317425e-14),25,-25,14,no,m,6,m,0.8875015000003259,1,52,test1,3,0.888022600000113,-70.0
15,wht,f,19,r,2,(-121.76378772032348, 121.76378772032349),24,-5,12,yes,x,5,x,0.5427909999998519,1,53,test1,3,0.5430309000003035,-50.0
15,wht,f,19,r,2,(172.20000000000002, 0.0),21,7,3,yes,x,5,x,0.5433504999991783,1,54,test1,3,0.5437804999992295,-38.0
15,wht,f,19,r,2,(121.76378772032349, 121.76378772032349),22,-7,13,yes,x,5,x,0.5294622999999774,1,55,test1,3,0.5297471000003497,-52.0
15,wht,f,19,r,2,(-172.20000000000002, 2.1088417881317425e-14),25,25,4,yes,x,5,x,0.5897103999996034,1,56,test1,3,0.5903525000003356,-20.0
15,wht,f,19,r,2,(-3.163262682197613e-14, -172.20000000000002),27,25,4,no,m,6,m,0.6963889000007839,1,57,test1,3,0.6964857000002667,-20.0
15,wht,f,19,r,2,(-172.20000000000002, 2.1088417881317425e-14),25,-7,13,no,m,6,m,1.0983914999997069,1,58,test1,3,1.0985302999997657,-20.0
15,wht,f,19,r,2,(-3.163262682197613e-14, -172.20000000000002),27,-5,12,yes,x,5,x,0.6098560000000361,1,59,test1,3,0.6099495999997089,-50.0
15,wht,f,19,r,2,(-121.76378772032348, 121.76378772032349),24,-5,12,no,m,6,m,1.1815507000001162,1,60,test1,3,1.1816962000002604,-50.0
15,wht,f,19,r,2,(-172.20000000000002, 2.1088417881317425e-14),25,7,3,no,m,6,m,0.7837374999999156,1,61,test1,3,0.7841035000001284,-50.0
15,wht,f,19,r,2,(-121.76378772032352, -121.76378772032348),26,-7,13,yes,x,5,x,0.4685042000000976,1,62,test1,3,0.4686357999999018,-52.0
15,wht,f,19,r,2,(-172.20000000000002, 2.1088417881317425e-14),25,-7,13,yes,x,5,x,0.45619989999977406,1,63,test1,3,0.4564256000003297,-52.0
15,wht,f,19,r,2,(121.76378772032346, -121.76378772032352),28,25,4,no,m,6,m,0.6730337999997573,1,64,test1,3,0.6733974000007947,-52.0
15,wht,f,19,r,2,(-172.20000000000002, 2.1088417881317425e-14),25,-25,14,yes,x,5,x,0.43606180000006134,1,65,test1,3,0.4362418999999136,-70.0
15,wht,f,19,r,2,(-121.76378772032348, 121.76378772032349),24,5,2,no,m,6,x,0.8049760000003516,0,66,test1,3,0.8052417999997488,-70.0
15,wht,f,19,r,2,(-121.76378772032352, -121.76378772032348),26,-5,12,yes,x,5,x,0.6447083000002749,1,67,test1,3,0.6450150000000576,-50.0
15,wht,f,19,r,2,(121.76378772032346, -121.76378772032352),28,5,2,yes,x,5,x,0.72646850000001,1,68,test1,3,0.7266539000002012,-40.0
15,wht,f,19,r,2,(172.20000000000002, 0.0),21,7,3,yes,x,5,x,0.6221402999999555,1,69,test1,3,0.6224179000000731,-38.0
15,wht,f,19,r,2,(121.76378772032346, -121.76378772032352),28,3,1,yes,x,5,m,0.722038099999736,0,70,test1,3,0.7221655000003011,-42.0
15,wht,f,19,r,2,(-3.163262682197613e-14, -172.20000000000002),27,3,1,no,m,6,m,0.9640368000000308,1,71,test1,3,0.9641344000001482,-42.0
15,wht,f,19,r,2,(121.76378772032349, 121.76378772032349),22,7,3,yes,x,5,x,0.538539999999557,1,72,test1,3,0.5389481000001979,-38.0
15,wht,f,19,r,2,(-121.76378772032348, 121.76378772032349),24,25,4,no,m,6,m,0.738680800000111,1,73,test1,3,0.7388811000000715,-38.0
15,wht,f,19,r,2,(-172.20000000000002, 2.1088417881317425e-14),25,5,2,yes,x,5,x,0.6996847000000344,1,74,test1,3,0.6999746999999843,-40.0
15,wht,f,19,r,2,(-3.163262682197613e-14, -172.20000000000002),27,-25,14,yes,x,5,x,0.5269056999995883,1,75,test1,3,0.5270017000002554,-70.0
15,wht,f,19,r,2,(-3.163262682197613e-14, -172.20000000000002),27,7,3,yes,x,5,x,0.5196249999999054,1,76,test1,3,0.5203136999998605,-38.0
15,wht,f,19,r,2,(-121.76378772032352, -121.76378772032348),26,-25,14,yes,x,5,x,0.4735550000004878,1,77,test1,3,0.47384389999933774,-70.0
15,wht,f,19,r,2,(121.76378772032349, 121.76378772032349),22,-7,13,no,m,6,x,1.595060999999987,0,78,test1,3,1.5951715999999578,-70.0
15,wht,f,19,r,2,(-121.76378772032352, -121.76378772032348),26,-25,14,yes,x,5,x,0.45851000000038766,1,79,test1,3,0.45867379999981495,-70.0
15,wht,f,19,r,2,(-172.20000000000002, 2.1088417881317425e-14),25,-7,13,yes,x,5,x,0.41959439999936876,1,80,test1,3,0.41968719999931636,-52.0
15,wht,f,19,r,2,(121.76378772032349, 121.76378772032349),22,3,1,no,m,6,m,0.707689400000163,1,81,test1,3,0.7078476999995473,-52.0
15,wht,f,19,r,2,(121.76378772032349, 121.76378772032349),22,-3,11,yes,x,5,x,0.6381809000004068,1,82,test1,3,0.6385578999997961,-48.0
15,wht,f,19,r,2,(-121.76378772032352, -121.76378772032348),26,7,3,no,m,6,m,0.7214098000004014,1,83,test1,3,0.7216667999991841,-48.0
15,wht,f,19,r,2,(-172.20000000000002, 2.1088417881317425e-14),25,-3,11,yes,x,5,x,0.6287474000000657,1,84,test1,3,0.6288637000006929,-48.0
15,wht,f,19,r,2,(172.20000000000002, 0.0),21,3,1,yes,x,5,x,0.4315041999998357,1,85,test1,3,0.43160079999961454,-42.0
15,wht,f,19,r,2,(121.76378772032346, -121.76378772032352),28,3,1,no,m,6,x,1.0681666999998924,0,86,test1,3,1.06831129999955,-42.0
15,wht,f,19,r,2,(172.20000000000002, 0.0),21,-3,11,yes,x,5,m,0.6532547999995586,0,87,test1,3,0.6534130999998524,-48.0
15,wht,f,19,r,2,(172.20000000000002, 0.0),21,-25,14,yes,x,5,x,0.6130987000005916,1,88,test1,3,0.6131926999996722,-70.0
15,wht,f,19,r,2,(-121.76378772032348, 121.76378772032349),24,7,3,yes,x,5,x,0.5382510999997976,1,89,test1,3,0.5383738999998968,-38.0
15,wht,f,19,r,2,(-3.163262682197613e-14, -172.20000000000002),27,-5,12,yes,x,5,x,0.534233200000017,1,90,test1,3,0.5345352999993338,-50.0
15,wht,f,19,r,2,(-121.76378772032352, -121.76378772032348),26,-5,12,yes,x,5,x,0.655279900000096,1,91,test1,3,0.6554081999993286,-50.0
15,wht,f,19,r,2,(-121.76378772032352, -121.76378772032348),26,-3,11,yes,x,5,x,0.5730595999993966,1,92,test1,3,0.5734998000007181,-48.0
15,wht,f,19,r,2,(-172.20000000000002, 2.1088417881317425e-14),25,-5,12,yes,x,5,x,0.6325513000001592,1,93,test1,3,0.6328980000007505,-50.0
15,wht,f,19,r,2,(-121.76378772032348, 121.76378772032349),24,-7,13,yes,x,5,x,0.4531496000008701,1,94,test1,3,0.4533579999997528,-52.0
15,wht,f,19,r,2,(172.20000000000002, 0.0),21,5,2,yes,x,5,x,0.5647195000001375,1,95,test1,3,0.5648615000000063,-40.0
15,wht,f,19,r,2,(172.20000000000002, 0.0),21,-3,11,yes,x,5,x,0.6572507000000769,1,96,test1,3,0.6575316999997085,-48.0
15,wht,f,19,r,2,(121.76378772032346, -121.76378772032352),28,-25,14,no,m,6,m,0.9735744999998133,1,1,test2,3,0.9736964000003354,-48.0
15,wht,f,19,r,2,(1.0544208940658713e-14, 172.20000000000002),23,3,1,no,m,6,m,0.7499669999997423,1,2,test2,3,0.7502494999998817,-48.0
15,wht,f,19,r,2,(172.20000000000002, 0.0),21,3,1,no,m,6,m,0.7642196000006152,1,3,test2,3,0.7643468999995093,-48.0
15,wht,f,19,r,2,(-121.76378772032348, 121.76378772032349),24,7,3,no,m,6,m,0.7267769999998563,1,4,test2,3,0.7268737000003966,-48.0
15,wht,f,19,r,2,(-121.76378772032348, 121.76378772032349),24,3,1,yes,x,5,m,0.9566064999999071,0,5,test2,3,0.9568724000000657,-42.0
15,wht,f,19,r,2,(172.20000000000002, 0.0),21,-7,13,yes,x,5,x,0.5537156999998842,1,6,test2,3,0.5538440999998784,-52.0
15,wht,f,19,r,2,(121.76378772032349, 121.76378772032349),22,3,1,yes,x,5,x,1.2395291000002544,1,7,test2,3,1.23981029999959,-42.0
15,wht,f,19,r,2,(1.0544208940658713e-14, 172.20000000000002),23,7,3,no,m,6,m,0.7637660999998843,1,8,test2,3,0.7638872999996238,-42.0
15,wht,f,19,r,2,(-121.76378772032348, 121.76378772032349),24,25,4,yes,x,5,x,0.46281660000022384,1,9,test2,3,0.4629794000002221,-20.0
15,wht,f,19,r,2,(1.0544208940658713e-14, 172.20000000000002),23,3,1,yes,x,5,x,0.7544772000001103,1,10,test2,3,0.7547054000006028,-42.0
15,wht,f,19,r,2,(-121.76378772032352, -121.76378772032348),26,25,4,yes,x,5,x,0.5139905000005456,1,11,test2,3,0.5145350000002509,-20.0
15,wht,f,19,r,2,(172.20000000000002, 0.0),21,25,4,yes,x,5,x,0.5365515000003143,1,12,test2,3,0.5369774000000689,-20.0
15,wht,f,19,r,2,(1.0544208940658713e-14, 172.20000000000002),23,-3,11,yes,x,5,x,0.5916110000007393,1,13,test2,3,0.5918946000001597,-48.0
15,wht,f,19,r,2,(121.76378772032349, 121.76378772032349),22,5,2,yes,x,5,x,0.5641234999993685,1,14,test2,3,0.5645586999999068,-40.0
15,wht,f,19,r,2,(-121.76378772032348, 121.76378772032349),24,3,1,no,m,6,m,0.9295000000001892,1,15,test2,3,0.9296373999995922,-40.0
15,wht,f,19,r,2,(1.0544208940658713e-14, 172.20000000000002),23,-3,11,yes,x,5,x,0.7626162999995358,1,16,test2,3,0.7627426999997624,-48.0
15,wht,f,19,r,2,(121.76378772032346, -121.76378772032352),28,25,4,yes,x,5,x,0.45521869999993214,1,17,test2,3,0.4553422999997565,-20.0
15,wht,f,19,r,2,(-172.20000000000002, 2.1088417881317425e-14),25,25,4,no,m,6,x,0.8584493999996994,0,18,test2,3,0.859104600000137,-20.0
15,wht,f,19,r,2,(-3.163262682197613e-14, -172.20000000000002),27,3,1,yes,x,5,x,0.9373097999996389,1,19,test2,3,0.9375505999996676,-42.0
15,wht,f,19,r,2,(121.76378772032349, 121.76378772032349),22,25,4,yes,x,5,x,0.42532609999943816,1,20,test2,3,0.42542150000008405,-20.0
15,wht,f,19,r,2,(172.20000000000002, 0.0),21,7,3,no,m,6,m,0.7571194000001924,1,21,test2,3,0.7572325999999521,-20.0
15,wht,f,19,r,2,(-121.76378772032352, -121.76378772032348),26,25,4,no,m,6,m,0.6623656000001574,1,22,test2,3,0.6624841000002561,-20.0
15,wht,f,19,r,2,(-121.76378772032352, -121.76378772032348),26,-3,11,yes,x,5,x,0.9490132000000813,1,23,test2,3,0.949218299999302,-48.0
15,wht,f,19,r,2,(121.76378772032346, -121.76378772032352),28,5,2,yes,x,5,x,0.5787034999993921,1,24,test2,3,0.5788253999999142,-40.0
15,wht,f,19,r,2,(1.0544208940658713e-14, 172.20000000000002),23,25,4,yes,x,5,x,0.6069861000005403,1,25,test2,3,0.6073710999999093,-20.0
15,wht,f,19,r,2,(1.0544208940658713e-14, 172.20000000000002),23,-7,13,no,m,6,m,0.6876612999994904,1,26,test2,3,0.68788830000085,-20.0
15,wht,f,19,r,2,(-121.76378772032348, 121.76378772032349),24,-25,14,no,m,6,m,0.5760759999993752,1,27,test2,3,0.5767353000001094,-20.0
15,wht,f,19,r,2,(-3.163262682197613e-14, -172.20000000000002),27,-7,13,yes,x,5,x,0.5896790000006149,1,28,test2,3,0.58988219999992,-52.0
15,wht,f,19,r,2,(121.76378772032349, 121.76378772032349),22,7,3,no,m,6,m,0.7389892000001055,1,29,test2,3,0.7392976000000999,-52.0
15,wht,f,19,r,2,(121.76378772032346, -121.76378772032352),28,-5,12,yes,x,5,x,0.9084849999999278,1,30,test2,3,0.9087730000001102,-50.0
15,wht,f,19,r,2,(1.0544208940658713e-14, 172.20000000000002),23,25,4,no,m,6,m,0.6596348000002763,1,31,test2,3,0.6597727999997005,-50.0
15,wht,f,19,r,2,(1.0544208940658713e-14, 172.20000000000002),23,5,2,yes,x,5,x,0.6315043999993577,1,32,test2,3,0.6316029999998136,-40.0
15,wht,f,19,r,2,(121.76378772032346, -121.76378772032352),28,-5,12,yes,x,5,x,0.4976624000000811,1,33,test2,3,0.49775599999975384,-50.0
15,wht,f,19,r,2,(121.76378772032349, 121.76378772032349),22,-3,11,no,m,6,m,0.6530463999997664,1,34,test2,3,0.6533444999995481,-50.0
15,wht,f,19,r,2,(1.0544208940658713e-14, 172.20000000000002),23,7,3,yes,x,5,x,0.49907710000024963,1,35,test2,3,0.4993333000002167,-38.0
15,wht,f,19,r,2,(121.76378772032346, -121.76378772032352),28,-3,11,yes,x,5,m,0.6361701000005269,0,36,test2,3,0.6362667999992482,-48.0
15,wht,f,19,r,2,(-172.20000000000002, 2.1088417881317425e-14),25,7,3,yes,x,5,x,0.4517334000001938,1,37,test2,3,0.4518219000001409,-38.0
15,wht,f,19,r,2,(-121.76378772032352, -121.76378772032348),26,25,4,yes,x,5,x,0.48701710000023013,1,38,test2,3,0.48731750000024476,-20.0
15,wht,f,19,r,2,(172.20000000000002, 0.0),21,5,2,yes,x,5,x,0.6144202000004952,1,39,test2,3,0.6146527000000788,-40.0
15,wht,f,19,r,2,(-172.20000000000002, 2.1088417881317425e-14),25,-25,14,yes,x,5,x,0.505626599999232,1,40,test2,3,0.5058006999997815,-70.0
15,wht,f,19,r,2,(-121.76378772032352, -121.76378772032348),26,3,1,yes,x,5,m,0.5930749999997715,0,41,test2,3,0.5932253000000856,-42.0
15,wht,f,19,r,2,(172.20000000000002, 0.0),21,-5,12,yes,x,5,x,0.6167823000005228,1,42,test2,3,0.6170349000003625,-50.0
15,wht,f,19,r,2,(172.20000000000002, 0.0),21,3,1,yes,x,5,x,0.6098873000000822,1,43,test2,3,0.6100069000003714,-42.0
15,wht,f,19,r,2,(172.20000000000002, 0.0),21,5,2,no,m,6,m,0.7471562000000631,1,44,test2,3,0.7472497000007934,-42.0
15,wht,f,19,r,2,(-121.76378772032352, -121.76378772032348),26,-7,13,yes,x,5,x,0.4678887999998551,1,45,test2,3,0.46804190000057133,-52.0
15,wht,f,19,r,2,(121.76378772032346, -121.76378772032352),28,-7,13,no,m,6,m,0.6319653000000471,1,46,test2,3,0.632190699999228,-52.0
15,wht,f,19,r,2,(121.76378772032346, -121.76378772032352),28,-25,14,yes,x,5,x,0.5636469999999463,1,47,test2,3,0.5638157000003048,-70.0
15,wht,f,19,r,2,(121.76378772032349, 121.76378772032349),22,-25,14,yes,x,5,x,0.5113457000006747,1,48,test2,3,0.511524599999575,-70.0
15,wht,f,19,r,2,(-121.76378772032352, -121.76378772032348),26,-7,13,no,m,6,m,0.6859690000001137,1,49,test2,3,0.6861324000001332,-70.0
15,wht,f,19,r,2,(121.76378772032349, 121.76378772032349),22,3,1,yes,x,5,m,0.8601870000002236,0,50,test2,3,0.8604214999995747,-42.0
15,wht,f,19,r,2,(121.76378772032349, 121.76378772032349),22,25,4,no,m,6,m,0.8664306999999098,1,51,test2,3,0.8665940000000774,-42.0
15,wht,f,19,r,2,(-121.76378772032348, 121.76378772032349),24,-7,13,yes,x,5,x,0.536633300000176,1,52,test2,3,0.5370152000004964,-52.0
15,wht,f,19,r,2,(1.0544208940658713e-14, 172.20000000000002),23,-7,13,yes,x,5,x,0.43258289999994304,1,53,test2,3,0.43273690000023635,-52.0
15,wht,f,19,r,2,(-172.20000000000002, 2.1088417881317425e-14),25,3,1,no,m,6,m,0.6597008999997342,1,54,test2,3,0.6598304999997708,-52.0
15,wht,f,19,r,2,(121.76378772032346, -121.76378772032352),28,-7,13,yes,x,5,x,0.4745781999999963,1,55,test2,3,0.4747037999995882,-52.0
15,wht,f,19,r,2,(-121.76378772032352, -121.76378772032348),26,5,2,yes,x,5,x,0.4820619000001898,1,56,test2,3,0.4822953000002599,-40.0
15,wht,f,19,r,2,(-121.76378772032352, -121.76378772032348),26,-25,14,no,m,6,m,0.7278941999993549,1,57,test2,3,0.7280061999999816,-40.0
15,wht,f,19,r,2,(121.76378772032349, 121.76378772032349),22,25,4,yes,x,5,x,0.43549610000081884,1,58,test2,3,0.4355963999996675,-20.0
15,wht,f,19,r,2,(-121.76378772032348, 121.76378772032349),24,3,1,yes,x,5,m,0.6431518999997934,0,59,test2,3,0.6434289000007993,-42.0
15,wht,f,19,r,2,(-3.163262682197613e-14, -172.20000000000002),27,-25,14,no,m,6,m,1.076984899999843,1,60,test2,3,1.0771103000006406,-42.0
15,wht,f,19,r,2,(-172.20000000000002, 2.1088417881317425e-14),25,5,2,no,m,6,m,0.9249856999995245,1,61,test2,3,0.9256341999998767,-42.0
15,wht,f,19,r,2,(-3.163262682197613e-14, -172.20000000000002),27,-7,13,yes,x,5,x,0.5904557999992903,1,62,test2,3,0.591091499999493,-52.0
15,wht,f,19,r,2,(1.0544208940658713e-14, 172.20000000000002),23,-5,12,yes,x,5,x,0.5892383999998856,1,63,test2,3,0.5895080000000235,-50.0
15,wht,f,19,r,2,(121.76378772032349, 121.76378772032349),22,5,2,no,m,6,m,0.5788361000004443,1,64,test2,3,0.579510499999742,-50.0
15,wht,f,19,r,2,(-3.163262682197613e-14, -172.20000000000002),27,5,2,yes,x,5,x,0.6944069000001036,1,65,test2,3,0.6946225000001505,-40.0
15,wht,f,19,r,2,(-121.76378772032348, 121.76378772032349),24,-3,11,yes,x,5,m,0.7648785000001226,0,66,test2,3,0.7651564999996481,-48.0
15,wht,f,19,r,2,(172.20000000000002, 0.0),21,25,4,no,m,6,x,0.7203363999997237,0,67,test2,3,0.7204553999999916,-48.0
15,wht,f,19,r,2,(121.76378772032346, -121.76378772032352),28,5,2,no,m,6,m,0.8360560000000987,1,68,test2,3,0.8363790000003064,-48.0
15,wht,f,19,r,2,(172.20000000000002, 0.0),21,-7,13,no,m,6,m,0.8202135999999882,1,69,test2,3,0.8203589000004285,-48.0
15,wht,f,19,r,2,(-121.76378772032348, 121.76378772032349),24,-5,12,yes,x,5,x,0.5649163999996745,1,70,test2,3,0.5650098000005528,-50.0
15,wht,f,19,r,2,(-172.20000000000002, 2.1088417881317425e-14),25,-3,11,yes,x,5,x,0.9268898000000263,1,71,test2,3,0.9269818000002488,-48.0
15,wht,f,19,r,2,(1.0544208940658713e-14, 172.20000000000002),23,-7,13,yes,x,5,x,0.6661683000002085,1,72,test2,3,0.6662643999998181,-52.0
15,wht,f,19,r,2,(-3.163262682197613e-14, -172.20000000000002),27,25,4,yes,x,5,x,0.46511180000015884,1,73,test2,3,0.4654863000005207,-20.0
15,wht,f,19,r,2,(1.0544208940658713e-14, 172.20000000000002),23,-25,14,yes,x,5,x,0.5002449000003253,1,74,test2,3,0.5004601000000548,-70.0
15,wht,f,19,r,2,(-121.76378772032348, 121.76378772032349),24,-25,14,yes,x,5,x,0.41691240000000107,1,75,test2,3,0.4171349000007467,-70.0
15,wht,f,19,r,2,(-121.76378772032348, 121.76378772032349),24,25,4,yes,x,5,x,0.48914349999995466,1,76,test2,3,0.489592700000685,-20.0
15,wht,f,19,r,2,(1.0544208940658713e-14, 172.20000000000002),23,5,2,no,m,6,m,0.6116660999996384,1,77,test2,3,0.6117927999994208,-20.0
15,wht,f,19,r,2,(172.20000000000002, 0.0),21,-25,14,no,m,6,x,0.9985731000006126,0,78,test2,3,0.9991853999999876,-20.0
15,wht,f,19,r,2,(-3.163262682197613e-14, -172.20000000000002),27,-3,11,yes,x,5,x,1.117339099999299,1,79,test2,3,1.1175852999995186,-48.0
15,wht,f,19,r,2,(121.76378772032349, 121.76378772032349),22,5,2,yes,x,5,x,0.9483934000008958,1,80,test2,3,0.9487220000000889,-40.0
15,wht,f,19,r,2,(-121.76378772032352, -121.76378772032348),26,-5,12,no,m,6,m,0.8066295999997237,1,81,test2,3,0.806799900000442,-40.0
15,wht,f,19,r,2,(-3.163262682197613e-14, -172.20000000000002),27,-3,11,yes,x,5,x,0.5778770999995686,1,82,test2,3,0.5779775999999401,-48.0
15,wht,f,19,r,2,(-3.163262682197613e-14, -172.20000000000002),27,7,3,no,m,6,m,1.1173370999995313,1,83,test2,3,1.1174823000001197,-48.0
15,wht,f,19,r,2,(-172.20000000000002, 2.1088417881317425e-14),25,7,3,yes,x,5,x,0.542071599999872,1,84,test2,3,0.5424234000001888,-38.0
15,wht,f,19,r,2,(-172.20000000000002, 2.1088417881317425e-14),25,-5,12,no,m,6,m,0.7864977999997791,1,85,test2,3,0.786951200000658,-38.0
15,wht,f,19,r,2,(1.0544208940658713e-14, 172.20000000000002),23,7,3,yes,x,5,x,1.1830697000004875,1,86,test2,3,1.1833783000001858,-38.0
15,wht,f,19,r,2,(-3.163262682197613e-14, -172.20000000000002),27,3,1,yes,x,5,x,0.8197860999998738,1,87,test2,3,0.8202965000000404,-42.0
15,wht,f,19,r,2,(121.76378772032349, 121.76378772032349),22,7,3,yes,x,5,x,0.837413999999626,1,88,test2,3,0.8377273999994941,-38.0
15,wht,f,19,r,2,(-3.163262682197613e-14, -172.20000000000002),27,7,3,yes,x,5,x,1.0597609000005832,1,89,test2,3,1.0598613000001933,-38.0
15,wht,f,19,r,2,(121.76378772032346, -121.76378772032352),28,-25,14,yes,x,5,x,0.4865162000005512,1,90,test2,3,0.48695930000030785,-70.0
15,wht,f,19,r,2,(1.0544208940658713e-14, 172.20000000000002),23,25,4,yes,x,5,x,0.4232975000004444,1,91,test2,3,0.4234582999997656,-20.0
15,wht,f,19,r,2,(121.76378772032349, 121.76378772032349),22,-25,14,no,m,6,m,1.1656050999999934,1,92,test2,3,1.1657544999998208,-20.0
15,wht,f,19,r,2,(-172.20000000000002, 2.1088417881317425e-14),25,25,4,yes,x,5,m,1.3168943000000581,0,93,test2,3,1.316999499999838,-20.0
15,wht,f,19,r,2,(-121.76378772032352, -121.76378772032348),26,5,2,yes,x,5,x,0.6167723999997179,1,94,test2,3,0.6169214000001375,-40.0
15,wht,f,19,r,2,(172.20000000000002, 0.0),21,-7,13,yes,x,5,x,1.028741600000103,1,95,test2,3,1.0289709999997285,-52.0
15,wht,f,19,r,2,(121.76378772032346, -121.76378772032352),28,7,3,yes,x,5,x,0.5224490000000515,1,96,test2,3,0.522764699999243,-38.0
15,wht,f,19,r,2,(-3.163262682197613e-14, -172.20000000000002),27,5,2,no,m,6,m,0.6805990999991991,1,1,test1,4,0.6808800999997402,-38.0
15,wht,f,19,r,2,(172.20000000000002, 0.0),21,-5,12,yes,x,5,x,0.6243015999998534,1,2,test1,4,0.6245294999998805,-50.0
15,wht,f,19,r,2,(-121.76378772032352, -121.76378772032348),26,-3,11,no,m,6,m,1.2586791999992784,1,3,test1,4,1.2590815000003204,-50.0
15,wht,f,19,r,2,(121.76378772032346, -121.76378772032352),28,-3,11,no,m,6,m,0.9206006999993406,1,4,test1,4,0.9207844000002297,-50.0
15,wht,f,19,r,2,(121.76378772032346, -121.76378772032352),28,-5,12,no,m,6,m,0.6074162000004435,1,5,test1,4,0.6077119999999923,-50.0
15,wht,f,19,r,2,(121.76378772032346, -121.76378772032352),28,7,3,no,m,6,m,0.8560742999998183,1,6,test1,4,0.8563143000001219,-50.0
15,wht,f,19,r,2,(1.0544208940658713e-14, 172.20000000000002),23,-5,12,no,m,6,x,1.0790754999998171,0,7,test1,4,1.0792830000000322,-50.0
15,wht,f,19,r,2,(-3.163262682197613e-14, -172.20000000000002),27,-25,14,yes,x,5,x,0.5829363000002559,1,8,test1,4,0.5830353000001196,-70.0
15,wht,f,19,r,2,(1.0544208940658713e-14, 172.20000000000002),23,5,2,yes,x,5,x,0.541963300000134,1,9,test1,4,0.5425340000001597,-40.0
15,wht,f,19,r,2,(-172.20000000000002, 2.1088417881317425e-14),25,-5,12,yes,x,5,x,0.6722909999998592,1,10,test1,4,0.6723891999999978,-50.0
15,wht,f,19,r,2,(-172.20000000000002, 2.1088417881317425e-14),25,-3,11,no,m,6,m,0.7097036000004664,1,11,test1,4,0.7100836999998137,-50.0
15,wht,f,19,r,2,(-172.20000000000002, 2.1088417881317425e-14),25,3,1,yes,x,5,x,0.5655626999996457,1,12,test1,4,0.5656577000008838,-42.0
15,wht,f,19,r,2,(1.0544208940658713e-14, 172.20000000000002),23,-3,11,no,m,6,m,0.8046770000000834,1,13,test1,4,0.804776199999651,-42.0
15,wht,f,19,r,2,(121.76378772032349, 121.76378772032349),22,-7,13,yes,x,5,x,0.6009389999999257,1,14,test1,4,0.6010976000006849,-52.0
15,wht,f,19,r,2,(121.76378772032346, -121.76378772032352),28,3,1,yes,x,5,m,0.9129877000004853,0,15,test1,4,0.9132931999993161,-42.0
15,wht,f,19,r,2,(-172.20000000000002, 2.1088417881317425e-14),25,3,1,yes,x,5,x,0.9419736999998349,1,16,test1,4,0.9420938000002934,-42.0
15,wht,f,19,r,2,(-121.76378772032348, 121.76378772032349),24,-3,11,yes,x,5,m,0.759203499999785,0,17,test1,4,0.7595240999999078,-48.0
15,wht,f,19,r,2,(121.76378772032349, 121.76378772032349),22,-5,12,no,m,6,m,0.7732996000004277,1,18,test1,4,0.7734600000003411,-48.0
15,wht,f,19,r,2,(-121.76378772032352, -121.76378772032348),26,7,3,yes,x,5,x,0.6825675000000047,1,19,test1,4,0.682766800000536,-38.0
15,wht,f,19,r,2,(172.20000000000002, 0.0),21,-25,14,yes,x,5,x,0.5412089000001288,1,20,test1,4,0.541727499999979,-70.0
15,wht,f,19,r,2,(-3.163262682197613e-14, -172.20000000000002),27,25,4,yes,x,5,x,0.4896104999997988,1,21,test1,4,0.48983940000016446,-20.0
15,wht,f,19,r,2,(121.76378772032349, 121.76378772032349),22,-3,11,yes,x,5,m,0.599586499999532,0,22,test1,4,0.5997093000005407,-48.0
15,wht,f,19,r,2,(-121.76378772032348, 121.76378772032349),24,7,3,yes,x,5,x,0.48747020000064367,1,23,test1,4,0.487571200000275,-38.0
15,wht,f,19,r,2,(1.0544208940658713e-14, 172.20000000000002),23,-25,14,yes,x,5,x,0.48480579999977635,1,24,test1,4,0.4849488999998357,-70.0
15,wht,f,19,r,2,(172.20000000000002, 0.0),21,-5,12,no,m,6,m,0.8099600000005012,1,25,test1,4,0.8101174999992509,-70.0
15,wht,f,19,r,2,(1.0544208940658713e-14, 172.20000000000002),23,3,1,yes,x,5,x,0.8019506000000547,1,26,test1,4,0.8020453999997699,-42.0
15,wht,f,19,r,2,(172.20000000000002, 0.0),21,25,4,yes,x,5,x,0.4767546000002767,1,27,test1,4,0.47686699999940174,-20.0
15,wht,f,19,r,2,(-3.163262682197613e-14, -172.20000000000002),27,-3,11,no,m,6,m,0.6966391999994812,1,28,test1,4,0.697323200000028,-20.0
15,wht,f,19,r,2,(121.76378772032349, 121.76378772032349),22,-5,12,yes,x,5,x,0.7812047999996139,1,29,test1,4,0.7814355999998952,-50.0
15,wht,f,19,r,2,(-121.76378772032352, -121.76378772032348),26,3,1,yes,x,5,m,1.7072047000001476,0,30,test1,4,1.7074867000001177,-42.0
15,wht,f,19,r,2,(172.20000000000002, 0.0),21,-3,11,no,m,6,x,1.089384599999903,0,31,test1,4,1.089583599999969,-42.0
15,wht,f,19,r,2,(-3.163262682197613e-14, -172.20000000000002),27,5,2,yes,x,5,x,0.7758954999999332,1,32,test1,4,0.7760263999998642,-40.0
15,wht,f,19,r,2,(1.0544208940658713e-14, 172.20000000000002),23,-25,14,no,m,6,m,0.753895900000316,1,33,test1,4,0.7541255999994974,-40.0
15,wht,f,19,r,2,(121.76378772032346, -121.76378772032352),28,-3,11,yes,x,5,m,0.8386942999995881,0,34,test1,4,0.8388204999992013,-48.0
15,wht,f,19,r,2,(-121.76378772032352, -121.76378772032348),26,5,2,no,m,6,m,0.9437266000004456,1,35,test1,4,0.9439652999999453,-48.0
15,wht,f,19,r,2,(121.76378772032346, -121.76378772032352),28,7,3,yes,x,5,x,0.9004964999994627,1,36,test1,4,0.9005937000001722,-38.0
15,wht,f,19,r,2,(-121.76378772032348, 121.76378772032349),24,5,2,yes,x,5,x,0.555553900000632,1,37,test1,4,0.5556812999993781,-40.0
15,wht,f,19,r,2,(-121.76378772032352, -121.76378772032348),26,3,1,no,m,6,m,0.6503500999997414,1,38,test1,4,0.6510032999995019,-40.0
15,wht,f,19,r,2,(121.76378772032349, 121.76378772032349),22,-5,12,yes,x,5,m,1.4589221000005637,0,39,test1,4,1.4590195999999196,-50.0
15,wht,f,19,r,2,(-121.76378772032348, 121.76378772032349),24,-3,11,no,m,6,x,0.6249778999999762,0,40,test1,4,0.6250967999994828,-50.0
15,wht,f,19,r,2,(-121.76378772032352, -121.76378772032348),26,7,3,yes,x,5,x,0.49473240000043006,1,41,test1,4,0.49528660000032687,-38.0
15,wht,f,19,r,2,(1.0544208940658713e-14, 172.20000000000002),23,-5,12,yes,x,5,x,0.4857791000003999,1,42,test1,4,0.4859033000002455,-50.0
15,wht,f,19,r,2,(-121.76378772032348, 121.76378772032349),24,-7,13,no,m,6,x,1.3783401999999114,0,43,test1,4,1.378736900000149,-50.0
15,wht,f,19,r,2,(-121.76378772032348, 121.76378772032349),24,5,2,yes,x,5,x,0.5405570000002626,1,44,test1,4,0.5408987000000707,-40.0
15,wht,f,19,r,2,(121.76378772032349, 121.76378772032349),22,-25,14,yes,x,5,x,0.47046399999999267,1,45,test1,4,0.47070420000000013,-70.0
15,wht,f,19,r,2,(121.76378772032346, -121.76378772032352),28,25,4,yes,x,5,x,0.42636860000038723,1,46,test1,4,0.4264821999995547,-20.0
15,wht,f,19,r,2,(121.76378772032346, -121.76378772032352),28,-7,13,yes,x,5,x,0.5147311000000627,1,47,test1,4,0.515204199999971,-52.0
15,wht,f,19,r,2,(-3.163262682197613e-14, -172.20000000000002),27,-5,12,no,m,6,m,0.9514762999997401,1,48,test1,4,0.9517022999998517,-52.0
15,wht,f,19,r,2,(-172.20000000000002, 2.1088417881317425e-14),25,5,2,yes,x,5,m,0.2822808000000805,0,49,test1,4,0.2823708000005354,-40.0
15,wht,f,19,r,2,(-121.76378772032348, 121.76378772032349),24,-25,14,yes,x,5,x,0.47898850000001403,1,50,test1,4,0.47919610000008106,-70.0
15,wht,f,19,r,2,(-3.163262682197613e-14, -172.20000000000002),27,-7,13,no,m,6,m,0.6913686999996571,1,51,test1,4,0.691469500000494,-70.0
15,wht,f,19,r,2,(-172.20000000000002, 2.1088417881317425e-14),25,-25,14,no,m,6,x,0.8581143000001248,0,52,test1,4,0.85834530000011,-70.0
15,wht,f,19,r,2,(-121.76378772032348, 121.76378772032349),24,-5,12,yes,x,5,x,0.5186401000000842,1,53,test1,4,0.5188826000003246,-50.0
15,wht,f,19,r,2,(172.20000000000002, 0.0),21,7,3,yes,x,5,x,0.8684775000001537,1,54,test1,4,0.8687749999999141,-38.0
15,wht,f,19,r,2,(121.76378772032349, 121.76378772032349),22,-7,13,yes,x,5,m,0.943478199999845,0,55,test1,4,0.9436024999995425,-52.0
15,wht,f,19,r,2,(-172.20000000000002, 2.1088417881317425e-14),25,25,4,yes,x,5,x,0.501370400000269,1,56,test1,4,0.5015942999998515,-20.0
15,wht,f,19,r,2,(-3.163262682197613e-14, -172.20000000000002),27,25,4,no,m,6,m,1.281955399999788,1,57,test1,4,1.2821647999999186,-20.0
15,wht,f,19,r,2,(-172.20000000000002, 2.1088417881317425e-14),25,-7,13,no,m,6,m,0.6719193999997515,1,58,test1,4,0.6720369000004212,-20.0
15,wht,f,19,r,2,(-3.163262682197613e-14, -172.20000000000002),27,-5,12,yes,x,5,x,0.653429099999812,1,59,test1,4,0.6538715999995475,-50.0
15,wht,f,19,r,2,(-121.76378772032348, 121.76378772032349),24,-5,12,no,m,6,m,1.542228399999658,1,60,test1,4,1.5423265999997966,-50.0
15,wht,f,19,r,2,(-172.20000000000002, 2.1088417881317425e-14),25,7,3,no,m,6,m,1.5330501999997068,1,61,test1,4,1.5332663999997749,-50.0
15,wht,f,19,r,2,(-121.76378772032352, -121.76378772032348),26,-7,13,yes,x,5,x,0.5858436999997139,1,62,test1,4,0.5861172999993869,-52.0
15,wht,f,19,r,2,(-172.20000000000002, 2.1088417881317425e-14),25,-7,13,yes,x,5,x,1.115850400000454,1,63,test1,4,1.1161081999998714,-52.0
15,wht,f,19,r,2,(121.76378772032346, -121.76378772032352),28,25,4,no,m,6,m,0.8530485000001136,1,64,test1,4,0.853277899999739,-52.0
15,wht,f,19,r,2,(-172.20000000000002, 2.1088417881317425e-14),25,-25,14,yes,x,5,x,0.40304509999987204,1,65,test1,4,0.40327499999966676,-70.0
15,wht,f,19,r,2,(-121.76378772032348, 121.76378772032349),24,5,2,no,m,6,x,0.6222874999994019,0,66,test1,4,0.6223829000000478,-70.0
15,wht,f,19,r,2,(-121.76378772032352, -121.76378772032348),26,-5,12,yes,x,5,x,0.3861888999999792,1,67,test1,4,0.3863129999999728,-50.0
15,wht,f,19,r,2,(121.76378772032346, -121.76378772032352),28,5,2,yes,x,5,x,0.6442715000002863,1,68,test1,4,0.6445031000002928,-40.0
15,wht,f,19,r,2,(172.20000000000002, 0.0),21,7,3,yes,x,5,x,0.5102109999997992,1,69,test1,4,0.5104357000000164,-38.0
15,wht,f,19,r,2,(121.76378772032346, -121.76378772032352),28,3,1,yes,x,5,x,0.7995528999999806,1,70,test1,4,0.7999544999993304,-42.0
15,wht,f,19,r,2,(-3.163262682197613e-14, -172.20000000000002),27,3,1,no,m,6,m,1.148348900000201,1,71,test1,4,1.1485008999998172,-42.0
15,wht,f,19,r,2,(121.76378772032349, 121.76378772032349),22,7,3,yes,x,5,x,0.5077143999997134,1,72,test1,4,0.508119799999804,-38.0
15,wht,f,19,r,2,(-121.76378772032348, 121.76378772032349),24,25,4,no,m,6,m,1.2173035999994681,1,73,test1,4,1.2175310000002355,-38.0
15,wht,f,19,r,2,(-172.20000000000002, 2.1088417881317425e-14),25,5,2,yes,x,5,x,0.5375891999992746,1,74,test1,4,0.5377722000002905,-40.0
15,wht,f,19,r,2,(-3.163262682197613e-14, -172.20000000000002),27,-25,14,yes,x,5,x,0.7997146999996403,1,75,test1,4,0.8003562999992937,-70.0
15,wht,f,19,r,2,(-3.163262682197613e-14, -172.20000000000002),27,7,3,yes,x,5,x,0.5169505999992907,1,76,test1,4,0.5172507999996014,-38.0
15,wht,f,19,r,2,(-121.76378772032352, -121.76378772032348),26,-25,14,yes,x,5,x,0.6159022000001642,1,77,test1,4,0.6160007999997106,-70.0
15,wht,f,19,r,2,(121.76378772032349, 121.76378772032349),22,-7,13,no,m,6,x,1.071998899999926,0,78,test1,4,1.0722988999996232,-70.0
15,wht,f,19,r,2,(-121.76378772032352, -121.76378772032348),26,-25,14,yes,x,5,x,0.426192799999626,1,79,test1,4,0.42642179999984364,-70.0
15,wht,f,19,r,2,(-172.20000000000002, 2.1088417881317425e-14),25,-7,13,yes,x,5,x,0.5475258999995276,1,80,test1,4,0.5476445000003878,-52.0
15,wht,f,19,r,2,(121.76378772032349, 121.76378772032349),22,3,1,no,m,6,m,1.1513537999999244,1,81,test1,4,1.1514711999998326,-52.0
15,wht,f,19,r,2,(121.76378772032349, 121.76378772032349),22,-3,11,yes,x,5,x,0.6972644000006767,1,82,test1,4,0.6973929999994652,-48.0
15,wht,f,19,r,2,(-121.76378772032352, -121.76378772032348),26,7,3,no,m,6,m,0.647512600000482,1,83,test1,4,0.647740999999769,-48.0
15,wht,f,19,r,2,(-172.20000000000002, 2.1088417881317425e-14),25,-3,11,yes,x,5,x,0.8502877999999328,1,84,test1,4,0.8507432999995217,-48.0
15,wht,f,19,r,2,(172.20000000000002, 0.0),21,3,1,yes,x,5,x,0.7499134999998205,1,85,test1,4,0.7501382000000376,-42.0
15,wht,f,19,r,2,(121.76378772032346, -121.76378772032352),28,3,1,no,m,6,m,0.6333362999994279,1,86,test1,4,0.6335521000000881,-42.0
15,wht,f,19,r,2,(172.20000000000002, 0.0),21,-3,11,yes,x,5,x,1.6427241000001231,1,87,test1,4,1.6435756999999285,-48.0
15,wht,f,19,r,2,(172.20000000000002, 0.0),21,-25,14,yes,x,5,x,0.4486525000002075,1,88,test1,4,0.4488071999994645,-70.0
15,wht,f,19,r,2,(-121.76378772032348, 121.76378772032349),24,7,3,yes,x,5,x,0.8495684999998048,1,89,test1,4,0.8496570000006614,-38.0
15,wht,f,19,r,2,(-3.163262682197613e-14, -172.20000000000002),27,-5,12,yes,x,5,x,0.9016663000002154,1,90,test1,4,0.9021500999997443,-50.0
15,wht,f,19,r,2,(-121.76378772032352, -121.76378772032348),26,-5,12,yes,x,5,None,None,0,91,test1,4,1.9800879000003988,-50.0
15,wht,f,19,r,2,(-121.76378772032352, -121.76378772032348),26,-3,11,yes,x,5,m,0.8685934000004636,0,92,test1,4,0.8686889999999039,-48.0
15,wht,f,19,r,2,(-172.20000000000002, 2.1088417881317425e-14),25,-5,12,yes,x,5,x,0.5445103000001836,1,93,test1,4,0.5448229000003266,-50.0
15,wht,f,19,r,2,(-121.76378772032348, 121.76378772032349),24,-7,13,yes,x,5,x,0.5964198000001488,1,94,test1,4,0.5966241999994963,-52.0
15,wht,f,19,r,2,(172.20000000000002, 0.0),21,5,2,yes,x,5,x,0.5529618000000482,1,95,test1,4,0.5530557000001863,-40.0
15,wht,f,19,r,2,(172.20000000000002, 0.0),21,-3,11,yes,x,5,x,0.6398108000003049,1,96,test1,4,0.6399359999995795,-48.0
15,wht,f,19,r,2,(121.76378772032346, -121.76378772032352),28,-25,14,no,m,6,m,0.8831258999998681,1,1,test2,4,0.8832407999998395,-48.0
15,wht,f,19,r,2,(1.0544208940658713e-14, 172.20000000000002),23,3,1,no,m,6,m,0.9058796999997867,1,2,test2,4,0.9059696000003896,-48.0
15,wht,f,19,r,2,(172.20000000000002, 0.0),21,3,1,no,m,6,m,0.6418992999997499,1,3,test2,4,0.642024599999786,-48.0
15,wht,f,19,r,2,(-121.76378772032348, 121.76378772032349),24,7,3,no,m,6,m,0.7691062999992937,1,4,test2,4,0.7692680999998629,-48.0
15,wht,f,19,r,2,(-121.76378772032348, 121.76378772032349),24,3,1,yes,x,5,x,0.9038577999999688,1,5,test2,4,0.9041277000005721,-42.0
15,wht,f,19,r,2,(172.20000000000002, 0.0),21,-7,13,yes,x,5,x,0.543063500000244,1,6,test2,4,0.5432808000005025,-52.0
15,wht,f,19,r,2,(121.76378772032349, 121.76378772032349),22,3,1,yes,x,5,x,0.7265477000000828,1,7,test2,4,0.7268887999998697,-42.0
15,wht,f,19,r,2,(1.0544208940658713e-14, 172.20000000000002),23,7,3,no,m,6,m,0.9613380000000689,1,8,test2,4,0.9615586999998413,-42.0
15,wht,f,19,r,2,(-121.76378772032348, 121.76378772032349),24,25,4,yes,x,5,x,0.47294699999929435,1,9,test2,4,0.473212799999601,-20.0
15,wht,f,19,r,2,(1.0544208940658713e-14, 172.20000000000002),23,3,1,yes,x,5,x,0.673303899999155,1,10,test2,4,0.6734643999998298,-42.0
15,wht,f,19,r,2,(-121.76378772032352, -121.76378772032348),26,25,4,yes,x,5,x,0.47819369999979244,1,11,test2,4,0.47830030000022816,-20.0
15,wht,f,19,r,2,(172.20000000000002, 0.0),21,25,4,yes,x,5,x,0.7417160000004515,1,12,test2,4,0.7420270000002347,-20.0
15,wht,f,19,r,2,(1.0544208940658713e-14, 172.20000000000002),23,-3,11,yes,x,5,x,1.162899599999946,1,13,test2,4,1.163376800000151,-48.0
15,wht,f,19,r,2,(121.76378772032349, 121.76378772032349),22,5,2,yes,x,5,x,0.5376088999992135,1,14,test2,4,0.5379282000003514,-40.0
15,wht,f,19,r,2,(-121.76378772032348, 121.76378772032349),24,3,1,no,m,6,m,0.8535013000000617,1,15,test2,4,0.8536668000006102,-40.0
15,wht,f,19,r,2,(1.0544208940658713e-14, 172.20000000000002),23,-3,11,yes,x,5,x,0.6290730000000622,1,16,test2,4,0.6295297999995455,-48.0
15,wht,f,19,r,2,(121.76378772032346, -121.76378772032352),28,25,4,yes,x,5,x,0.5329209000001356,1,17,test2,4,0.5330148000002737,-20.0
15,wht,f,19,r,2,(-172.20000000000002, 2.1088417881317425e-14),25,25,4,no,m,6,m,1.065306899999996,1,18,test2,4,1.0654156000000512,-20.0
15,wht,f,19,r,2,(-3.163262682197613e-14, -172.20000000000002),27,3,1,yes,x,5,m,0.9951065999994171,0,19,test2,4,0.9952050000001691,-42.0
15,wht,f,19,r,2,(121.76378772032349, 121.76378772032349),22,25,4,yes,x,5,x,0.443204400000468,1,20,test2,4,0.44343099999969127,-20.0
15,wht,f,19,r,2,(172.20000000000002, 0.0),21,7,3,no,m,6,m,0.8016606000001048,1,21,test2,4,0.8021224000003713,-20.0
15,wht,f,19,r,2,(-121.76378772032352, -121.76378772032348),26,25,4,no,m,6,m,0.778755899999851,1,22,test2,4,0.778857500000413,-20.0
15,wht,f,19,r,2,(-121.76378772032352, -121.76378772032348),26,-3,11,yes,x,5,x,0.8989218999995501,1,23,test2,4,0.8990244999995411,-48.0
15,wht,f,19,r,2,(121.76378772032346, -121.76378772032352),28,5,2,yes,x,5,x,0.687943500000074,1,24,test2,4,0.6882620999995197,-40.0
15,wht,f,19,r,2,(1.0544208940658713e-14, 172.20000000000002),23,25,4,yes,x,5,x,0.40581269999984215,1,25,test2,4,0.4064609000006385,-20.0
15,wht,f,19,r,2,(1.0544208940658713e-14, 172.20000000000002),23,-7,13,no,m,6,x,0.6067651000003025,0,26,test2,4,0.6068911000002117,-20.0
15,wht,f,19,r,2,(-121.76378772032348, 121.76378772032349),24,-25,14,no,m,6,m,0.7962053000001106,1,27,test2,4,0.7962969000000157,-20.0
15,wht,f,19,r,2,(-3.163262682197613e-14, -172.20000000000002),27,-7,13,yes,x,5,x,0.8822023000002446,1,28,test2,4,0.8823195999993914,-52.0
15,wht,f,19,r,2,(121.76378772032349, 121.76378772032349),22,7,3,no,m,6,m,0.6777901000004931,1,29,test2,4,0.6779120000001058,-52.0
15,wht,f,19,r,2,(121.76378772032346, -121.76378772032352),28,-5,12,yes,x,5,x,0.5673225000000457,1,30,test2,4,0.5676248999998279,-50.0
15,wht,f,19,r,2,(1.0544208940658713e-14, 172.20000000000002),23,25,4,no,m,6,m,0.8421032999995077,1,31,test2,4,0.8422234999998182,-50.0
15,wht,f,19,r,2,(1.0544208940658713e-14, 172.20000000000002),23,5,2,yes,x,5,x,0.4501956000003702,1,32,test2,4,0.4504268000000593,-40.0
15,wht,f,19,r,2,(121.76378772032346, -121.76378772032352),28,-5,12,yes,x,5,x,0.4991960999996081,1,33,test2,4,0.4993322000000262,-50.0
15,wht,f,19,r,2,(121.76378772032349, 121.76378772032349),22,-3,11,no,m,6,m,0.7572548000007373,1,34,test2,4,0.7576847000000271,-50.0
15,wht,f,19,r,2,(1.0544208940658713e-14, 172.20000000000002),23,7,3,yes,x,5,x,0.6847405000007711,1,35,test2,4,0.6854673999996521,-38.0
15,wht,f,19,r,2,(121.76378772032346, -121.76378772032352),28,-3,11,yes,x,5,x,0.8126685000006546,1,36,test2,4,0.8128292000001238,-48.0
15,wht,f,19,r,2,(-172.20000000000002, 2.1088417881317425e-14),25,7,3,yes,x,5,x,0.5168919999996433,1,37,test2,4,0.5171017000002394,-38.0
15,wht,f,19,r,2,(-121.76378772032352, -121.76378772032348),26,25,4,yes,x,5,x,0.39687859999958164,1,38,test2,4,0.39710399999967194,-20.0
15,wht,f,19,r,2,(172.20000000000002, 0.0),21,5,2,yes,x,5,m,0.8402686000008543,0,39,test2,4,0.8404671999996935,-40.0
15,wht,f,19,r,2,(-172.20000000000002, 2.1088417881317425e-14),25,-25,14,yes,x,5,x,0.3885823000000528,1,40,test2,4,0.38867930000014894,-70.0
15,wht,f,19,r,2,(-121.76378772032352, -121.76378772032348),26,3,1,yes,x,5,x,0.8765415999996549,1,41,test2,4,0.876853900000242,-42.0
15,wht,f,19,r,2,(172.20000000000002, 0.0),21,-5,12,yes,x,5,x,0.4621614999996382,1,42,test2,4,0.4622596999997768,-50.0
15,wht,f,19,r,2,(172.20000000000002, 0.0),21,3,1,yes,x,5,m,0.9567280000001119,0,43,test2,4,0.95716369999991,-42.0
15,wht,f,19,r,2,(172.20000000000002, 0.0),21,5,2,no,m,6,m,0.8817310000004,1,44,test2,4,0.8818924999995943,-42.0
15,wht,f,19,r,2,(-121.76378772032352, -121.76378772032348),26,-7,13,yes,x,5,x,0.8281070000002728,1,45,test2,4,0.8284382000001642,-52.0
15,wht,f,19,r,2,(121.76378772032346, -121.76378772032352),28,-7,13,no,m,6,m,0.7756159999998999,1,46,test2,4,0.7757141000001866,-52.0
15,wht,f,19,r,2,(121.76378772032346, -121.76378772032352),28,-25,14,yes,x,5,x,0.5320571000002019,1,47,test2,4,0.5322835999995732,-70.0
15,wht,f,19,r,2,(121.76378772032349, 121.76378772032349),22,-25,14,yes,x,5,x,0.5381330000000162,1,48,test2,4,0.5382301000008738,-70.0
15,wht,f,19,r,2,(-121.76378772032352, -121.76378772032348),26,-7,13,no,m,6,m,0.6585340000001452,1,49,test2,4,0.6590245999996114,-70.0
15,wht,f,19,r,2,(121.76378772032349, 121.76378772032349),22,3,1,yes,x,5,x,0.7823733999994147,1,50,test2,4,0.7827588999998625,-42.0
15,wht,f,19,r,2,(121.76378772032349, 121.76378772032349),22,25,4,no,m,6,x,1.070856499999536,0,51,test2,4,1.0710626999998567,-42.0
15,wht,f,19,r,2,(-121.76378772032348, 121.76378772032349),24,-7,13,yes,x,5,x,0.528835799999797,1,52,test2,4,0.5289609999999811,-52.0
15,wht,f,19,r,2,(1.0544208940658713e-14, 172.20000000000002),23,-7,13,yes,x,5,x,1.2732315999992352,1,53,test2,4,1.2735440000005838,-52.0
15,wht,f,19,r,2,(-172.20000000000002, 2.1088417881317425e-14),25,3,1,no,m,6,m,0.6369113000000652,1,54,test2,4,0.6371697000004133,-52.0
15,wht,f,19,r,2,(121.76378772032346, -121.76378772032352),28,-7,13,yes,x,5,x,0.5812647000002471,1,55,test2,4,0.581358999999793,-52.0
15,wht,f,19,r,2,(-121.76378772032352, -121.76378772032348),26,5,2,yes,x,5,x,0.8437343999994482,1,56,test2,4,0.8441324999994322,-40.0
15,wht,f,19,r,2,(-121.76378772032352, -121.76378772032348),26,-25,14,no,m,6,m,0.6965035000002899,1,57,test2,4,0.6969321999995373,-40.0
15,wht,f,19,r,2,(121.76378772032349, 121.76378772032349),22,25,4,yes,x,5,x,0.5490051000006133,1,58,test2,4,0.5492075000001932,-20.0
15,wht,f,19,r,2,(-121.76378772032348, 121.76378772032349),24,3,1,yes,x,5,x,0.5198567999996158,1,59,test2,4,0.5205453000007765,-42.0
15,wht,f,19,r,2,(-3.163262682197613e-14, -172.20000000000002),27,-25,14,no,m,6,m,0.6332380000003468,1,60,test2,4,0.6340906000004907,-42.0
15,wht,f,19,r,2,(-172.20000000000002, 2.1088417881317425e-14),25,5,2,no,m,6,x,0.550586000000294,0,61,test2,4,0.5508231000003434,-42.0
15,wht,f,19,r,2,(-3.163262682197613e-14, -172.20000000000002),27,-7,13,yes,x,5,x,0.47720399999980145,1,62,test2,4,0.4774700000007215,-52.0
15,wht,f,19,r,2,(1.0544208940658713e-14, 172.20000000000002),23,-5,12,yes,x,5,m,0.6458515999993324,0,63,test2,4,0.6467068000001746,-50.0
15,wht,f,19,r,2,(121.76378772032349, 121.76378772032349),22,5,2,no,m,6,m,0.6851692000000185,1,64,test2,4,0.685531500000252,-50.0
15,wht,f,19,r,2,(-3.163262682197613e-14, -172.20000000000002),27,5,2,yes,x,5,x,0.7864136999996845,1,65,test2,4,0.786662299999989,-40.0
15,wht,f,19,r,2,(-121.76378772032348, 121.76378772032349),24,-3,11,yes,x,5,x,1.858064999999442,1,66,test2,4,1.858483800000613,-48.0
15,wht,f,19,r,2,(172.20000000000002, 0.0),21,25,4,no,m,6,m,0.7080454999995709,1,67,test2,4,0.7082317999993393,-48.0
15,wht,f,19,r,2,(121.76378772032346, -121.76378772032352),28,5,2,no,m,6,x,1.3410955999997896,0,68,test2,4,1.341216899999381,-48.0
15,wht,f,19,r,2,(172.20000000000002, 0.0),21,-7,13,no,m,6,m,0.7765244000001985,1,69,test2,4,0.7766200999994908,-48.0
15,wht,f,19,r,2,(-121.76378772032348, 121.76378772032349),24,-5,12,yes,x,5,m,0.6034425999996529,0,70,test2,4,0.6035585999998148,-50.0
15,wht,f,19,r,2,(-172.20000000000002, 2.1088417881317425e-14),25,-3,11,yes,x,5,x,0.7175485000007029,1,71,test2,4,0.717783000000054,-48.0
15,wht,f,19,r,2,(1.0544208940658713e-14, 172.20000000000002),23,-7,13,yes,x,5,x,0.5226422000005186,1,72,test2,4,0.5229089999993448,-52.0
15,wht,f,19,r,2,(-3.163262682197613e-14, -172.20000000000002),27,25,4,yes,x,5,m,0.5406814999996641,0,73,test2,4,0.5408268000001044,-20.0
15,wht,f,19,r,2,(1.0544208940658713e-14, 172.20000000000002),23,-25,14,yes,x,5,x,0.3587195000000065,1,74,test2,4,0.3588202999999339,-70.0
15,wht,f,19,r,2,(-121.76378772032348, 121.76378772032349),24,-25,14,yes,x,5,x,0.8178331999997681,1,75,test2,4,0.8179939000001468,-70.0
15,wht,f,19,r,2,(-121.76378772032348, 121.76378772032349),24,25,4,yes,x,5,x,0.3825291000002835,1,76,test2,4,0.38287860000036744,-20.0
15,wht,f,19,r,2,(1.0544208940658713e-14, 172.20000000000002),23,5,2,no,m,6,m,0.5934538999999859,1,77,test2,4,0.5935594000002311,-20.0
15,wht,f,19,r,2,(172.20000000000002, 0.0),21,-25,14,no,m,6,m,0.633224500000324,1,78,test2,4,0.6334358000003704,-20.0
