subj_id,subj_name,subj_gender ,subj_age,subj_handedness,subj_runNum,tar_l_x,tar_l_y,loc_code,tar_ori,tar_code,tar_pre ,cor_response,pre_code,subj_response,RT,correct,trial_num,type,bloc_num,dur, real_tar
15,wht,f,19,r,1,(121.76378772032349, 121.76378772032349),22,7,3,yes,x,5,m,1.6068097,0,1,prac,0,1.6069232,-38
15,wht,f,19,r,1,(-121.76378772032352, -121.76378772032348),26,-5,12,yes,x,5,x,0.8055526,1,2,prac,0,0.8056734,-50
15,wht,f,19,r,1,(121.76378772032346, -121.76378772032352),28,25,4,no,m,6,m,0.8789949,1,3,prac,0,0.8794983,-50
15,wht,f,19,r,1,(121.76378772032349, 121.76378772032349),22,-3,11,yes,x,5,m,0.7974315,0,4,prac,0,0.7978522,-48
15,wht,f,19,r,1,(121.76378772032346, -121.76378772032352),28,3,1,yes,x,5,x,1.4693329,1,5,prac,0,1.4694366,-42
15,wht,f,19,r,1,(121.76378772032346, -121.76378772032352),28,5,2,yes,x,5,x,0.6706866,1,6,prac,0,0.6709712,-40
15,wht,f,19,r,1,(172.20000000000002, 0.0),21,7,3,yes,x,5,x,0.7032162,1,7,prac,0,0.7034635,-38
15,wht,f,19,r,1,(-121.76378772032352, -121.76378772032348),26,5,2,yes,x,5,x,0.9044363,1,8,prac,0,0.9046115,-40
15,wht,f,19,r,1,(-3.163262682197613e-14, -172.20000000000002),27,5,2,yes,x,5,x,1.2110169,1,9,prac,0,1.2112114,-40
15,wht,f,19,r,1,(-172.20000000000002, 2.1088417881317425e-14),25,-7,13,yes,x,5,x,0.841835,1,10,prac,0,0.8419617,-52
15,wht,f,19,r,1,(172.20000000000002, 0.0),21,7,3,no,m,6,m,1.3306356,1,11,prac,0,1.3310822,-52
15,wht,f,19,r,1,(1.0544208940658713e-14, 172.20000000000002),23,-5,12,yes,x,5,x,0.6588937,1,12,prac,0,0.659004,-50
15,wht,f,19,r,1,(-121.76378772032348, 121.76378772032349),24,-25,14,no,m,6,m,1.2528017,1,13,prac,0,1.2529033,-50
15,wht,f,19,r,1,(-172.20000000000002, 2.1088417881317425e-14),25,5,2,yes,x,5,x,0.8648746,1,14,prac,0,0.8649715,-40
15,wht,f,19,r,1,(172.20000000000002, 0.0),21,25,4,yes,x,5,x,0.5455298,1,15,prac,0,0.5457508,-20
15,wht,f,19,r,1,(-121.76378772032352, -121.76378772032348),26,-3,11,yes,x,5,x,0.8526845,1,16,prac,0,0.8528816,-48
15,wht,f,19,r,1,(172.20000000000002, 0.0),21,-5,12,no,m,6,m,0.9526219,1,17,prac,0,0.9528573,-48
15,wht,f,19,r,1,(-121.76378772032352, -121.76378772032348),26,-25,14,yes,x,5,x,0.5657761,1,18,prac,0,0.5661057,-70
15,wht,f,19,r,1,(172.20000000000002, 0.0),21,-3,11,yes,x,5,m,0.6706366,0,19,prac,0,0.6707369,-48
15,wht,f,19,r,1,(172.20000000000002, 0.0),21,-7,13,yes,x,5,x,0.8259965,1,20,prac,0,0.8261115,-52
15,wht,f,19,r,1,(121.76378772032346, -121.76378772032352),28,-5,12,yes,x,5,x,0.6679847,1,1,test1,1,0.6682869,-50
15,wht,f,19,r,1,(-3.163262682197613e-14, -172.20000000000002),27,3,1,yes,x,5,x,1.7816732,1,2,test1,1,1.7817504,-42
15,wht,f,19,r,1,(-172.20000000000002, 2.1088417881317425e-14),25,-5,12,yes,x,5,x,0.6185063,1,3,test1,1,0.6186769,-50
15,wht,f,19,r,1,(-3.163262682197613e-14, -172.20000000000002),27,-5,12,yes,x,5,x,0.7361552,1,4,test1,1,0.7363896,-50
15,wht,f,19,r,1,(1.0544208940658713e-14, 172.20000000000002),23,-5,12,yes,x,5,x,0.9270165,1,5,test1,1,0.9271198,-50
15,wht,f,19,r,1,(-3.163262682197613e-14, -172.20000000000002),27,-25,14,yes,x,5,x,0.5127744,1,6,test1,1,0.5130808,-70
15,wht,f,19,r,1,(172.20000000000002, 0.0),21,-7,13,yes,x,5,x,0.6768944,1,7,test1,1,0.6769927,-52
15,wht,f,19,r,1,(121.76378772032346, -121.76378772032352),28,25,4,yes,x,5,x,0.4561941,1,8,test1,1,0.4564725,-20
15,wht,f,19,r,1,(-172.20000000000002, 2.1088417881317425e-14),25,-25,14,yes,x,5,x,0.436307,1,9,test1,1,0.4367543,-70
15,wht,f,19,r,1,(-3.163262682197613e-14, -172.20000000000002),27,-5,12,yes,x,5,x,0.6747051,1,10,test1,1,0.6748149,-50
15,wht,f,19,r,1,(-121.76378772032348, 121.76378772032349),24,5,2,no,m,6,m,0.923133,1,11,test1,1,0.9234163,-50
15,wht,f,19,r,1,(172.20000000000002, 0.0),21,-7,13,yes,x,5,x,0.5801096,1,12,test1,1,0.580207,-52
15,wht,f,19,r,1,(121.76378772032349, 121.76378772032349),22,-7,13,no,m,6,m,0.7884553,1,13,test1,1,0.7887472,-52
15,wht,f,19,r,1,(172.20000000000002, 0.0),21,3,1,no,m,6,m,0.6743081,1,14,test1,1,0.674531,-52
15,wht,f,19,r,1,(-172.20000000000002, 2.1088417881317425e-14),25,-3,11,yes,x,5,x,1.0086388,1,15,test1,1,1.0087259,-48
15,wht,f,19,r,1,(121.76378772032346, -121.76378772032352),28,5,2,yes,x,5,x,1.0319718,1,16,test1,1,1.0320952,-40
15,wht,f,19,r,1,(-121.76378772032352, -121.76378772032348),26,7,3,yes,x,5,x,0.685364,1,17,test1,1,0.6855488,-38
15,wht,f,19,r,1,(-3.163262682197613e-14, -172.20000000000002),27,7,3,yes,x,5,x,0.6809013,1,18,test1,1,0.6811682,-38
15,wht,f,19,r,1,(1.0544208940658713e-14, 172.20000000000002),23,7,3,yes,x,5,x,0.5637947,1,19,test1,1,0.5638872,-38
15,wht,f,19,r,1,(-3.163262682197613e-14, -172.20000000000002),27,-25,14,no,m,6,None,None,0,20,test1,1,1.9800918,-38
15,wht,f,19,r,1,(121.76378772032346, -121.76378772032352),28,5,2,no,m,6,m,0.8619313,1,21,test1,1,0.8620783,-38
15,wht,f,19,r,1,(-121.76378772032348, 121.76378772032349),24,5,2,yes,x,5,m,0.6544721,0,22,test1,1,0.6545893,-40
15,wht,f,19,r,1,(121.76378772032349, 121.76378772032349),22,-5,12,no,m,6,m,0.7829035,1,23,test1,1,0.7833308,-40
15,wht,f,19,r,1,(-3.163262682197613e-14, -172.20000000000002),27,5,2,yes,x,5,x,0.8112099,1,24,test1,1,0.8115349,-40
15,wht,f,19,r,1,(121.76378772032346, -121.76378772032352),28,7,3,no,m,6,m,0.9230527,1,25,test1,1,0.9232851,-40
15,wht,f,19,r,1,(-172.20000000000002, 2.1088417881317425e-14),25,-5,12,no,m,6,m,0.7818696,1,26,test1,1,0.7820187,-40
15,wht,f,19,r,1,(121.76378772032346, -121.76378772032352),28,-7,13,yes,x,5,x,0.8374821,1,27,test1,1,0.8375982,-52
15,wht,f,19,r,1,(-172.20000000000002, 2.1088417881317425e-14),25,-7,13,yes,x,5,x,0.5299847,1,28,test1,1,0.5300712,-52
15,wht,f,19,r,1,(121.76378772032349, 121.76378772032349),22,7,3,yes,x,5,x,0.7371717,1,29,test1,1,0.7374611,-38
15,wht,f,19,r,1,(1.0544208940658713e-14, 172.20000000000002),23,-7,13,yes,x,5,x,0.5222223,1,30,test1,1,0.5224133,-52
15,wht,f,19,r,1,(-3.163262682197613e-14, -172.20000000000002),27,7,3,yes,x,5,x,0.8512219,1,31,test1,1,0.8513626,-38
15,wht,f,19,r,1,(-172.20000000000002, 2.1088417881317425e-14),25,-7,13,yes,x,5,x,0.5221137,1,32,test1,1,0.5225888,-52
15,wht,f,19,r,1,(121.76378772032346, -121.76378772032352),28,-7,13,no,m,6,m,1.2276413,1,33,test1,1,1.2278239,-52
15,wht,f,19,r,1,(121.76378772032349, 121.76378772032349),22,-3,11,yes,x,5,x,0.6424813,1,34,test1,1,0.6432107,-48
15,wht,f,19,r,1,(121.76378772032346, -121.76378772032352),28,3,1,no,m,6,m,1.1220094,1,35,test1,1,1.1221409,-48
15,wht,f,19,r,1,(-121.76378772032352, -121.76378772032348),26,25,4,no,m,6,m,1.2327554,1,36,test1,1,1.2331401,-48
15,wht,f,19,r,1,(-3.163262682197613e-14, -172.20000000000002),27,25,4,yes,x,5,x,0.5446365,1,37,test1,1,0.5448664,-20
15,wht,f,19,r,1,(-121.76378772032348, 121.76378772032349),24,25,4,yes,x,5,x,0.4694366,1,38,test1,1,0.4696522,-20
15,wht,f,19,r,1,(-121.76378772032352, -121.76378772032348),26,-5,12,yes,x,5,x,0.7166974,1,39,test1,1,0.7168239,-50
15,wht,f,19,r,1,(121.76378772032346, -121.76378772032352),28,5,2,yes,x,5,x,0.7103159,1,40,test1,1,0.7104117,-40
15,wht,f,19,r,1,(-3.163262682197613e-14, -172.20000000000002),27,5,2,no,m,6,m,0.9917395,1,41,test1,1,0.9920553,-40
15,wht,f,19,r,1,(121.76378772032349, 121.76378772032349),22,7,3,no,m,6,m,0.6660065,1,42,test1,1,0.6663282,-40
15,wht,f,19,r,1,(1.0544208940658713e-14, 172.20000000000002),23,25,4,no,m,6,m,0.7868158,1,43,test1,1,0.7870374,-40
15,wht,f,19,r,1,(1.0544208940658713e-14, 172.20000000000002),23,-7,13,no,m,6,m,0.659621,1,44,test1,1,0.6597607,-40
15,wht,f,19,r,1,(-121.76378772032348, 121.76378772032349),24,7,3,yes,x,5,x,0.6018051,1,45,test1,1,0.6019168,-38
15,wht,f,19,r,1,(121.76378772032346, -121.76378772032352),28,7,3,yes,x,5,x,0.6613646,1,46,test1,1,0.6614857,-38
15,wht,f,19,r,1,(172.20000000000002, 0.0),21,25,4,yes,x,5,x,0.5311166,1,47,test1,1,0.5312979,-20
15,wht,f,19,r,1,(-172.20000000000002, 2.1088417881317425e-14),25,-3,11,yes,x,5,m,0.8904937,0,48,test1,1,0.8906316,-48
15,wht,f,19,r,1,(-3.163262682197613e-14, -172.20000000000002),27,-5,12,no,m,6,x,1.2566281,0,49,test1,1,1.2568347,-48
15,wht,f,19,r,1,(-121.76378772032352, -121.76378772032348),26,-25,14,yes,x,5,x,0.5444372,1,50,test1,1,0.5445513,-70
15,wht,f,19,r,1,(1.0544208940658713e-14, 172.20000000000002),23,5,2,yes,x,5,x,1.0764025,1,51,test1,1,1.0765227,-40
15,wht,f,19,r,1,(121.76378772032349, 121.76378772032349),22,5,2,yes,x,5,x,0.6240223,1,52,test1,1,0.6241116,-40
15,wht,f,19,r,1,(121.76378772032346, -121.76378772032352),28,-3,11,yes,x,5,m,0.9036321,0,53,test1,1,0.9038257,-48
15,wht,f,19,r,1,(-3.163262682197613e-14, -172.20000000000002),27,5,2,yes,x,5,x,1.481445,1,54,test1,1,1.4815343,-40
15,wht,f,19,r,1,(172.20000000000002, 0.0),21,5,2,yes,x,5,x,0.5813666,1,55,test1,1,0.581473,-40
15,wht,f,19,r,1,(1.0544208940658713e-14, 172.20000000000002),23,3,1,yes,x,5,x,1.3966333,1,56,test1,1,1.3968657,-42
15,wht,f,19,r,1,(-3.163262682197613e-14, -172.20000000000002),27,-3,11,no,m,6,x,1.2082191,0,57,test1,1,1.2083274,-42
15,wht,f,19,r,1,(121.76378772032346, -121.76378772032352),28,3,1,yes,x,5,x,1.283216,1,58,test1,1,1.2833048,-42
15,wht,f,19,r,1,(1.0544208940658713e-14, 172.20000000000002),23,5,2,yes,x,5,x,0.5520874,1,59,test1,1,0.5522662,-40
15,wht,f,19,r,1,(172.20000000000002, 0.0),21,25,4,no,m,6,m,1.0490396,1,60,test1,1,1.0491928,-40
15,wht,f,19,r,1,(-121.76378772032352, -121.76378772032348),26,-3,11,yes,x,5,x,0.8648722,1,61,test1,1,0.8649893,-48
15,wht,f,19,r,1,(-3.163262682197613e-14, -172.20000000000002),27,25,4,no,m,6,m,0.887155,1,62,test1,1,0.887387,-48
15,wht,f,19,r,1,(1.0544208940658713e-14, 172.20000000000002),23,25,4,yes,x,5,x,0.6013985,1,63,test1,1,0.6015781,-20
15,wht,f,19,r,1,(121.76378772032346, -121.76378772032352),28,-25,14,no,m,6,m,0.8050426,1,64,test1,1,0.8052487,-20
15,wht,f,19,r,1,(172.20000000000002, 0.0),21,7,3,yes,x,5,x,0.5995112,1,65,test1,1,0.5996235,-38
15,wht,f,19,r,1,(121.76378772032346, -121.76378772032352),28,25,4,yes,x,5,x,0.5389372,1,66,test1,1,0.5390453,-20
15,wht,f,19,r,1,(121.76378772032346, -121.76378772032352),28,-3,11,yes,x,5,m,0.8180836,0,67,test1,1,0.8182035,-48
15,wht,f,19,r,1,(-121.76378772032348, 121.76378772032349),24,-5,12,yes,x,5,m,1.2218961,0,68,test1,1,1.2221134,-50
15,wht,f,19,r,1,(121.76378772032346, -121.76378772032352),28,-25,14,yes,x,5,x,0.5312813,1,69,test1,1,0.5314889,-70
15,wht,f,19,r,1,(-3.163262682197613e-14, -172.20000000000002),27,3,1,yes,x,5,m,0.8091298,0,70,test1,1,0.8092354,-42
15,wht,f,19,r,1,(-121.76378772032348, 121.76378772032349),24,-7,13,yes,x,5,x,0.4556429,1,71,test1,1,0.4559077,-52
15,wht,f,19,r,1,(-121.76378772032348, 121.76378772032349),24,7,3,yes,x,5,x,0.5075107,1,72,test1,1,0.507675,-38
15,wht,f,19,r,1,(-172.20000000000002, 2.1088417881317425e-14),25,7,3,no,m,6,m,1.0353315,1,73,test1,1,1.0355628,-38
15,wht,f,19,r,1,(-3.163262682197613e-14, -172.20000000000002),27,3,1,no,m,6,x,0.5892883,0,74,test1,1,0.5894648,-38
15,wht,f,19,r,1,(172.20000000000002, 0.0),21,-5,12,yes,x,5,x,0.6683603,1,75,test1,1,0.668541,-50
15,wht,f,19,r,1,(121.76378772032346, -121.76378772032352),28,-7,13,yes,x,5,x,0.6558125,1,76,test1,1,0.6559573,-52
15,wht,f,19,r,1,(-121.76378772032352, -121.76378772032348),26,-25,14,yes,x,5,x,0.4967497,1,77,test1,1,0.4969577,-70
15,wht,f,19,r,1,(-121.76378772032352, -121.76378772032348),26,-7,13,no,m,6,m,1.1823551,1,78,test1,1,1.1825484,-70
15,wht,f,19,r,1,(121.76378772032346, -121.76378772032352),28,-3,11,no,m,6,m,1.0877989,1,79,test1,1,1.0878905,-70
15,wht,f,19,r,1,(-121.76378772032348, 121.76378772032349),24,-3,11,no,m,6,m,1.2753218,1,80,test1,1,1.2754439,-70
15,wht,f,19,r,1,(121.76378772032349, 121.76378772032349),22,-25,14,no,m,6,m,0.6890645,1,81,test1,1,0.6893018,-70
15,wht,f,19,r,1,(121.76378772032349, 121.76378772032349),22,-5,12,yes,x,5,x,0.6085251,1,82,test1,1,0.6086689,-50
15,wht,f,19,r,1,(-3.163262682197613e-14, -172.20000000000002),27,-7,13,yes,x,5,x,0.523998,1,83,test1,1,0.5240896,-52
15,wht,f,19,r,1,(-121.76378772032348, 121.76378772032349),24,-25,14,yes,x,5,x,0.4389932,1,84,test1,1,0.4391383,-70
15,wht,f,19,r,1,(121.76378772032346, -121.76378772032352),28,3,1,yes,x,5,x,1.4770283,1,85,test1,1,1.4771698,-42
15,wht,f,19,r,1,(172.20000000000002, 0.0),21,25,4,yes,x,5,x,0.4986014,1,86,test1,1,0.4987279,-20
15,wht,f,19,r,1,(121.76378772032349, 121.76378772032349),22,3,1,no,m,6,m,0.8282989,1,87,test1,1,0.8285208,-20
15,wht,f,19,r,1,(-3.163262682197613e-14, -172.20000000000002),27,-7,13,no,m,6,x,0.6717165,0,88,test1,1,0.6718607,-20
15,wht,f,19,r,1,(-172.20000000000002, 2.1088417881317425e-14),25,3,1,no,m,6,x,0.6211393,0,89,test1,1,0.6213246,-20
15,wht,f,19,r,1,(-121.76378772032352, -121.76378772032348),26,5,2,yes,x,5,m,0.8341424,0,90,test1,1,0.8342854,-40
15,wht,f,19,r,1,(1.0544208940658713e-14, 172.20000000000002),23,-5,12,yes,x,5,x,0.6694433,1,91,test1,1,0.6696485,-50
15,wht,f,19,r,1,(-121.76378772032348, 121.76378772032349),24,-7,13,no,m,6,x,0.7120073,0,92,test1,1,0.7123679,-50
15,wht,f,19,r,1,(172.20000000000002, 0.0),21,-3,11,yes,x,5,x,0.8678633,1,93,test1,1,0.8680266,-48
15,wht,f,19,r,1,(1.0544208940658713e-14, 172.20000000000002),23,-3,11,yes,x,5,m,0.9802464,0,94,test1,1,0.9804001,-48
15,wht,f,19,r,1,(-121.76378772032348, 121.76378772032349),24,25,4,yes,x,5,x,0.5064798,1,95,test1,1,0.5066227,-20
15,wht,f,19,r,1,(-121.76378772032352, -121.76378772032348),26,-7,13,yes,x,5,m,0.7647869,0,96,test1,1,0.7648758,-52
15,wht,f,19,r,1,(121.76378772032349, 121.76378772032349),22,-25,14,yes,x,5,x,0.6928451,1,1,test2,1,0.6929841,-70
15,wht,f,19,r,1,(1.0544208940658713e-14, 172.20000000000002),23,3,1,no,m,6,m,0.8756784,1,2,test2,1,0.8757894,-70
15,wht,f,19,r,1,(172.20000000000002, 0.0),21,7,3,no,m,6,x,0.8491571,0,3,test2,1,0.8493455,-70
15,wht,f,19,r,1,(-121.76378772032348, 121.76378772032349),24,-3,11,yes,x,5,x,1.1915145,1,4,test2,1,1.1916367,-48
15,wht,f,19,r,1,(172.20000000000002, 0.0),21,-25,14,no,m,6,m,0.9651933,1,5,test2,1,0.965568,-48
15,wht,f,19,r,1,(1.0544208940658713e-14, 172.20000000000002),23,5,2,no,m,6,m,1.1620255,1,6,test2,1,1.1622595,-48
15,wht,f,19,r,1,(172.20000000000002, 0.0),21,-3,11,no,m,6,m,0.9796355,1,7,test2,1,0.9798936,-48
15,wht,f,19,r,1,(121.76378772032349, 121.76378772032349),22,-3,11,yes,x,5,x,0.9594038,1,8,test2,1,0.96008,-48
15,wht,f,19,r,1,(-3.163262682197613e-14, -172.20000000000002),27,-3,11,yes,x,5,m,1.2171192,0,9,test2,1,1.2177351,-48
15,wht,f,19,r,1,(-172.20000000000002, 2.1088417881317425e-14),25,-25,14,no,m,6,m,1.1650685,1,10,test2,1,1.1655982,-48
15,wht,f,19,r,1,(121.76378772032349, 121.76378772032349),22,-5,12,yes,x,5,x,0.6465224,1,11,test2,1,0.6467092,-50
15,wht,f,19,r,1,(-121.76378772032352, -121.76378772032348),26,-3,11,yes,x,5,x,1.2925513,1,12,test2,1,1.2933116,-48
15,wht,f,19,r,1,(1.0544208940658713e-14, 172.20000000000002),23,-3,11,yes,x,5,x,0.8018557,1,13,test2,1,0.802069,-48
15,wht,f,19,r,1,(172.20000000000002, 0.0),21,7,3,yes,x,5,x,0.5483574,1,14,test2,1,0.5484799,-38
15,wht,f,19,r,1,(-172.20000000000002, 2.1088417881317425e-14),25,5,2,yes,x,5,x,0.6880288,1,15,test2,1,0.688334,-40
15,wht,f,19,r,1,(121.76378772032349, 121.76378772032349),22,7,3,yes,x,5,x,0.5654486,1,16,test2,1,0.5660875,-38
15,wht,f,19,r,1,(-172.20000000000002, 2.1088417881317425e-14),25,-7,13,no,m,6,m,0.7936594,1,17,test2,1,0.794152,-38
15,wht,f,19,r,1,(-3.163262682197613e-14, -172.20000000000002),27,25,4,yes,x,5,x,0.4858115,1,18,test2,1,0.4859104,-20
15,wht,f,19,r,1,(-121.76378772032348, 121.76378772032349),24,3,1,no,m,6,m,1.2306544,1,19,test2,1,1.2311488,-20
15,wht,f,19,r,1,(-121.76378772032352, -121.76378772032348),26,5,2,yes,x,5,x,0.8975049,1,20,test2,1,0.8977418,-40
15,wht,f,19,r,1,(-121.76378772032352, -121.76378772032348),26,7,3,no,m,6,m,1.008667,1,21,test2,1,1.0088311,-40
15,wht,f,19,r,1,(121.76378772032349, 121.76378772032349),22,3,1,yes,x,5,x,1.13795,1,22,test2,1,1.1382741,-42
15,wht,f,19,r,1,(1.0544208940658713e-14, 172.20000000000002),23,-7,13,yes,x,5,x,0.6460449,1,23,test2,1,0.6465258,-52
15,wht,f,19,r,1,(-121.76378772032352, -121.76378772032348),26,3,1,yes,x,5,x,0.9576559,1,24,test2,1,0.9580104,-42
15,wht,f,19,r,1,(172.20000000000002, 0.0),21,3,1,yes,x,5,m,1.696077,0,25,test2,1,1.6966012,-42
15,wht,f,19,r,1,(-121.76378772032352, -121.76378772032348),26,25,4,yes,x,5,x,0.5123104,1,26,test2,1,0.5124429,-20
15,wht,f,19,r,1,(121.76378772032346, -121.76378772032352),28,25,4,no,m,6,m,1.6437928,1,27,test2,1,1.6441033,-20
15,wht,f,19,r,1,(172.20000000000002, 0.0),21,5,2,yes,x,5,x,0.564097,1,28,test2,1,0.5644313,-40
15,wht,f,19,r,1,(-121.76378772032348, 121.76378772032349),24,-3,11,yes,x,5,m,0.9176369,0,29,test2,1,0.9178458,-48
15,wht,f,19,r,1,(-172.20000000000002, 2.1088417881317425e-14),25,7,3,yes,x,5,x,0.5403495,1,30,test2,1,0.5405904,-38
15,wht,f,19,r,1,(121.76378772032349, 121.76378772032349),22,25,4,yes,x,5,x,0.5384376,1,31,test2,1,0.5386049,-20
15,wht,f,19,r,1,(-121.76378772032352, -121.76378772032348),26,-7,13,yes,x,5,x,0.656156,1,32,test2,1,0.6562865,-52
15,wht,f,19,r,1,(-172.20000000000002, 2.1088417881317425e-14),25,-3,11,no,m,6,m,1.2817987,1,33,test2,1,1.281941,-52
15,wht,f,19,r,1,(1.0544208940658713e-14, 172.20000000000002),23,-25,14,yes,x,5,x,0.5641884,1,34,test2,1,0.5645591,-70
15,wht,f,19,r,1,(121.76378772032349, 121.76378772032349),22,-25,14,yes,x,5,x,0.4645456,1,35,test2,1,0.4647936,-70
15,wht,f,19,r,1,(1.0544208940658713e-14, 172.20000000000002),23,-5,12,no,m,6,m,0.8017145,1,36,test2,1,0.801813,-70
15,wht,f,19,r,1,(172.20000000000002, 0.0),21,5,2,no,m,6,m,0.8068487,1,37,test2,1,0.8069922,-70
15,wht,f,19,r,1,(121.76378772032346, -121.76378772032352),28,-5,12,no,m,6,m,0.6545052,1,38,test2,1,0.6548265,-70
15,wht,f,19,r,1,(-172.20000000000002, 2.1088417881317425e-14),25,-5,12,yes,x,5,x,0.5141602,1,39,test2,1,0.5142607,-50
15,wht,f,19,r,1,(1.0544208940658713e-14, 172.20000000000002),23,25,4,yes,x,5,x,0.4924211,1,40,test2,1,0.4925478,-20
15,wht,f,19,r,1,(121.76378772032349, 121.76378772032349),22,25,4,no,m,6,m,0.8740623,1,41,test2,1,0.8742017,-20
15,wht,f,19,r,1,(121.76378772032349, 121.76378772032349),22,25,4,yes,x,5,x,0.5098573,1,42,test2,1,0.510089,-20
15,wht,f,19,r,1,(1.0544208940658713e-14, 172.20000000000002),23,-25,14,yes,x,5,x,0.4475899,1,43,test2,1,0.447803,-70
15,wht,f,19,r,1,(-172.20000000000002, 2.1088417881317425e-14),25,25,4,no,m,6,m,0.8006074,1,44,test2,1,0.8007859,-70
15,wht,f,19,r,1,(-172.20000000000002, 2.1088417881317425e-14),25,5,2,yes,x,5,x,0.6673054,1,45,test2,1,0.6677197,-40
15,wht,f,19,r,1,(-172.20000000000002, 2.1088417881317425e-14),25,7,3,yes,x,5,x,0.5258062,1,46,test2,1,0.5259626,-38
15,wht,f,19,r,1,(1.0544208940658713e-14, 172.20000000000002),23,-25,14,no,m,6,m,0.7999416,1,47,test2,1,0.8001708,-38
15,wht,f,19,r,1,(-172.20000000000002, 2.1088417881317425e-14),25,-25,14,yes,x,5,x,0.617207,1,48,test2,1,0.6175029,-70
15,wht,f,19,r,1,(-3.163262682197613e-14, -172.20000000000002),27,-3,11,yes,x,5,m,0.9714178,0,49,test2,1,0.9715106,-48
15,wht,f,19,r,1,(-121.76378772032348, 121.76378772032349),24,5,2,yes,x,5,x,0.7800768,1,50,test2,1,0.7802016,-40
15,wht,f,19,r,1,(1.0544208940658713e-14, 172.20000000000002),23,7,3,yes,x,5,x,0.5693284,1,51,test2,1,0.5696081,-38
15,wht,f,19,r,1,(-121.76378772032352, -121.76378772032348),26,3,1,yes,x,5,m,0.7881759,0,52,test2,1,0.7888468,-42
15,wht,f,19,r,1,(121.76378772032349, 121.76378772032349),22,-7,13,yes,x,5,m,0.8648525,0,53,test2,1,0.864955,-52
15,wht,f,19,r,1,(1.0544208940658713e-14, 172.20000000000002),23,7,3,no,m,6,m,1.1354915,1,54,test2,1,1.1356112,-52
15,wht,f,19,r,1,(121.76378772032349, 121.76378772032349),22,5,2,yes,x,5,x,0.7498054,1,55,test2,1,0.7499536,-40
15,wht,f,19,r,1,(172.20000000000002, 0.0),21,-25,14,yes,x,5,x,0.5277851,1,56,test2,1,0.5281249,-70
15,wht,f,19,r,1,(-121.76378772032352, -121.76378772032348),26,25,4,yes,x,5,x,0.5005013,1,57,test2,1,0.5010309,-20
15,wht,f,19,r,1,(-121.76378772032348, 121.76378772032349),24,-5,12,yes,x,5,x,0.9333411,1,58,test2,1,0.9335553,-50
15,wht,f,19,r,1,(172.20000000000002, 0.0),21,-25,14,yes,x,5,x,0.4528804,1,59,test2,1,0.4531052,-70
15,wht,f,19,r,1,(-121.76378772032348, 121.76378772032349),24,25,4,no,m,6,m,0.9935119,1,60,test2,1,0.9936403,-70
15,wht,f,19,r,1,(121.76378772032349, 121.76378772032349),22,-7,13,yes,x,5,x,0.6007005,1,61,test2,1,0.6008818,-52
15,wht,f,19,r,1,(-172.20000000000002, 2.1088417881317425e-14),25,3,1,yes,x,5,x,0.9109937,1,62,test2,1,0.9116553,-42
15,wht,f,19,r,1,(-121.76378772032348, 121.76378772032349),24,3,1,yes,x,5,x,1.473346,1,63,test2,1,1.4734979,-42
15,wht,f,19,r,1,(1.0544208940658713e-14, 172.20000000000002),23,3,1,yes,x,5,x,1.1642815,1,64,test2,1,1.1648612,-42
15,wht,f,19,r,1,(172.20000000000002, 0.0),21,-3,11,yes,x,5,m,1.2556783,0,65,test2,1,1.2561823,-48
15,wht,f,19,r,1,(-172.20000000000002, 2.1088417881317425e-14),25,3,1,yes,x,5,x,0.6462136,1,66,test2,1,0.6463737,-42
15,wht,f,19,r,1,(121.76378772032349, 121.76378772032349),22,5,2,no,m,6,m,1.2500847,1,67,test2,1,1.2502711,-42
15,wht,f,19,r,1,(-121.76378772032352, -121.76378772032348),26,-5,12,yes,x,5,x,0.80531,1,68,test2,1,0.8054557,-50
15,wht,f,19,r,1,(-121.76378772032352, -121.76378772032348),26,5,2,no,m,6,m,1.1512532,1,69,test2,1,1.151497,-50
15,wht,f,19,r,1,(-121.76378772032348, 121.76378772032349),24,-25,14,yes,x,5,x,0.5817922,1,70,test2,1,0.5824566,-70
15,wht,f,19,r,1,(-121.76378772032348, 121.76378772032349),24,7,3,no,m,6,None,None,0,71,test2,1,1.9800783,-70
15,wht,f,19,r,1,(-121.76378772032348, 121.76378772032349),24,-25,14,no,m,6,m,0.9891172,1,72,test2,1,0.989693,-70
15,wht,f,19,r,1,(-3.163262682197613e-14, -172.20000000000002),27,-25,14,yes,x,5,x,0.5671213,1,73,test2,1,0.5672229,-70
15,wht,f,19,r,1,(172.20000000000002, 0.0),21,-5,12,yes,x,5,x,0.71693,1,74,test2,1,0.7170413,-50
15,wht,f,19,r,1,(121.76378772032346, -121.76378772032352),28,-5,12,yes,x,5,x,0.8526329,1,75,test2,1,0.852784,-50
15,wht,f,19,r,1,(-172.20000000000002, 2.1088417881317425e-14),25,25,4,yes,x,5,x,0.4927158,1,76,test2,1,0.4929406,-20
15,wht,f,19,r,1,(121.76378772032349, 121.76378772032349),22,3,1,yes,x,5,x,1.0622181,1,77,test2,1,1.0624982,-42
15,wht,f,19,r,1,(-121.76378772032352, -121.76378772032348),26,-3,11,no,m,6,m,0.9759704,1,78,test2,1,0.9761601,-42
15,wht,f,19,r,1,(121.76378772032346, -121.76378772032352),28,7,3,yes,x,5,x,0.7607225,1,79,test2,1,0.7612455,-38
15,wht,f,19,r,1,(1.0544208940658713e-14, 172.20000000000002),23,-3,11,no,m,6,m,0.8761617,1,80,test2,1,0.8763734,-38
15,wht,f,19,r,1,(-121.76378772032348, 121.76378772032349),24,-5,12,no,m,6,m,1.111411,1,81,test2,1,1.1117593,-38
15,wht,f,19,r,1,(172.20000000000002, 0.0),21,-5,12,no,m,6,m,0.8681277,1,82,test2,1,0.8682621,-38
15,wht,f,19,r,1,(-3.163262682197613e-14, -172.20000000000002),27,-7,13,yes,x,5,x,0.566243,1,83,test2,1,0.5664847,-52
15,wht,f,19,r,1,(-121.76378772032352, -121.76378772032348),26,-25,14,no,m,6,m,0.9208336,1,84,test2,1,0.9210493,-52
15,wht,f,19,r,1,(-121.76378772032352, -121.76378772032348),26,-5,12,no,m,6,m,1.1393346,1,85,test2,1,1.1397375,-52
15,wht,f,19,r,1,(-121.76378772032352, -121.76378772032348),26,7,3,yes,x,5,m,0.664321,0,86,test2,1,0.6647348,-38
15,wht,f,19,r,1,(-172.20000000000002, 2.1088417881317425e-14),25,25,4,yes,x,5,x,0.4765063,1,87,test2,1,0.476785,-20
15,wht,f,19,r,1,(121.76378772032349, 121.76378772032349),22,-3,11,no,m,6,m,1.2500067,1,88,test2,1,1.2503588,-20
15,wht,f,19,r,1,(121.76378772032346, -121.76378772032352),28,-25,14,yes,x,5,x,0.4957235,1,89,test2,1,0.4959412,-70
15,wht,f,19,r,1,(-3.163262682197613e-14, -172.20000000000002),27,7,3,no,m,6,m,0.9600243,1,90,test2,1,0.9604052,-70
15,wht,f,19,r,1,(-121.76378772032352, -121.76378772032348),26,3,1,no,m,6,m,0.954565,1,91,test2,1,0.9546657,-70
15,wht,f,19,r,1,(-121.76378772032348, 121.76378772032349),24,3,1,yes,x,5,x,0.9726615,1,92,test2,1,0.9736901,-42
15,wht,f,19,r,1,(172.20000000000002, 0.0),21,-7,13,no,m,6,m,1.1804904,1,93,test2,1,1.1807179,-42
15,wht,f,19,r,1,(-121.76378772032348, 121.76378772032349),24,-7,13,yes,x,5,x,0.6180894,1,94,test2,1,0.6186319,-52
15,wht,f,19,r,1,(172.20000000000002, 0.0),21,3,1,yes,x,5,None,None,0,95,test2,1,1.9802306,-42
15,wht,f,19,r,1,(-172.20000000000002, 2.1088417881317425e-14),25,5,2,no,m,6,m,1.33514,1,96,test2,1,1.3352579,-42
15,wht,f,19,r,1,(121.76378772032346, -121.76378772032352),28,-5,12,yes,x,5,None,None,0,1,test1,2,1.9802345,-50
15,wht,f,19,r,1,(-3.163262682197613e-14, -172.20000000000002),27,3,1,yes,x,5,None,None,0,2,test1,2,1.9800829,-42
15,wht,f,19,r,1,(-172.20000000000002, 2.1088417881317425e-14),25,-5,12,yes,x,5,None,None,0,3,test1,2,1.9800886,-50
15,wht,f,19,r,1,(-3.163262682197613e-14, -172.20000000000002),27,-5,12,yes,x,5,x,0.9956891,1,4,test1,2,0.9959895,-50
15,wht,f,19,r,1,(1.0544208940658713e-14, 172.20000000000002),23,-5,12,yes,x,5,x,0.5967089,1,5,test1,2,0.596979,-50
15,wht,f,19,r,1,(-3.163262682197613e-14, -172.20000000000002),27,-25,14,yes,x,5,x,0.5569038,1,6,test1,2,0.5571738,-70
15,wht,f,19,r,1,(172.20000000000002, 0.0),21,-7,13,yes,x,5,x,0.6555267,1,7,test1,2,0.6557089,-52
15,wht,f,19,r,1,(121.76378772032346, -121.76378772032352),28,25,4,yes,x,5,x,0.5087949,1,8,test1,2,0.5090531,-20
15,wht,f,19,r,1,(-172.20000000000002, 2.1088417881317425e-14),25,-25,14,yes,x,5,x,0.4467908,1,9,test1,2,0.4468918,-70
15,wht,f,19,r,1,(-3.163262682197613e-14, -172.20000000000002),27,-5,12,yes,x,5,x,0.6931737,1,10,test1,2,0.6932948,-50
15,wht,f,19,r,1,(-121.76378772032348, 121.76378772032349),24,5,2,no,m,6,m,1.0125693,1,11,test1,2,1.0127634,-50
15,wht,f,19,r,1,(172.20000000000002, 0.0),21,-7,13,yes,x,5,x,0.6484331,1,12,test1,2,0.648823,-52
15,wht,f,19,r,1,(121.76378772032349, 121.76378772032349),22,-7,13,no,m,6,m,0.8498936,1,13,test1,2,0.850167,-52
15,wht,f,19,r,1,(172.20000000000002, 0.0),21,3,1,no,m,6,m,0.5781465,1,14,test1,2,0.5782458,-52
15,wht,f,19,r,1,(-172.20000000000002, 2.1088417881317425e-14),25,-3,11,yes,x,5,x,0.7062341,1,15,test1,2,0.7068945,-48
15,wht,f,19,r,1,(121.76378772032346, -121.76378772032352),28,5,2,yes,x,5,x,0.6514011,1,16,test1,2,0.6515354,-40
15,wht,f,19,r,1,(-121.76378772032352, -121.76378772032348),26,7,3,yes,x,5,x,0.545686,1,17,test1,2,0.5460275,-38
15,wht,f,19,r,1,(-3.163262682197613e-14, -172.20000000000002),27,7,3,yes,x,5,x,0.64093,1,18,test1,2,0.6410422,-38
15,wht,f,19,r,1,(1.0544208940658713e-14, 172.20000000000002),23,7,3,yes,x,5,x,0.5461365,1,19,test1,2,0.5462549,-38
15,wht,f,19,r,1,(-3.163262682197613e-14, -172.20000000000002),27,-25,14,no,m,6,m,0.7105688,1,20,test1,2,0.71081,-38
15,wht,f,19,r,1,(121.76378772032346, -121.76378772032352),28,5,2,no,m,6,m,0.8392221,1,21,test1,2,0.8396649,-38
15,wht,f,19,r,1,(-121.76378772032348, 121.76378772032349),24,5,2,yes,x,5,m,0.7971722,0,22,test1,2,0.797271,-40
15,wht,f,19,r,1,(121.76378772032349, 121.76378772032349),22,-5,12,no,m,6,m,0.7190481,1,23,test1,2,0.7194967,-40
15,wht,f,19,r,1,(-3.163262682197613e-14, -172.20000000000002),27,5,2,yes,x,5,x,0.8995825,1,24,test1,2,0.8997136,-40
15,wht,f,19,r,1,(121.76378772032346, -121.76378772032352),28,7,3,no,m,6,m,1.2373763,1,25,test1,2,1.2376365,-40
15,wht,f,19,r,1,(-172.20000000000002, 2.1088417881317425e-14),25,-5,12,no,m,6,m,1.2253955,1,26,test1,2,1.2259074,-40
15,wht,f,19,r,1,(121.76378772032346, -121.76378772032352),28,-7,13,yes,x,5,x,0.6435621,1,27,test1,2,0.6437414,-52
15,wht,f,19,r,1,(-172.20000000000002, 2.1088417881317425e-14),25,-7,13,yes,x,5,x,0.5404409,1,28,test1,2,0.5409102,-52
15,wht,f,19,r,1,(121.76378772032349, 121.76378772032349),22,7,3,yes,x,5,x,0.8465984,1,29,test1,2,0.8467145,-38
15,wht,f,19,r,1,(1.0544208940658713e-14, 172.20000000000002),23,-7,13,yes,x,5,x,0.5793096,1,30,test1,2,0.5794069,-52
15,wht,f,19,r,1,(-3.163262682197613e-14, -172.20000000000002),27,7,3,yes,x,5,x,0.5829313,1,31,test1,2,0.5830539,-38
15,wht,f,19,r,1,(-172.20000000000002, 2.1088417881317425e-14),25,-7,13,yes,x,5,x,0.4855661,1,32,test1,2,0.4857961,-52
15,wht,f,19,r,1,(121.76378772032346, -121.76378772032352),28,-7,13,no,m,6,m,1.1118864,1,33,test1,2,1.1123022,-52
15,wht,f,19,r,1,(121.76378772032349, 121.76378772032349),22,-3,11,yes,x,5,m,0.723609,0,34,test1,2,0.7237221,-48
15,wht,f,19,r,1,(121.76378772032346, -121.76378772032352),28,3,1,no,m,6,m,0.9254398,1,35,test1,2,0.9255669,-48
15,wht,f,19,r,1,(-121.76378772032352, -121.76378772032348),26,25,4,no,m,6,x,1.4699762,0,36,test1,2,1.4701398,-48
15,wht,f,19,r,1,(-3.163262682197613e-14, -172.20000000000002),27,25,4,yes,x,5,x,0.5397147,1,37,test1,2,0.5398188,-20
15,wht,f,19,r,1,(-121.76378772032348, 121.76378772032349),24,25,4,yes,x,5,x,0.443615,1,38,test1,2,0.4438202,-20
15,wht,f,19,r,1,(-121.76378772032352, -121.76378772032348),26,-5,12,yes,x,5,x,1.0254524,1,39,test1,2,1.0256849,-50
15,wht,f,19,r,1,(121.76378772032346, -121.76378772032352),28,5,2,yes,x,5,x,0.7382498,1,40,test1,2,0.7384718,-40
15,wht,f,19,r,1,(-3.163262682197613e-14, -172.20000000000002),27,5,2,no,m,6,m,0.8468264,1,41,test1,2,0.8473676,-40
15,wht,f,19,r,1,(121.76378772032349, 121.76378772032349),22,7,3,no,m,6,m,0.6549798,1,42,test1,2,0.6552696,-40
15,wht,f,19,r,1,(1.0544208940658713e-14, 172.20000000000002),23,25,4,no,m,6,m,0.9005168,1,43,test1,2,0.9006195,-40
15,wht,f,19,r,1,(1.0544208940658713e-14, 172.20000000000002),23,-7,13,no,m,6,m,0.7194337,1,44,test1,2,0.7195345,-40
15,wht,f,19,r,1,(-121.76378772032348, 121.76378772032349),24,7,3,yes,x,5,x,1.0528125,1,45,test1,2,1.0529242,-38
15,wht,f,19,r,1,(121.76378772032346, -121.76378772032352),28,7,3,yes,x,5,x,0.7897779,1,46,test1,2,0.7905502,-38
15,wht,f,19,r,1,(172.20000000000002, 0.0),21,25,4,yes,x,5,x,0.4793701,1,47,test1,2,0.4794775,-20
15,wht,f,19,r,1,(-172.20000000000002, 2.1088417881317425e-14),25,-3,11,yes,x,5,x,0.9862683,1,48,test1,2,0.9864242,-48
15,wht,f,19,r,1,(-3.163262682197613e-14, -172.20000000000002),27,-5,12,no,m,6,m,0.8198126,1,49,test1,2,0.820208,-48
15,wht,f,19,r,1,(-121.76378772032352, -121.76378772032348),26,-25,14,yes,x,5,x,0.5159412,1,50,test1,2,0.5161309,-70
15,wht,f,19,r,1,(1.0544208940658713e-14, 172.20000000000002),23,5,2,yes,x,5,x,0.9807573,1,51,test1,2,0.9811681,-40
15,wht,f,19,r,1,(121.76378772032349, 121.76378772032349),22,5,2,yes,x,5,x,0.9145545,1,52,test1,2,0.9148459,-40
15,wht,f,19,r,1,(121.76378772032346, -121.76378772032352),28,-3,11,yes,x,5,x,1.129559,1,53,test1,2,1.1297842,-48
15,wht,f,19,r,1,(-3.163262682197613e-14, -172.20000000000002),27,5,2,yes,x,5,x,0.8351452,1,54,test1,2,0.8354504,-40
15,wht,f,19,r,1,(172.20000000000002, 0.0),21,5,2,yes,x,5,x,0.6358295,1,55,test1,2,0.6359337,-40
15,wht,f,19,r,1,(1.0544208940658713e-14, 172.20000000000002),23,3,1,yes,x,5,x,0.9429299,1,56,test1,2,0.9430298,-42
15,wht,f,19,r,1,(-3.163262682197613e-14, -172.20000000000002),27,-3,11,no,m,6,m,1.599713,1,57,test1,2,1.6000015,-42
15,wht,f,19,r,1,(121.76378772032346, -121.76378772032352),28,3,1,yes,x,5,m,1.4715188,0,58,test1,2,1.4721533,-42
15,wht,f,19,r,1,(1.0544208940658713e-14, 172.20000000000002),23,5,2,yes,x,5,x,0.6896969,1,59,test1,2,0.6900047,-40
15,wht,f,19,r,1,(172.20000000000002, 0.0),21,25,4,no,m,6,m,1.0389038,1,60,test1,2,1.0390167,-40
15,wht,f,19,r,1,(-121.76378772032352, -121.76378772032348),26,-3,11,yes,x,5,x,1.0581867,1,61,test1,2,1.0585023,-48
15,wht,f,19,r,1,(-3.163262682197613e-14, -172.20000000000002),27,25,4,no,m,6,m,1.0011591,1,62,test1,2,1.0016913,-48
15,wht,f,19,r,1,(1.0544208940658713e-14, 172.20000000000002),23,25,4,yes,x,5,x,0.5199967,1,63,test1,2,0.5204036,-20
15,wht,f,19,r,1,(121.76378772032346, -121.76378772032352),28,-25,14,no,m,6,m,1.0545699,1,64,test1,2,1.0548842,-20
15,wht,f,19,r,1,(172.20000000000002, 0.0),21,7,3,yes,x,5,x,0.7338776,1,65,test1,2,0.7341653,-38
15,wht,f,19,r,1,(121.76378772032346, -121.76378772032352),28,25,4,yes,x,5,x,0.5937728,1,66,test1,2,0.5943052,-20
15,wht,f,19,r,1,(121.76378772032346, -121.76378772032352),28,-3,11,yes,x,5,x,1.0040495,1,67,test1,2,1.0041642,-48
15,wht,f,19,r,1,(-121.76378772032348, 121.76378772032349),24,-5,12,yes,x,5,x,1.2698194,1,68,test1,2,1.2699235,-50
15,wht,f,19,r,1,(121.76378772032346, -121.76378772032352),28,-25,14,yes,x,5,x,0.5155871,1,69,test1,2,0.5157457,-70
15,wht,f,19,r,1,(-3.163262682197613e-14, -172.20000000000002),27,3,1,yes,x,5,m,0.8857272,0,70,test1,2,0.8859549,-42
15,wht,f,19,r,1,(-121.76378772032348, 121.76378772032349),24,-7,13,yes,x,5,x,0.482103,1,71,test1,2,0.4822218,-52
15,wht,f,19,r,1,(-121.76378772032348, 121.76378772032349),24,7,3,yes,x,5,x,0.5744862,1,72,test1,2,0.5747423,-38
15,wht,f,19,r,1,(-172.20000000000002, 2.1088417881317425e-14),25,7,3,no,m,6,m,0.8084735,1,73,test1,2,0.8090645,-38
15,wht,f,19,r,1,(-3.163262682197613e-14, -172.20000000000002),27,3,1,no,m,6,m,1.0895676,1,74,test1,2,1.0899687,-38
15,wht,f,19,r,1,(172.20000000000002, 0.0),21,-5,12,yes,x,5,x,0.6009388,1,75,test1,2,0.601038,-50
15,wht,f,19,r,1,(121.76378772032346, -121.76378772032352),28,-7,13,yes,x,5,x,0.6417684,1,76,test1,2,0.6419001,-52
15,wht,f,19,r,1,(-121.76378772032352, -121.76378772032348),26,-25,14,yes,x,5,x,0.5074587,1,77,test1,2,0.5077062,-70
15,wht,f,19,r,1,(-121.76378772032352, -121.76378772032348),26,-7,13,no,m,6,m,0.7173943,1,78,test1,2,0.7177208,-70
15,wht,f,19,r,1,(121.76378772032346, -121.76378772032352),28,-3,11,no,m,6,m,0.6614909,1,79,test1,2,0.6617281,-70
15,wht,f,19,r,1,(-121.76378772032348, 121.76378772032349),24,-3,11,no,m,6,m,0.5799057,1,80,test1,2,0.5800077,-70
15,wht,f,19,r,1,(121.76378772032349, 121.76378772032349),22,-25,14,no,m,6,m,0.6657363,1,81,test1,2,0.6658902,-70
15,wht,f,19,r,1,(121.76378772032349, 121.76378772032349),22,-5,12,yes,x,5,x,0.8230761,1,82,test1,2,0.8231748,-50
15,wht,f,19,r,1,(-3.163262682197613e-14, -172.20000000000002),27,-7,13,yes,x,5,x,0.5346927,1,83,test1,2,0.5349304,-52
15,wht,f,19,r,1,(-121.76378772032348, 121.76378772032349),24,-25,14,yes,x,5,x,0.4314807,1,84,test1,2,0.4316125,-70
15,wht,f,19,r,1,(121.76378772032346, -121.76378772032352),28,3,1,yes,x,5,m,1.4294638,0,85,test1,2,1.4296126,-42
15,wht,f,19,r,1,(172.20000000000002, 0.0),21,25,4,yes,x,5,x,0.4628291,1,86,test1,2,0.4630672,-20
15,wht,f,19,r,1,(121.76378772032349, 121.76378772032349),22,3,1,no,m,6,m,0.7108547,1,87,test1,2,0.71101,-20
15,wht,f,19,r,1,(-3.163262682197613e-14, -172.20000000000002),27,-7,13,no,m,6,m,0.9707247,1,88,test1,2,0.970824,-20
15,wht,f,19,r,1,(-172.20000000000002, 2.1088417881317425e-14),25,3,1,no,m,6,m,0.6151321,1,89,test1,2,0.6159447,-20
15,wht,f,19,r,1,(-121.76378772032352, -121.76378772032348),26,5,2,yes,x,5,m,0.8366962,0,90,test1,2,0.8369355,-40
15,wht,f,19,r,1,(1.0544208940658713e-14, 172.20000000000002),23,-5,12,yes,x,5,x,0.7205537,1,91,test1,2,0.7207579,-50
15,wht,f,19,r,1,(-121.76378772032348, 121.76378772032349),24,-7,13,no,m,6,m,0.7298483,1,92,test1,2,0.7303256,-50
15,wht,f,19,r,1,(172.20000000000002, 0.0),21,-3,11,yes,x,5,m,0.8184907,0,93,test1,2,0.8185932,-48
15,wht,f,19,r,1,(1.0544208940658713e-14, 172.20000000000002),23,-3,11,yes,x,5,m,0.9065792,0,94,test1,2,0.9068847,-48
15,wht,f,19,r,1,(-121.76378772032348, 121.76378772032349),24,25,4,yes,x,5,x,0.4961409,1,95,test1,2,0.4963006,-20
15,wht,f,19,r,1,(-121.76378772032352, -121.76378772032348),26,-7,13,yes,x,5,x,0.6258136,1,96,test1,2,0.6261507,-52
15,wht,f,19,r,1,(121.76378772032349, 121.76378772032349),22,-25,14,yes,x,5,x,0.5788858,1,1,test2,2,0.5791947,-70
15,wht,f,19,r,1,(1.0544208940658713e-14, 172.20000000000002),23,3,1,no,m,6,m,0.8342064,1,2,test2,2,0.8345254,-70
15,wht,f,19,r,1,(172.20000000000002, 0.0),21,7,3,no,m,6,x,0.6976657,0,3,test2,2,0.6979102,-70
15,wht,f,19,r,1,(-121.76378772032348, 121.76378772032349),24,-3,11,yes,x,5,m,0.9140871,0,4,test2,2,0.9143024,-48
15,wht,f,19,r,1,(172.20000000000002, 0.0),21,-25,14,no,m,6,x,1.1874776,0,5,test2,2,1.1876203,-48
15,wht,f,19,r,1,(1.0544208940658713e-14, 172.20000000000002),23,5,2,no,m,6,m,1.0512128,1,6,test2,2,1.0513225,-48
15,wht,f,19,r,1,(172.20000000000002, 0.0),21,-3,11,no,m,6,m,0.8745169,1,7,test2,2,0.8747637,-48
15,wht,f,19,r,1,(121.76378772032349, 121.76378772032349),22,-3,11,yes,x,5,m,1.4435261,0,8,test2,2,1.4436614,-48
15,wht,f,19,r,1,(-3.163262682197613e-14, -172.20000000000002),27,-3,11,yes,x,5,x,1.3147268,1,9,test2,2,1.3151634,-48
15,wht,f,19,r,1,(-172.20000000000002, 2.1088417881317425e-14),25,-25,14,no,m,6,x,0.7870987,0,10,test2,2,0.7873822,-48
15,wht,f,19,r,1,(121.76378772032349, 121.76378772032349),22,-5,12,yes,x,5,x,0.6022994,1,11,test2,2,0.6024214,-50
15,wht,f,19,r,1,(-121.76378772032352, -121.76378772032348),26,-3,11,yes,x,5,x,1.0331044,1,12,test2,2,1.0337839,-48
15,wht,f,19,r,1,(1.0544208940658713e-14, 172.20000000000002),23,-3,11,yes,x,5,x,0.6294979,1,13,test2,2,0.6297388,-48
15,wht,f,19,r,1,(172.20000000000002, 0.0),21,7,3,yes,x,5,x,0.6101653,1,14,test2,2,0.6104089,-38
15,wht,f,19,r,1,(-172.20000000000002, 2.1088417881317425e-14),25,5,2,yes,x,5,x,1.2355298,1,15,test2,2,1.2357094,-40
15,wht,f,19,r,1,(121.76378772032349, 121.76378772032349),22,7,3,yes,x,5,x,0.5680568,1,16,test2,2,0.568481,-38
15,wht,f,19,r,1,(-172.20000000000002, 2.1088417881317425e-14),25,-7,13,no,m,6,m,1.1620199,1,17,test2,2,1.1621893,-38
15,wht,f,19,r,1,(-3.163262682197613e-14, -172.20000000000002),27,25,4,yes,x,5,x,0.7375229,1,18,test2,2,0.7376804,-20
15,wht,f,19,r,1,(-121.76378772032348, 121.76378772032349),24,3,1,no,m,6,x,0.7012404,0,19,test2,2,0.7014814,-20
15,wht,f,19,r,1,(-121.76378772032352, -121.76378772032348),26,5,2,yes,x,5,x,0.8933642,1,20,test2,2,0.8936064,-40
15,wht,f,19,r,1,(-121.76378772032352, -121.76378772032348),26,7,3,no,m,6,m,1.1465182,1,21,test2,2,1.1467921,-40
15,wht,f,19,r,1,(121.76378772032349, 121.76378772032349),22,3,1,yes,x,5,m,0.7369835,0,22,test2,2,0.7370958,-42
15,wht,f,19,r,1,(1.0544208940658713e-14, 172.20000000000002),23,-7,13,yes,x,5,x,0.5194667,1,23,test2,2,0.5197888,-52
15,wht,f,19,r,1,(-121.76378772032352, -121.76378772032348),26,3,1,yes,x,5,m,0.8029815,0,24,test2,2,0.8030817,-42
15,wht,f,19,r,1,(172.20000000000002, 0.0),21,3,1,yes,x,5,x,1.1733315,1,25,test2,2,1.173454,-42
15,wht,f,19,r,1,(-121.76378772032352, -121.76378772032348),26,25,4,yes,x,5,x,0.5188445,1,26,test2,2,0.5190231,-20
15,wht,f,19,r,1,(121.76378772032346, -121.76378772032352),28,25,4,no,m,6,m,0.9951992,1,27,test2,2,0.9955718,-20
15,wht,f,19,r,1,(172.20000000000002, 0.0),21,5,2,yes,x,5,x,0.9363408,1,28,test2,2,0.9364723,-40
15,wht,f,19,r,1,(-121.76378772032348, 121.76378772032349),24,-3,11,yes,x,5,m,1.3932264,0,29,test2,2,1.3933499,-48
15,wht,f,19,r,1,(-172.20000000000002, 2.1088417881317425e-14),25,7,3,yes,x,5,x,0.5283093,1,30,test2,2,0.5284096,-38
15,wht,f,19,r,1,(121.76378772032349, 121.76378772032349),22,25,4,yes,x,5,x,0.5586455,1,31,test2,2,0.5589956,-20
15,wht,f,19,r,1,(-121.76378772032352, -121.76378772032348),26,-7,13,yes,x,5,x,1.0563578,1,32,test2,2,1.056481,-52
15,wht,f,19,r,1,(-172.20000000000002, 2.1088417881317425e-14),25,-3,11,no,m,6,m,0.8290872,1,33,test2,2,0.8292157,-52
15,wht,f,19,r,1,(1.0544208940658713e-14, 172.20000000000002),23,-25,14,yes,x,5,x,0.5085277,1,34,test2,2,0.5087734,-70
15,wht,f,19,r,1,(121.76378772032349, 121.76378772032349),22,-25,14,yes,x,5,x,0.5186021,1,35,test2,2,0.5189855,-70
15,wht,f,19,r,1,(1.0544208940658713e-14, 172.20000000000002),23,-5,12,no,m,6,m,0.8434571,1,36,test2,2,0.8435929,-70
15,wht,f,19,r,1,(172.20000000000002, 0.0),21,5,2,no,m,6,x,0.8783852,0,37,test2,2,0.8788205,-70
15,wht,f,19,r,1,(121.76378772032346, -121.76378772032352),28,-5,12,no,m,6,x,1.2260543,0,38,test2,2,1.2261735,-70
15,wht,f,19,r,1,(-172.20000000000002, 2.1088417881317425e-14),25,-5,12,yes,x,5,x,0.9831733,1,39,test2,2,0.9833008,-50
15,wht,f,19,r,1,(1.0544208940658713e-14, 172.20000000000002),23,25,4,yes,x,5,x,0.5466146,1,40,test2,2,0.5468361,-20
15,wht,f,19,r,1,(121.76378772032349, 121.76378772032349),22,25,4,no,m,6,m,0.8593204,1,41,test2,2,0.8594349,-20
15,wht,f,19,r,1,(121.76378772032349, 121.76378772032349),22,25,4,yes,x,5,x,0.5705151,1,42,test2,2,0.5708858,-20
15,wht,f,19,r,1,(1.0544208940658713e-14, 172.20000000000002),23,-25,14,yes,x,5,x,0.54343,1,43,test2,2,0.5436577,-70
15,wht,f,19,r,1,(-172.20000000000002, 2.1088417881317425e-14),25,25,4,no,m,6,m,0.6640015,1,44,test2,2,0.6641374,-70
15,wht,f,19,r,1,(-172.20000000000002, 2.1088417881317425e-14),25,5,2,yes,x,5,x,1.0355484,1,45,test2,2,1.0357642,-40
15,wht,f,19,r,1,(-172.20000000000002, 2.1088417881317425e-14),25,7,3,yes,x,5,x,0.8478777,1,46,test2,2,0.8482698,-38
15,wht,f,19,r,1,(1.0544208940658713e-14, 172.20000000000002),23,-25,14,no,m,6,m,0.8736033,1,47,test2,2,0.8737637,-38
15,wht,f,19,r,1,(-172.20000000000002, 2.1088417881317425e-14),25,-25,14,yes,x,5,x,0.5909124,1,48,test2,2,0.5912585,-70
15,wht,f,19,r,1,(-3.163262682197613e-14, -172.20000000000002),27,-3,11,yes,x,5,m,0.8181546,0,49,test2,2,0.8188106,-48
15,wht,f,19,r,1,(-121.76378772032348, 121.76378772032349),24,5,2,yes,x,5,x,0.9234529,1,50,test2,2,0.9236474,-40
15,wht,f,19,r,1,(1.0544208940658713e-14, 172.20000000000002),23,7,3,yes,x,5,x,0.5605001,1,51,test2,2,0.5606008,-38
15,wht,f,19,r,1,(-121.76378772032352, -121.76378772032348),26,3,1,yes,x,5,m,0.7649925,0,52,test2,2,0.7654073,-42
15,wht,f,19,r,1,(121.76378772032349, 121.76378772032349),22,-7,13,yes,x,5,x,0.610803,1,53,test2,2,0.6109053,-52
15,wht,f,19,r,1,(1.0544208940658713e-14, 172.20000000000002),23,7,3,no,m,6,m,0.9571978,1,54,test2,2,0.9574783,-52
15,wht,f,19,r,1,(121.76378772032349, 121.76378772032349),22,5,2,yes,x,5,x,0.7479325,1,55,test2,2,0.748335,-40
15,wht,f,19,r,1,(172.20000000000002, 0.0),21,-25,14,yes,x,5,x,0.5676103,1,56,test2,2,0.5678545,-70
15,wht,f,19,r,1,(-121.76378772032352, -121.76378772032348),26,25,4,yes,x,5,x,0.4799225,1,57,test2,2,0.48048,-20
15,wht,f,19,r,1,(-121.76378772032348, 121.76378772032349),24,-5,12,yes,x,5,x,0.9173672,1,58,test2,2,0.9174667,-50
15,wht,f,19,r,1,(172.20000000000002, 0.0),21,-25,14,yes,x,5,x,0.5302878,1,59,test2,2,0.5304343,-70
15,wht,f,19,r,1,(-121.76378772032348, 121.76378772032349),24,25,4,no,m,6,m,1.0028001,1,60,test2,2,1.0029295,-70
15,wht,f,19,r,1,(121.76378772032349, 121.76378772032349),22,-7,13,yes,x,5,x,0.4913749,1,61,test2,2,0.4914733,-52
15,wht,f,19,r,1,(-172.20000000000002, 2.1088417881317425e-14),25,3,1,yes,x,5,m,1.0998387,0,62,test2,2,1.1000717,-42
15,wht,f,19,r,1,(-121.76378772032348, 121.76378772032349),24,3,1,yes,x,5,m,1.0352621,0,63,test2,2,1.0354934,-42
15,wht,f,19,r,1,(1.0544208940658713e-14, 172.20000000000002),23,3,1,yes,x,5,x,1.0380958,1,64,test2,2,1.0382093,-42
15,wht,f,19,r,1,(172.20000000000002, 0.0),21,-3,11,yes,x,5,x,1.1202184,1,65,test2,2,1.1203526,-48
15,wht,f,19,r,1,(-172.20000000000002, 2.1088417881317425e-14),25,3,1,yes,x,5,x,1.0384156,1,66,test2,2,1.0390244,-42
15,wht,f,19,r,1,(121.76378772032349, 121.76378772032349),22,5,2,no,m,6,m,1.0341397,1,67,test2,2,1.034383,-42
15,wht,f,19,r,1,(-121.76378772032352, -121.76378772032348),26,-5,12,yes,x,5,x,0.8801131,1,68,test2,2,0.8805919,-50
15,wht,f,19,r,1,(-121.76378772032352, -121.76378772032348),26,5,2,no,m,6,m,1.1458682,1,69,test2,2,1.1461572,-50
15,wht,f,19,r,1,(-121.76378772032348, 121.76378772032349),24,-25,14,yes,x,5,x,0.7417746,1,70,test2,2,0.7423078,-70
15,wht,f,19,r,1,(-121.76378772032348, 121.76378772032349),24,7,3,no,m,6,m,0.7383174,1,71,test2,2,0.7385499,-70
15,wht,f,19,r,1,(-121.76378772032348, 121.76378772032349),24,-25,14,no,m,6,m,0.8177845,1,72,test2,2,0.817878,-70
15,wht,f,19,r,1,(-3.163262682197613e-14, -172.20000000000002),27,-25,14,yes,x,5,x,0.593157,1,73,test2,2,0.5934362,-70
15,wht,f,19,r,1,(172.20000000000002, 0.0),21,-5,12,yes,x,5,x,0.7893077,1,74,test2,2,0.7894065,-50
15,wht,f,19,r,1,(121.76378772032346, -121.76378772032352),28,-5,12,yes,x,5,x,0.9339513,1,75,test2,2,0.9346525,-50
15,wht,f,19,r,1,(-172.20000000000002, 2.1088417881317425e-14),25,25,4,yes,x,5,x,0.5389712,1,76,test2,2,0.5390951,-20
15,wht,f,19,r,1,(121.76378772032349, 121.76378772032349),22,3,1,yes,x,5,m,0.8637787,0,77,test2,2,0.8638768,-42
15,wht,f,19,r,1,(-121.76378772032352, -121.76378772032348),26,-3,11,no,m,6,m,0.8958026,1,78,test2,2,0.8959065,-42
15,wht,f,19,r,1,(121.76378772032346, -121.76378772032352),28,7,3,yes,x,5,x,0.5513964,1,79,test2,2,0.5516049,-38
15,wht,f,19,r,1,(1.0544208940658713e-14, 172.20000000000002),23,-3,11,no,m,6,m,1.4590885,1,80,test2,2,1.4591901,-38
15,wht,f,19,r,1,(-121.76378772032348, 121.76378772032349),24,-5,12,no,m,6,m,0.8482525,1,81,test2,2,0.8485354,-38
15,wht,f,19,r,1,(172.20000000000002, 0.0),21,-5,12,no,m,6,m,0.9179914,1,82,test2,2,0.9181048,-38
15,wht,f,19,r,1,(-3.163262682197613e-14, -172.20000000000002),27,-7,13,yes,x,5,x,0.6715332,1,83,test2,2,0.6718295,-52
15,wht,f,19,r,1,(-121.76378772032352, -121.76378772032348),26,-25,14,no,m,6,m,0.6863792,1,84,test2,2,0.6866012,-52
15,wht,f,19,r,1,(-121.76378772032352, -121.76378772032348),26,-5,12,no,m,6,m,0.9922849,1,85,test2,2,0.9925911,-52
15,wht,f,19,r,1,(-121.76378772032352, -121.76378772032348),26,7,3,yes,x,5,x,0.7264109,1,86,test2,2,0.7266543,-38
15,wht,f,19,r,1,(-172.20000000000002, 2.1088417881317425e-14),25,25,4,yes,x,5,x,0.7359523,1,87,test2,2,0.7360554,-20
15,wht,f,19,r,1,(121.76378772032349, 121.76378772032349),22,-3,11,no,m,6,m,0.6448437,1,88,test2,2,0.644972,-20
15,wht,f,19,r,1,(121.76378772032346, -121.76378772032352),28,-25,14,yes,x,5,x,0.5313409,1,89,test2,2,0.5316745,-70
15,wht,f,19,r,1,(-3.163262682197613e-14, -172.20000000000002),27,7,3,no,m,6,m,0.7304197,1,90,test2,2,0.7305235,-70
15,wht,f,19,r,1,(-121.76378772032352, -121.76378772032348),26,3,1,no,m,6,m,0.8240639,1,91,test2,2,0.8247161,-70
15,wht,f,19,r,1,(-121.76378772032348, 121.76378772032349),24,3,1,yes,x,5,m,1.1303841,0,92,test2,2,1.1305095,-42
15,wht,f,19,r,1,(172.20000000000002, 0.0),21,-7,13,no,m,6,x,0.9847319,0,93,test2,2,0.9850114,-42
15,wht,f,19,r,1,(-121.76378772032348, 121.76378772032349),24,-7,13,yes,x,5,x,0.5327395,1,94,test2,2,0.5330807,-52
15,wht,f,19,r,1,(172.20000000000002, 0.0),21,3,1,yes,x,5,m,0.8501058,0,95,test2,2,0.8503267,-42
15,wht,f,19,r,1,(-172.20000000000002, 2.1088417881317425e-14),25,5,2,no,m,6,x,1.0192959,0,96,test2,2,1.019576,-42
15,wht,f,19,r,1,(121.76378772032346, -121.76378772032352),28,-5,12,yes,x,5,x,0.894329,1,1,test1,3,0.8944461,-50
15,wht,f,19,r,1,(-3.163262682197613e-14, -172.20000000000002),27,3,1,yes,x,5,m,0.8767944,0,2,test1,3,0.8770357,-42
15,wht,f,19,r,1,(-172.20000000000002, 2.1088417881317425e-14),25,-5,12,yes,x,5,x,0.6146346,1,3,test1,3,0.6149202,-50
15,wht,f,19,r,1,(-3.163262682197613e-14, -172.20000000000002),27,-5,12,yes,x,5,x,0.8259214,1,4,test1,3,0.8260218,-50
15,wht,f,19,r,1,(1.0544208940658713e-14, 172.20000000000002),23,-5,12,yes,x,5,x,0.5778859,1,5,test1,3,0.5779842,-50
15,wht,f,19,r,1,(-3.163262682197613e-14, -172.20000000000002),27,-25,14,yes,x,5,x,0.7203768,1,6,test1,3,0.7208892,-70
15,wht,f,19,r,1,(172.20000000000002, 0.0),21,-7,13,yes,x,5,x,0.7286574,1,7,test1,3,0.7287883,-52
15,wht,f,19,r,1,(121.76378772032346, -121.76378772032352),28,25,4,yes,x,5,x,0.6137646,1,8,test1,3,0.6139485,-20
15,wht,f,19,r,1,(-172.20000000000002, 2.1088417881317425e-14),25,-25,14,yes,x,5,x,0.6936942,1,9,test1,3,0.6938331,-70
15,wht,f,19,r,1,(-3.163262682197613e-14, -172.20000000000002),27,-5,12,yes,x,5,x,0.7501486,1,10,test1,3,0.7502783,-50
15,wht,f,19,r,1,(-121.76378772032348, 121.76378772032349),24,5,2,no,m,6,m,1.0052738,1,11,test1,3,1.005493,-50
15,wht,f,19,r,1,(172.20000000000002, 0.0),21,-7,13,yes,x,5,x,0.5382828,1,12,test1,3,0.5385117,-52
15,wht,f,19,r,1,(121.76378772032349, 121.76378772032349),22,-7,13,no,m,6,m,0.7045053,1,13,test1,3,0.7046075,-52
15,wht,f,19,r,1,(172.20000000000002, 0.0),21,3,1,no,m,6,m,0.6604624,1,14,test1,3,0.6607866,-52
15,wht,f,19,r,1,(-172.20000000000002, 2.1088417881317425e-14),25,-3,11,yes,x,5,m,0.9311724,0,15,test1,3,0.9313359,-48
15,wht,f,19,r,1,(121.76378772032346, -121.76378772032352),28,5,2,yes,x,5,x,0.8663551,1,16,test1,3,0.8667728,-40
15,wht,f,19,r,1,(-121.76378772032352, -121.76378772032348),26,7,3,yes,x,5,x,0.9946823,1,17,test1,3,0.9947952,-38
15,wht,f,19,r,1,(-3.163262682197613e-14, -172.20000000000002),27,7,3,yes,x,5,x,0.8771463,1,18,test1,3,0.8773474,-38
15,wht,f,19,r,1,(1.0544208940658713e-14, 172.20000000000002),23,7,3,yes,x,5,x,0.6911659,1,19,test1,3,0.6912686,-38
15,wht,f,19,r,1,(-3.163262682197613e-14, -172.20000000000002),27,-25,14,no,m,6,m,1.0169291,1,20,test1,3,1.017405,-38
15,wht,f,19,r,1,(121.76378772032346, -121.76378772032352),28,5,2,no,m,6,m,0.9973541,1,21,test1,3,0.9974546,-38
15,wht,f,19,r,1,(-121.76378772032348, 121.76378772032349),24,5,2,yes,x,5,x,0.7212967,1,22,test1,3,0.7213986,-40
15,wht,f,19,r,1,(121.76378772032349, 121.76378772032349),22,-5,12,no,m,6,m,0.9889877,1,23,test1,3,0.9891197,-40
15,wht,f,19,r,1,(-3.163262682197613e-14, -172.20000000000002),27,5,2,yes,x,5,m,0.8528219,0,24,test1,3,0.852956,-40
15,wht,f,19,r,1,(121.76378772032346, -121.76378772032352),28,7,3,no,m,6,x,0.7381259,0,25,test1,3,0.7385266,-40
15,wht,f,19,r,1,(-172.20000000000002, 2.1088417881317425e-14),25,-5,12,no,m,6,m,1.4812777,1,26,test1,3,1.4814959,-40
15,wht,f,19,r,1,(121.76378772032346, -121.76378772032352),28,-7,13,yes,x,5,x,0.6205254,1,27,test1,3,0.6207533,-52
15,wht,f,19,r,1,(-172.20000000000002, 2.1088417881317425e-14),25,-7,13,yes,x,5,x,0.7250496,1,28,test1,3,0.7253845,-52
15,wht,f,19,r,1,(121.76378772032349, 121.76378772032349),22,7,3,yes,x,5,x,0.8985977,1,29,test1,3,0.8990367,-38
15,wht,f,19,r,1,(1.0544208940658713e-14, 172.20000000000002),23,-7,13,yes,x,5,x,0.5950456,1,30,test1,3,0.5956497,-52
15,wht,f,19,r,1,(-3.163262682197613e-14, -172.20000000000002),27,7,3,yes,x,5,x,0.8649089,1,31,test1,3,0.8653441,-38
15,wht,f,19,r,1,(-172.20000000000002, 2.1088417881317425e-14),25,-7,13,yes,x,5,x,0.86246,1,32,test1,3,0.8625642,-52
15,wht,f,19,r,1,(121.76378772032346, -121.76378772032352),28,-7,13,no,m,6,m,0.8431454,1,33,test1,3,0.8434017,-52
15,wht,f,19,r,1,(121.76378772032349, 121.76378772032349),22,-3,11,yes,x,5,m,0.6950426,0,34,test1,3,0.6957058,-48
15,wht,f,19,r,1,(121.76378772032346, -121.76378772032352),28,3,1,no,m,6,m,1.1173728,1,35,test1,3,1.1174845,-48
15,wht,f,19,r,1,(-121.76378772032352, -121.76378772032348),26,25,4,no,m,6,m,1.2671687,1,36,test1,3,1.2672936,-48
15,wht,f,19,r,1,(-3.163262682197613e-14, -172.20000000000002),27,25,4,yes,x,5,x,0.7638346,1,37,test1,3,0.764151,-20
15,wht,f,19,r,1,(-121.76378772032348, 121.76378772032349),24,25,4,yes,x,5,x,0.4588289,1,38,test1,3,0.458928,-20
15,wht,f,19,r,1,(-121.76378772032352, -121.76378772032348),26,-5,12,yes,x,5,x,0.8318697,1,39,test1,3,0.8321685,-50
15,wht,f,19,r,1,(121.76378772032346, -121.76378772032352),28,5,2,yes,x,5,m,0.9565526,0,40,test1,3,0.956668,-40
15,wht,f,19,r,1,(-3.163262682197613e-14, -172.20000000000002),27,5,2,no,m,6,x,0.7392902,0,41,test1,3,0.7394087,-40
15,wht,f,19,r,1,(121.76378772032349, 121.76378772032349),22,7,3,no,m,6,x,1.1401349,0,42,test1,3,1.1402352,-40
15,wht,f,19,r,1,(1.0544208940658713e-14, 172.20000000000002),23,25,4,no,m,6,m,1.0201665,1,43,test1,3,1.0204168,-40
15,wht,f,19,r,1,(1.0544208940658713e-14, 172.20000000000002),23,-7,13,no,m,6,m,0.8990338,1,44,test1,3,0.8992582,-40
15,wht,f,19,r,1,(-121.76378772032348, 121.76378772032349),24,7,3,yes,x,5,x,0.5577301,1,45,test1,3,0.5579842,-38
15,wht,f,19,r,1,(121.76378772032346, -121.76378772032352),28,7,3,yes,x,5,x,0.6343439,1,46,test1,3,0.6344558,-38
15,wht,f,19,r,1,(172.20000000000002, 0.0),21,25,4,yes,x,5,x,0.5496265,1,47,test1,3,0.5497243,-20
15,wht,f,19,r,1,(-172.20000000000002, 2.1088417881317425e-14),25,-3,11,yes,x,5,m,0.8154968,0,48,test1,3,0.8157653,-48
15,wht,f,19,r,1,(-3.163262682197613e-14, -172.20000000000002),27,-5,12,no,m,6,m,1.2013284,1,49,test1,3,1.2014289,-48
15,wht,f,19,r,1,(-121.76378772032352, -121.76378772032348),26,-25,14,yes,x,5,x,0.5407665,1,50,test1,3,0.5413815,-70
15,wht,f,19,r,1,(1.0544208940658713e-14, 172.20000000000002),23,5,2,yes,x,5,x,0.5583176,1,51,test1,3,0.5588343,-40
15,wht,f,19,r,1,(121.76378772032349, 121.76378772032349),22,5,2,yes,x,5,x,0.8210372,1,52,test1,3,0.8211697,-40
15,wht,f,19,r,1,(121.76378772032346, -121.76378772032352),28,-3,11,yes,x,5,m,0.9711394,0,53,test1,3,0.9714274,-48
15,wht,f,19,r,1,(-3.163262682197613e-14, -172.20000000000002),27,5,2,yes,x,5,x,0.7844438,1,54,test1,3,0.7846042,-40
15,wht,f,19,r,1,(172.20000000000002, 0.0),21,5,2,yes,x,5,x,1.4484973,1,55,test1,3,1.4486255,-40
15,wht,f,19,r,1,(1.0544208940658713e-14, 172.20000000000002),23,3,1,yes,x,5,m,1.4737101,0,56,test1,3,1.4738105,-42
15,wht,f,19,r,1,(-3.163262682197613e-14, -172.20000000000002),27,-3,11,no,m,6,m,1.3481292,1,57,test1,3,1.3482902,-42
15,wht,f,19,r,1,(121.76378772032346, -121.76378772032352),28,3,1,yes,x,5,x,1.0699512,1,58,test1,3,1.0700527,-42
15,wht,f,19,r,1,(1.0544208940658713e-14, 172.20000000000002),23,5,2,yes,x,5,x,0.5343553,1,59,test1,3,0.5344534,-40
15,wht,f,19,r,1,(172.20000000000002, 0.0),21,25,4,no,m,6,m,0.8807213,1,60,test1,3,0.8808872,-40
15,wht,f,19,r,1,(-121.76378772032352, -121.76378772032348),26,-3,11,yes,x,5,m,1.1291238,0,61,test1,3,1.1292767,-48
15,wht,f,19,r,1,(-3.163262682197613e-14, -172.20000000000002),27,25,4,no,m,6,m,0.7849407,1,62,test1,3,0.7853412,-48
15,wht,f,19,r,1,(1.0544208940658713e-14, 172.20000000000002),23,25,4,yes,x,5,x,0.5816744,1,63,test1,3,0.5823251,-20
15,wht,f,19,r,1,(121.76378772032346, -121.76378772032352),28,-25,14,no,m,6,m,0.7205796,1,64,test1,3,0.7209434,-20
15,wht,f,19,r,1,(172.20000000000002, 0.0),21,7,3,yes,x,5,x,0.5602296,1,65,test1,3,0.5606764,-38
15,wht,f,19,r,1,(121.76378772032346, -121.76378772032352),28,25,4,yes,x,5,x,0.586037,1,66,test1,3,0.5861778,-20
15,wht,f,19,r,1,(121.76378772032346, -121.76378772032352),28,-3,11,yes,x,5,x,0.98857,1,67,test1,3,0.9887341,-48
15,wht,f,19,r,1,(-121.76378772032348, 121.76378772032349),24,-5,12,yes,x,5,x,0.6639462,1,68,test1,3,0.6640509,-50
15,wht,f,19,r,1,(121.76378772032346, -121.76378772032352),28,-25,14,yes,x,5,x,0.4961451,1,69,test1,3,0.4962463,-70
15,wht,f,19,r,1,(-3.163262682197613e-14, -172.20000000000002),27,3,1,yes,x,5,m,1.2454247,0,70,test1,3,1.2456107,-42
15,wht,f,19,r,1,(-121.76378772032348, 121.76378772032349),24,-7,13,yes,x,5,x,0.4982222,1,71,test1,3,0.4988539,-52
15,wht,f,19,r,1,(-121.76378772032348, 121.76378772032349),24,7,3,yes,x,5,x,0.4880976,1,72,test1,3,0.4883611,-38
15,wht,f,19,r,1,(-172.20000000000002, 2.1088417881317425e-14),25,7,3,no,m,6,m,0.6825518,1,73,test1,3,0.6827467,-38
15,wht,f,19,r,1,(-3.163262682197613e-14, -172.20000000000002),27,3,1,no,m,6,m,0.9515196,1,74,test1,3,0.9516195,-38
15,wht,f,19,r,1,(172.20000000000002, 0.0),21,-5,12,yes,x,5,m,0.6453397,0,75,test1,3,0.6455271,-50
15,wht,f,19,r,1,(121.76378772032346, -121.76378772032352),28,-7,13,yes,x,5,x,0.6525898,1,76,test1,3,0.6527019,-52
15,wht,f,19,r,1,(-121.76378772032352, -121.76378772032348),26,-25,14,yes,x,5,x,0.5460223,1,77,test1,3,0.5464116,-70
15,wht,f,19,r,1,(-121.76378772032352, -121.76378772032348),26,-7,13,no,m,6,m,0.9386954,1,78,test1,3,0.9388107,-70
15,wht,f,19,r,1,(121.76378772032346, -121.76378772032352),28,-3,11,no,m,6,x,0.8354268,0,79,test1,3,0.8362609,-70
15,wht,f,19,r,1,(-121.76378772032348, 121.76378772032349),24,-3,11,no,m,6,m,0.6505619,1,80,test1,3,0.6506646,-70
15,wht,f,19,r,1,(121.76378772032349, 121.76378772032349),22,-25,14,no,m,6,m,0.9000085,1,81,test1,3,0.9003353,-70
15,wht,f,19,r,1,(121.76378772032349, 121.76378772032349),22,-5,12,yes,x,5,x,0.6004714,1,82,test1,3,0.6008778,-50
15,wht,f,19,r,1,(-3.163262682197613e-14, -172.20000000000002),27,-7,13,yes,x,5,x,0.678444,1,83,test1,3,0.6786739,-52
15,wht,f,19,r,1,(-121.76378772032348, 121.76378772032349),24,-25,14,yes,x,5,x,0.4399426,1,84,test1,3,0.4401066,-70
15,wht,f,19,r,1,(121.76378772032346, -121.76378772032352),28,3,1,yes,x,5,m,0.9473553,0,85,test1,3,0.947599,-42
15,wht,f,19,r,1,(172.20000000000002, 0.0),21,25,4,yes,x,5,x,0.4781428,1,86,test1,3,0.4784888,-20
15,wht,f,19,r,1,(121.76378772032349, 121.76378772032349),22,3,1,no,m,6,m,1.2331793,1,87,test1,3,1.2333894,-20
15,wht,f,19,r,1,(-3.163262682197613e-14, -172.20000000000002),27,-7,13,no,m,6,m,0.7699305,1,88,test1,3,0.770217,-20
15,wht,f,19,r,1,(-172.20000000000002, 2.1088417881317425e-14),25,3,1,no,m,6,m,0.7449194,1,89,test1,3,0.7452068,-20
15,wht,f,19,r,1,(-121.76378772032352, -121.76378772032348),26,5,2,yes,x,5,x,0.7636414,1,90,test1,3,0.7640408,-40
15,wht,f,19,r,1,(1.0544208940658713e-14, 172.20000000000002),23,-5,12,yes,x,5,x,0.5824554,1,91,test1,3,0.582819,-50
15,wht,f,19,r,1,(-121.76378772032348, 121.76378772032349),24,-7,13,no,m,6,m,0.7361073,1,92,test1,3,0.7363121,-50
15,wht,f,19,r,1,(172.20000000000002, 0.0),21,-3,11,yes,x,5,m,0.9486959,0,93,test1,3,0.9495236,-48
15,wht,f,19,r,1,(1.0544208940658713e-14, 172.20000000000002),23,-3,11,yes,x,5,x,0.646213,1,94,test1,3,0.6464382,-48
15,wht,f,19,r,1,(-121.76378772032348, 121.76378772032349),24,25,4,yes,x,5,x,0.52632,1,95,test1,3,0.5266968,-20
15,wht,f,19,r,1,(-121.76378772032352, -121.76378772032348),26,-7,13,yes,x,5,x,0.6410501,1,96,test1,3,0.6411761,-52
15,wht,f,19,r,1,(121.76378772032349, 121.76378772032349),22,-25,14,yes,x,5,x,0.5127416,1,1,test2,3,0.5128753,-70
15,wht,f,19,r,1,(1.0544208940658713e-14, 172.20000000000002),23,3,1,no,m,6,x,0.9287042,0,2,test2,3,0.9292759,-70
15,wht,f,19,r,1,(172.20000000000002, 0.0),21,7,3,no,m,6,m,0.901434,1,3,test2,3,0.9016948,-70
15,wht,f,19,r,1,(-121.76378772032348, 121.76378772032349),24,-3,11,yes,x,5,x,0.888629,1,4,test2,3,0.888787,-48
15,wht,f,19,r,1,(172.20000000000002, 0.0),21,-25,14,no,m,6,m,1.0557267,1,5,test2,3,1.0564353,-48
15,wht,f,19,r,1,(1.0544208940658713e-14, 172.20000000000002),23,5,2,no,m,6,m,0.8795544,1,6,test2,3,0.8797925,-48
15,wht,f,19,r,1,(172.20000000000002, 0.0),21,-3,11,no,m,6,m,0.9498608,1,7,test2,3,0.950151,-48
15,wht,f,19,r,1,(121.76378772032349, 121.76378772032349),22,-3,11,yes,x,5,x,0.72514,1,8,test2,3,0.7255359,-48
15,wht,f,19,r,1,(-3.163262682197613e-14, -172.20000000000002),27,-3,11,yes,x,5,x,0.8288189,1,9,test2,3,0.8291733,-48
15,wht,f,19,r,1,(-172.20000000000002, 2.1088417881317425e-14),25,-25,14,no,m,6,m,0.7850838,1,10,test2,3,0.7851874,-48
15,wht,f,19,r,1,(121.76378772032349, 121.76378772032349),22,-5,12,yes,x,5,x,0.5602969,1,11,test2,3,0.5604001,-50
15,wht,f,19,r,1,(-121.76378772032352, -121.76378772032348),26,-3,11,yes,x,5,m,0.8270768,0,12,test2,3,0.8276973,-48
15,wht,f,19,r,1,(1.0544208940658713e-14, 172.20000000000002),23,-3,11,yes,x,5,x,0.7281516,1,13,test2,3,0.7284744,-48
15,wht,f,19,r,1,(172.20000000000002, 0.0),21,7,3,yes,x,5,x,0.6041068,1,14,test2,3,0.6042062,-38
15,wht,f,19,r,1,(-172.20000000000002, 2.1088417881317425e-14),25,5,2,yes,x,5,x,0.7068151,1,15,test2,3,0.7072659,-40
15,wht,f,19,r,1,(121.76378772032349, 121.76378772032349),22,7,3,yes,x,5,x,0.5016933,1,16,test2,3,0.5021437,-38
15,wht,f,19,r,1,(-172.20000000000002, 2.1088417881317425e-14),25,-7,13,no,m,6,m,1.2889082,1,17,test2,3,1.289393,-38
15,wht,f,19,r,1,(-3.163262682197613e-14, -172.20000000000002),27,25,4,yes,x,5,x,0.5436695,1,18,test2,3,0.5438004,-20
15,wht,f,19,r,1,(-121.76378772032348, 121.76378772032349),24,3,1,no,m,6,m,0.667165,1,19,test2,3,0.6672676,-20
15,wht,f,19,r,1,(-121.76378772032352, -121.76378772032348),26,5,2,yes,x,5,x,1.0988576,1,20,test2,3,1.0990893,-40
15,wht,f,19,r,1,(-121.76378772032352, -121.76378772032348),26,7,3,no,m,6,m,0.7630211,1,21,test2,3,0.7632568,-40
15,wht,f,19,r,1,(121.76378772032349, 121.76378772032349),22,3,1,yes,x,5,x,0.591942,1,22,test2,3,0.5923647,-42
15,wht,f,19,r,1,(1.0544208940658713e-14, 172.20000000000002),23,-7,13,yes,x,5,x,0.4806432,1,23,test2,3,0.4807446,-52
15,wht,f,19,r,1,(-121.76378772032352, -121.76378772032348),26,3,1,yes,x,5,x,0.7837104,1,24,test2,3,0.7839494,-42
15,wht,f,19,r,1,(172.20000000000002, 0.0),21,3,1,yes,x,5,x,0.7405599,1,25,test2,3,0.740659,-42
15,wht,f,19,r,1,(-121.76378772032352, -121.76378772032348),26,25,4,yes,x,5,x,0.4646985,1,26,test2,3,0.4648303,-20
15,wht,f,19,r,1,(121.76378772032346, -121.76378772032352),28,25,4,no,m,6,m,0.8991599,1,27,test2,3,0.8993933,-20
15,wht,f,19,r,1,(172.20000000000002, 0.0),21,5,2,yes,x,5,x,0.680239,1,28,test2,3,0.6806764,-40
15,wht,f,19,r,1,(-121.76378772032348, 121.76378772032349),24,-3,11,yes,x,5,x,1.1862359,1,29,test2,3,1.1864782,-48
15,wht,f,19,r,1,(-172.20000000000002, 2.1088417881317425e-14),25,7,3,yes,x,5,x,0.4561633,1,30,test2,3,0.4564079,-38
15,wht,f,19,r,1,(121.76378772032349, 121.76378772032349),22,25,4,yes,x,5,x,0.4293857,1,31,test2,3,0.4294819,-20
15,wht,f,19,r,1,(-121.76378772032352, -121.76378772032348),26,-7,13,yes,x,5,x,0.8058784,1,32,test2,3,0.8061255,-52
15,wht,f,19,r,1,(-172.20000000000002, 2.1088417881317425e-14),25,-3,11,no,m,6,m,0.759301,1,33,test2,3,0.759687,-52
15,wht,f,19,r,1,(1.0544208940658713e-14, 172.20000000000002),23,-25,14,yes,x,5,x,0.4381613,1,34,test2,3,0.4386361,-70
15,wht,f,19,r,1,(121.76378772032349, 121.76378772032349),22,-25,14,yes,x,5,x,0.4799973,1,35,test2,3,0.4802993,-70
15,wht,f,19,r,1,(1.0544208940658713e-14, 172.20000000000002),23,-5,12,no,m,6,m,0.866113,1,36,test2,3,0.8662256,-70
15,wht,f,19,r,1,(172.20000000000002, 0.0),21,5,2,no,m,6,m,0.7460951,1,37,test2,3,0.7461944,-70
15,wht,f,19,r,1,(121.76378772032346, -121.76378772032352),28,-5,12,no,m,6,m,0.879392,1,38,test2,3,0.8794875,-70
15,wht,f,19,r,1,(-172.20000000000002, 2.1088417881317425e-14),25,-5,12,yes,x,5,x,0.6301902,1,39,test2,3,0.6302936,-50
15,wht,f,19,r,1,(1.0544208940658713e-14, 172.20000000000002),23,25,4,yes,x,5,x,0.46835,1,40,test2,3,0.4685084,-20
15,wht,f,19,r,1,(121.76378772032349, 121.76378772032349),22,25,4,no,m,6,m,0.6927789,1,41,test2,3,0.693097,-20
15,wht,f,19,r,1,(121.76378772032349, 121.76378772032349),22,25,4,yes,x,5,x,0.4856228,1,42,test2,3,0.4859079,-20
15,wht,f,19,r,1,(1.0544208940658713e-14, 172.20000000000002),23,-25,14,yes,x,5,x,0.4712727,1,43,test2,3,0.4716262,-70
15,wht,f,19,r,1,(-172.20000000000002, 2.1088417881317425e-14),25,25,4,no,m,6,m,0.8782251,1,44,test2,3,0.8785347,-70
15,wht,f,19,r,1,(-172.20000000000002, 2.1088417881317425e-14),25,5,2,yes,x,5,x,0.7285464,1,45,test2,3,0.7287632,-40
15,wht,f,19,r,1,(-172.20000000000002, 2.1088417881317425e-14),25,7,3,yes,x,5,x,0.6805722,1,46,test2,3,0.6809696,-38
15,wht,f,19,r,1,(1.0544208940658713e-14, 172.20000000000002),23,-25,14,no,m,6,m,0.6461829,1,47,test2,3,0.6469566,-38
15,wht,f,19,r,1,(-172.20000000000002, 2.1088417881317425e-14),25,-25,14,yes,x,5,x,0.4569199,1,48,test2,3,0.4570206,-70
15,wht,f,19,r,1,(-3.163262682197613e-14, -172.20000000000002),27,-3,11,yes,x,5,m,0.7444736,0,49,test2,3,0.7447478,-48
15,wht,f,19,r,1,(-121.76378772032348, 121.76378772032349),24,5,2,yes,x,5,x,0.7570311,1,50,test2,3,0.7572592,-40
15,wht,f,19,r,1,(1.0544208940658713e-14, 172.20000000000002),23,7,3,yes,x,5,x,0.5731244,1,51,test2,3,0.5733501,-38
15,wht,f,19,r,1,(-121.76378772032352, -121.76378772032348),26,3,1,yes,x,5,m,0.7021783,0,52,test2,3,0.7022782,-42
15,wht,f,19,r,1,(121.76378772032349, 121.76378772032349),22,-7,13,yes,x,5,x,0.537603,1,53,test2,3,0.5377067,-52
15,wht,f,19,r,1,(1.0544208940658713e-14, 172.20000000000002),23,7,3,no,m,6,m,0.9173726,1,54,test2,3,0.9176487,-52
15,wht,f,19,r,1,(121.76378772032349, 121.76378772032349),22,5,2,yes,x,5,x,0.8562866,1,55,test2,3,0.8564406,-40
15,wht,f,19,r,1,(172.20000000000002, 0.0),21,-25,14,yes,x,5,x,0.549692,1,56,test2,3,0.549886,-70
15,wht,f,19,r,1,(-121.76378772032352, -121.76378772032348),26,25,4,yes,x,5,x,0.4701923,1,57,test2,3,0.4704261,-20
15,wht,f,19,r,1,(-121.76378772032348, 121.76378772032349),24,-5,12,yes,x,5,x,0.8419475,1,58,test2,3,0.8420566,-50
15,wht,f,19,r,1,(172.20000000000002, 0.0),21,-25,14,yes,x,5,x,0.5155338,1,59,test2,3,0.5156533,-70
15,wht,f,19,r,1,(-121.76378772032348, 121.76378772032349),24,25,4,no,m,6,m,0.6823245,1,60,test2,3,0.6826452,-70
15,wht,f,19,r,1,(121.76378772032349, 121.76378772032349),22,-7,13,yes,x,5,x,0.4913042,1,61,test2,3,0.4914081,-52
15,wht,f,19,r,1,(-172.20000000000002, 2.1088417881317425e-14),25,3,1,yes,x,5,m,0.7876187,0,62,test2,3,0.7877406,-42
15,wht,f,19,r,1,(-121.76378772032348, 121.76378772032349),24,3,1,yes,x,5,x,1.0050504,1,63,test2,3,1.0054558,-42
15,wht,f,19,r,1,(1.0544208940658713e-14, 172.20000000000002),23,3,1,yes,x,5,x,1.0700282,1,64,test2,3,1.0704492,-42
15,wht,f,19,r,1,(172.20000000000002, 0.0),21,-3,11,yes,x,5,m,0.9732454,0,65,test2,3,0.973347,-48
15,wht,f,19,r,1,(-172.20000000000002, 2.1088417881317425e-14),25,3,1,yes,x,5,m,1.0111844,0,66,test2,3,1.0113099,-42
15,wht,f,19,r,1,(121.76378772032349, 121.76378772032349),22,5,2,no,m,6,m,1.2850894,1,67,test2,3,1.2851871,-42
15,wht,f,19,r,1,(-121.76378772032352, -121.76378772032348),26,-5,12,yes,x,5,x,0.9793216,1,68,test2,3,0.9795393,-50
15,wht,f,19,r,1,(-121.76378772032352, -121.76378772032348),26,5,2,no,m,6,m,1.2808687,1,69,test2,3,1.2810879,-50
15,wht,f,19,r,1,(-121.76378772032348, 121.76378772032349),24,-25,14,yes,x,5,x,0.5603108,1,70,test2,3,0.5609625,-70
15,wht,f,19,r,1,(-121.76378772032348, 121.76378772032349),24,7,3,no,m,6,m,0.8450522,1,71,test2,3,0.8451517,-70
15,wht,f,19,r,1,(-121.76378772032348, 121.76378772032349),24,-25,14,no,m,6,m,1.5635107,1,72,test2,3,1.5636415,-70
15,wht,f,19,r,1,(-3.163262682197613e-14, -172.20000000000002),27,-25,14,yes,x,5,x,0.6780602,1,73,test2,3,0.678272,-70
15,wht,f,19,r,1,(172.20000000000002, 0.0),21,-5,12,yes,x,5,x,0.7021246,1,74,test2,3,0.702348,-50
15,wht,f,19,r,1,(121.76378772032346, -121.76378772032352),28,-5,12,yes,x,5,x,0.7812539,1,75,test2,3,0.7813858,-50
15,wht,f,19,r,1,(-172.20000000000002, 2.1088417881317425e-14),25,25,4,yes,x,5,x,0.4689375,1,76,test2,3,0.4692165,-20
15,wht,f,19,r,1,(121.76378772032349, 121.76378772032349),22,3,1,yes,x,5,m,0.8543304,0,77,test2,3,0.8544262,-42
15,wht,f,19,r,1,(-121.76378772032352, -121.76378772032348),26,-3,11,no,m,6,m,1.0444949,1,78,test2,3,1.0446427,-42
15,wht,f,19,r,1,(121.76378772032346, -121.76378772032352),28,7,3,yes,x,5,x,0.7558522,1,79,test2,3,0.756154,-38
15,wht,f,19,r,1,(1.0544208940658713e-14, 172.20000000000002),23,-3,11,no,m,6,m,0.7589298,1,80,test2,3,0.7592138,-38
15,wht,f,19,r,1,(-121.76378772032348, 121.76378772032349),24,-5,12,no,m,6,x,1.263136,0,81,test2,3,1.2633769,-38
15,wht,f,19,r,1,(172.20000000000002, 0.0),21,-5,12,no,m,6,m,0.7084976,1,82,test2,3,0.7086851,-38
15,wht,f,19,r,1,(-3.163262682197613e-14, -172.20000000000002),27,-7,13,yes,x,5,x,0.5962281,1,83,test2,3,0.5963903,-52
15,wht,f,19,r,1,(-121.76378772032352, -121.76378772032348),26,-25,14,no,m,6,m,1.3749429,1,84,test2,3,1.3752699,-52
15,wht,f,19,r,1,(-121.76378772032352, -121.76378772032348),26,-5,12,no,m,6,m,1.7338434,1,85,test2,3,1.7339563,-52
15,wht,f,19,r,1,(-121.76378772032352, -121.76378772032348),26,7,3,yes,x,5,x,0.6368329,1,86,test2,3,0.6369673,-38
15,wht,f,19,r,1,(-172.20000000000002, 2.1088417881317425e-14),25,25,4,yes,x,5,x,0.5246421,1,87,test2,3,0.5248198,-20
15,wht,f,19,r,1,(121.76378772032349, 121.76378772032349),22,-3,11,no,m,6,m,0.6460347,1,88,test2,3,0.6462438,-20
15,wht,f,19,r,1,(121.76378772032346, -121.76378772032352),28,-25,14,yes,x,5,x,0.5011487,1,89,test2,3,0.5012447,-70
15,wht,f,19,r,1,(-3.163262682197613e-14, -172.20000000000002),27,7,3,no,m,6,x,1.0369409,0,90,test2,3,1.0371597,-70
15,wht,f,19,r,1,(-121.76378772032352, -121.76378772032348),26,3,1,no,m,6,m,0.8479023,1,91,test2,3,0.8481406,-70
15,wht,f,19,r,1,(-121.76378772032348, 121.76378772032349),24,3,1,yes,x,5,x,0.712301,1,92,test2,3,0.7124018,-42
15,wht,f,19,r,1,(172.20000000000002, 0.0),21,-7,13,no,m,6,m,0.8312221,1,93,test2,3,0.8315257,-42
15,wht,f,19,r,1,(-121.76378772032348, 121.76378772032349),24,-7,13,yes,x,5,x,0.735348,1,94,test2,3,0.7355481,-52
15,wht,f,19,r,1,(172.20000000000002, 0.0),21,3,1,yes,x,5,x,0.9596227,1,95,test2,3,0.9598559,-42
15,wht,f,19,r,1,(-172.20000000000002, 2.1088417881317425e-14),25,5,2,no,m,6,m,0.7431388,1,96,test2,3,0.7432372,-42
15,wht,f,19,r,1,(121.76378772032346, -121.76378772032352),28,-5,12,yes,x,5,None,None,0,1,test1,4,1.9801267,-50
15,wht,f,19,r,1,(-3.163262682197613e-14, -172.20000000000002),27,3,1,yes,x,5,None,None,0,2,test1,4,1.9800946,-42
15,wht,f,19,r,1,(-172.20000000000002, 2.1088417881317425e-14),25,-5,12,yes,x,5,None,None,0,3,test1,4,1.9800867,-50
15,wht,f,19,r,1,(-3.163262682197613e-14, -172.20000000000002),27,-5,12,yes,x,5,None,None,0,4,test1,4,1.9801773,-50
15,wht,f,19,r,1,(1.0544208940658713e-14, 172.20000000000002),23,-5,12,yes,x,5,None,None,0,5,test1,4,1.9800974,-50
15,wht,f,19,r,1,(-3.163262682197613e-14, -172.20000000000002),27,-25,14,yes,x,5,x,0.4973791,1,6,test1,4,0.4975049,-70
15,wht,f,19,r,1,(172.20000000000002, 0.0),21,-7,13,yes,x,5,x,0.9858546,1,7,test1,4,0.9859799,-52
15,wht,f,19,r,1,(121.76378772032346, -121.76378772032352),28,25,4,yes,x,5,x,0.4808376,1,8,test1,4,0.4809356,-20
15,wht,f,19,r,1,(-172.20000000000002, 2.1088417881317425e-14),25,-25,14,yes,x,5,x,0.4207516,1,9,test1,4,0.420918,-70
15,wht,f,19,r,1,(-3.163262682197613e-14, -172.20000000000002),27,-5,12,yes,x,5,x,0.530269,1,10,test1,4,0.530513,-50
15,wht,f,19,r,1,(-121.76378772032348, 121.76378772032349),24,5,2,no,m,6,m,0.7636728,1,11,test1,4,0.7642347,-50
15,wht,f,19,r,1,(172.20000000000002, 0.0),21,-7,13,yes,x,5,x,0.8174779,1,12,test1,4,0.8176767,-52
15,wht,f,19,r,1,(121.76378772032349, 121.76378772032349),22,-7,13,no,m,6,m,0.7176682,1,13,test1,4,0.7177672,-52
15,wht,f,19,r,1,(172.20000000000002, 0.0),21,3,1,no,m,6,m,0.7830018,1,14,test1,4,0.7832304,-52
15,wht,f,19,r,1,(-172.20000000000002, 2.1088417881317425e-14),25,-3,11,yes,x,5,x,0.5520668,1,15,test1,4,0.5522394,-48
15,wht,f,19,r,1,(121.76378772032346, -121.76378772032352),28,5,2,yes,x,5,x,0.5932467,1,16,test1,4,0.5935419,-40
15,wht,f,19,r,1,(-121.76378772032352, -121.76378772032348),26,7,3,yes,x,5,x,0.5876214,1,17,test1,4,0.5877429,-38
15,wht,f,19,r,1,(-3.163262682197613e-14, -172.20000000000002),27,7,3,yes,x,5,x,0.4659597,1,18,test1,4,0.4661375,-38
15,wht,f,19,r,1,(1.0544208940658713e-14, 172.20000000000002),23,7,3,yes,x,5,x,0.5409247,1,19,test1,4,0.5412059,-38
15,wht,f,19,r,1,(-3.163262682197613e-14, -172.20000000000002),27,-25,14,no,m,6,x,0.9643087,0,20,test1,4,0.964645,-38
15,wht,f,19,r,1,(121.76378772032346, -121.76378772032352),28,5,2,no,m,6,x,0.8371676,0,21,test1,4,0.8375938,-38
15,wht,f,19,r,1,(-121.76378772032348, 121.76378772032349),24,5,2,yes,x,5,x,0.6065325,1,22,test1,4,0.6066461,-40
15,wht,f,19,r,1,(121.76378772032349, 121.76378772032349),22,-5,12,no,m,6,x,1.2627288,0,23,test1,4,1.2628326,-40
15,wht,f,19,r,1,(-3.163262682197613e-14, -172.20000000000002),27,5,2,yes,x,5,x,0.981011,1,24,test1,4,0.9812391,-40
15,wht,f,19,r,1,(121.76378772032346, -121.76378772032352),28,7,3,no,m,6,m,0.8208721,1,25,test1,4,0.8209862,-40
15,wht,f,19,r,1,(-172.20000000000002, 2.1088417881317425e-14),25,-5,12,no,m,6,m,1.0722508,1,26,test1,4,1.0724567,-40
15,wht,f,19,r,1,(121.76378772032346, -121.76378772032352),28,-7,13,yes,x,5,x,0.5724265,1,27,test1,4,0.5725693,-52
15,wht,f,19,r,1,(-172.20000000000002, 2.1088417881317425e-14),25,-7,13,yes,x,5,x,0.5357821,1,28,test1,4,0.5362052,-52
15,wht,f,19,r,1,(121.76378772032349, 121.76378772032349),22,7,3,yes,x,5,x,0.7053495,1,29,test1,4,0.7055596,-38
15,wht,f,19,r,1,(1.0544208940658713e-14, 172.20000000000002),23,-7,13,yes,x,5,x,0.4870912,1,30,test1,4,0.4874448,-52
15,wht,f,19,r,1,(-3.163262682197613e-14, -172.20000000000002),27,7,3,yes,x,5,m,1.0250686,0,31,test1,4,1.0253589,-38
15,wht,f,19,r,1,(-172.20000000000002, 2.1088417881317425e-14),25,-7,13,yes,x,5,x,0.5429121,1,32,test1,4,0.5432068,-52
15,wht,f,19,r,1,(121.76378772032346, -121.76378772032352),28,-7,13,no,m,6,m,0.7246186,1,33,test1,4,0.7251765,-52
15,wht,f,19,r,1,(121.76378772032349, 121.76378772032349),22,-3,11,yes,x,5,m,0.8850826,0,34,test1,4,0.8851839,-48
15,wht,f,19,r,1,(121.76378772032346, -121.76378772032352),28,3,1,no,m,6,m,1.3445757,1,35,test1,4,1.3447123,-48
15,wht,f,19,r,1,(-121.76378772032352, -121.76378772032348),26,25,4,no,m,6,m,0.8172456,1,36,test1,4,0.8173685,-48
15,wht,f,19,r,1,(-3.163262682197613e-14, -172.20000000000002),27,25,4,yes,x,5,x,0.478338,1,37,test1,4,0.4784403,-20
15,wht,f,19,r,1,(-121.76378772032348, 121.76378772032349),24,25,4,yes,x,5,x,0.4626925,1,38,test1,4,0.463057,-20
15,wht,f,19,r,1,(-121.76378772032352, -121.76378772032348),26,-5,12,yes,x,5,x,0.8796467,1,39,test1,4,0.8797603,-50
15,wht,f,19,r,1,(121.76378772032346, -121.76378772032352),28,5,2,yes,x,5,x,0.681472,1,40,test1,4,0.6818291,-40
15,wht,f,19,r,1,(-3.163262682197613e-14, -172.20000000000002),27,5,2,no,m,6,m,0.793525,1,41,test1,4,0.7937691,-40
15,wht,f,19,r,1,(121.76378772032349, 121.76378772032349),22,7,3,no,m,6,m,0.8897512,1,42,test1,4,0.8899778,-40
15,wht,f,19,r,1,(1.0544208940658713e-14, 172.20000000000002),23,25,4,no,m,6,x,0.6892281,0,43,test1,4,0.689447,-40
15,wht,f,19,r,1,(1.0544208940658713e-14, 172.20000000000002),23,-7,13,no,m,6,m,0.8018947,1,44,test1,4,0.8021868,-40
15,wht,f,19,r,1,(-121.76378772032348, 121.76378772032349),24,7,3,yes,x,5,x,0.5134099,1,45,test1,4,0.513656,-38
15,wht,f,19,r,1,(121.76378772032346, -121.76378772032352),28,7,3,yes,x,5,x,0.961305,1,46,test1,4,0.9614116,-38
15,wht,f,19,r,1,(172.20000000000002, 0.0),21,25,4,yes,x,5,x,0.4620727,1,47,test1,4,0.4623559,-20
15,wht,f,19,r,1,(-172.20000000000002, 2.1088417881317425e-14),25,-3,11,yes,x,5,m,0.7616418,0,48,test1,4,0.7618731,-48
15,wht,f,19,r,1,(-3.163262682197613e-14, -172.20000000000002),27,-5,12,no,m,6,x,0.8679597,0,49,test1,4,0.8681739,-48
15,wht,f,19,r,1,(-121.76378772032352, -121.76378772032348),26,-25,14,yes,x,5,x,0.5264176,1,50,test1,4,0.5265297,-70
15,wht,f,19,r,1,(1.0544208940658713e-14, 172.20000000000002),23,5,2,yes,x,5,x,0.5832689,1,51,test1,4,0.5837876,-40
15,wht,f,19,r,1,(121.76378772032349, 121.76378772032349),22,5,2,yes,x,5,x,0.7327189,1,52,test1,4,0.7328767,-40
15,wht,f,19,r,1,(121.76378772032346, -121.76378772032352),28,-3,11,yes,x,5,m,0.8531535,0,53,test1,4,0.8533847,-48
15,wht,f,19,r,1,(-3.163262682197613e-14, -172.20000000000002),27,5,2,yes,x,5,x,0.9409995,1,54,test1,4,0.9413606,-40
15,wht,f,19,r,1,(172.20000000000002, 0.0),21,5,2,yes,x,5,x,0.6911658,1,55,test1,4,0.6914283,-40
15,wht,f,19,r,1,(1.0544208940658713e-14, 172.20000000000002),23,3,1,yes,x,5,x,0.5594145,1,56,test1,4,0.5595404,-42
15,wht,f,19,r,1,(-3.163262682197613e-14, -172.20000000000002),27,-3,11,no,m,6,m,0.9302232,1,57,test1,4,0.9305264,-42
15,wht,f,19,r,1,(121.76378772032346, -121.76378772032352),28,3,1,yes,x,5,x,0.8325849,1,58,test1,4,0.8328299,-42
15,wht,f,19,r,1,(1.0544208940658713e-14, 172.20000000000002),23,5,2,yes,x,5,x,0.5274697,1,59,test1,4,0.527689,-40
15,wht,f,19,r,1,(172.20000000000002, 0.0),21,25,4,no,m,6,m,1.086097,1,60,test1,4,1.0863072,-40
15,wht,f,19,r,1,(-121.76378772032352, -121.76378772032348),26,-3,11,yes,x,5,m,1.1544846,0,61,test1,4,1.1545887,-48
15,wht,f,19,r,1,(-3.163262682197613e-14, -172.20000000000002),27,25,4,no,m,6,x,1.2742909,0,62,test1,4,1.2743891,-48
15,wht,f,19,r,1,(1.0544208940658713e-14, 172.20000000000002),23,25,4,yes,x,5,x,0.5358721,1,63,test1,4,0.5359712,-20
15,wht,f,19,r,1,(121.76378772032346, -121.76378772032352),28,-25,14,no,m,6,m,0.6908974,1,64,test1,4,0.6910124,-20
15,wht,f,19,r,1,(172.20000000000002, 0.0),21,7,3,yes,x,5,x,0.6160467,1,65,test1,4,0.6161802,-38
15,wht,f,19,r,1,(121.76378772032346, -121.76378772032352),28,25,4,yes,x,5,x,0.5008235,1,66,test1,4,0.5009831,-20
15,wht,f,19,r,1,(121.76378772032346, -121.76378772032352),28,-3,11,yes,x,5,x,0.7933283,1,67,test1,4,0.7934734,-48
15,wht,f,19,r,1,(-121.76378772032348, 121.76378772032349),24,-5,12,yes,x,5,x,0.8711853,1,68,test1,4,0.8718801,-50
15,wht,f,19,r,1,(121.76378772032346, -121.76378772032352),28,-25,14,yes,x,5,x,0.4571026,1,69,test1,4,0.4572165,-70
15,wht,f,19,r,1,(-3.163262682197613e-14, -172.20000000000002),27,3,1,yes,x,5,m,1.0123921,0,70,test1,4,1.0126339,-42
15,wht,f,19,r,1,(-121.76378772032348, 121.76378772032349),24,-7,13,yes,x,5,x,0.5074508,1,71,test1,4,0.507561,-52
15,wht,f,19,r,1,(-121.76378772032348, 121.76378772032349),24,7,3,yes,x,5,x,0.5639081,1,72,test1,4,0.5645086,-38
15,wht,f,19,r,1,(-172.20000000000002, 2.1088417881317425e-14),25,7,3,no,m,6,x,0.8470658,0,73,test1,4,0.8471687,-38
15,wht,f,19,r,1,(-3.163262682197613e-14, -172.20000000000002),27,3,1,no,m,6,m,1.0803248,1,74,test1,4,1.0804564,-38
15,wht,f,19,r,1,(172.20000000000002, 0.0),21,-5,12,yes,x,5,x,0.5960407,1,75,test1,4,0.5963165,-50
15,wht,f,19,r,1,(121.76378772032346, -121.76378772032352),28,-7,13,yes,x,5,x,0.5106994,1,76,test1,4,0.510895,-52
15,wht,f,19,r,1,(-121.76378772032352, -121.76378772032348),26,-25,14,yes,x,5,x,0.4450286,1,77,test1,4,0.4452332,-70
15,wht,f,19,r,1,(-121.76378772032352, -121.76378772032348),26,-7,13,no,m,6,m,0.7698586,1,78,test1,4,0.7699589,-70
15,wht,f,19,r,1,(121.76378772032346, -121.76378772032352),28,-3,11,no,m,6,m,1.2224649,1,79,test1,4,1.2226347,-70
15,wht,f,19,r,1,(-121.76378772032348, 121.76378772032349),24,-3,11,no,m,6,m,0.7464326,1,80,test1,4,0.7465835,-70
15,wht,f,19,r,1,(121.76378772032349, 121.76378772032349),22,-25,14,no,m,6,m,0.723983,1,81,test1,4,0.7242603,-70
15,wht,f,19,r,1,(121.76378772032349, 121.76378772032349),22,-5,12,yes,x,5,x,0.6071114,1,82,test1,4,0.6075336,-50
15,wht,f,19,r,1,(-3.163262682197613e-14, -172.20000000000002),27,-7,13,yes,x,5,x,0.6113948,1,83,test1,4,0.6116034,-52
15,wht,f,19,r,1,(-121.76378772032348, 121.76378772032349),24,-25,14,yes,x,5,x,0.4608897,1,84,test1,4,0.4610865,-70
15,wht,f,19,r,1,(121.76378772032346, -121.76378772032352),28,3,1,yes,x,5,x,1.3648124,1,85,test1,4,1.3649253,-42
15,wht,f,19,r,1,(172.20000000000002, 0.0),21,25,4,yes,x,5,x,0.4813637,1,86,test1,4,0.4815833,-20
15,wht,f,19,r,1,(121.76378772032349, 121.76378772032349),22,3,1,no,m,6,x,0.8692542,0,87,test1,4,0.8693774,-20
15,wht,f,19,r,1,(-3.163262682197613e-14, -172.20000000000002),27,-7,13,no,m,6,m,0.8599784,1,88,test1,4,0.8602711,-20
15,wht,f,19,r,1,(-172.20000000000002, 2.1088417881317425e-14),25,3,1,no,m,6,m,0.7762517,1,89,test1,4,0.7764031,-20
15,wht,f,19,r,1,(-121.76378772032352, -121.76378772032348),26,5,2,yes,x,5,x,0.6184803,1,90,test1,4,0.6185785,-40
15,wht,f,19,r,1,(1.0544208940658713e-14, 172.20000000000002),23,-5,12,yes,x,5,x,0.5594794,1,91,test1,4,0.5595924,-50
15,wht,f,19,r,1,(-121.76378772032348, 121.76378772032349),24,-7,13,no,m,6,m,0.6809284,1,92,test1,4,0.681549,-50
15,wht,f,19,r,1,(172.20000000000002, 0.0),21,-3,11,yes,x,5,x,0.859057,1,93,test1,4,0.8592041,-48
15,wht,f,19,r,1,(1.0544208940658713e-14, 172.20000000000002),23,-3,11,yes,x,5,x,0.5466969,1,94,test1,4,0.546835,-48
15,wht,f,19,r,1,(-121.76378772032348, 121.76378772032349),24,25,4,yes,x,5,x,0.4897059,1,95,test1,4,0.4899316,-20
15,wht,f,19,r,1,(-121.76378772032352, -121.76378772032348),26,-7,13,yes,x,5,x,0.5728894,1,96,test1,4,0.5729914,-52
15,wht,f,19,r,1,(121.76378772032349, 121.76378772032349),22,-25,14,yes,x,5,x,0.585972,1,1,test2,4,0.586074,-70
15,wht,f,19,r,1,(1.0544208940658713e-14, 172.20000000000002),23,3,1,no,m,6,m,0.6313027,1,2,test2,4,0.6314588,-70
15,wht,f,19,r,1,(172.20000000000002, 0.0),21,7,3,no,m,6,m,0.6924726,1,3,test2,4,0.6927653,-70
15,wht,f,19,r,1,(-121.76378772032348, 121.76378772032349),24,-3,11,yes,x,5,x,0.6111327,1,4,test2,4,0.6112583,-48
15,wht,f,19,r,1,(172.20000000000002, 0.0),21,-25,14,no,m,6,m,0.9639982,1,5,test2,4,0.9642394,-48
15,wht,f,19,r,1,(1.0544208940658713e-14, 172.20000000000002),23,5,2,no,m,6,m,0.9086093,1,6,test2,4,0.9088152,-48
15,wht,f,19,r,1,(172.20000000000002, 0.0),21,-3,11,no,m,6,m,0.6012983,1,7,test2,4,0.6013971,-48
15,wht,f,19,r,1,(121.76378772032349, 121.76378772032349),22,-3,11,yes,x,5,x,0.9453938,1,8,test2,4,0.945573,-48
15,wht,f,19,r,1,(-3.163262682197613e-14, -172.20000000000002),27,-3,11,yes,x,5,m,0.6708587,0,9,test2,4,0.6709589,-48
15,wht,f,19,r,1,(-172.20000000000002, 2.1088417881317425e-14),25,-25,14,no,m,6,x,0.6081257,0,10,test2,4,0.6082574,-48
15,wht,f,19,r,1,(121.76378772032349, 121.76378772032349),22,-5,12,yes,x,5,x,0.6114867,1,11,test2,4,0.6117224,-50
15,wht,f,19,r,1,(-121.76378772032352, -121.76378772032348),26,-3,11,yes,x,5,m,0.7413617,0,12,test2,4,0.7414549,-48
15,wht,f,19,r,1,(1.0544208940658713e-14, 172.20000000000002),23,-3,11,yes,x,5,x,0.5882574,1,13,test2,4,0.5884197,-48
15,wht,f,19,r,1,(172.20000000000002, 0.0),21,7,3,yes,x,5,x,0.6048428,1,14,test2,4,0.6050496,-38
15,wht,f,19,r,1,(-172.20000000000002, 2.1088417881317425e-14),25,5,2,yes,x,5,x,0.6709101,1,15,test2,4,0.6710106,-40
15,wht,f,19,r,1,(121.76378772032349, 121.76378772032349),22,7,3,yes,x,5,x,0.5404127,1,16,test2,4,0.5405125,-38
15,wht,f,19,r,1,(-172.20000000000002, 2.1088417881317425e-14),25,-7,13,no,m,6,m,0.7455458,1,17,test2,4,0.7458379,-38
15,wht,f,19,r,1,(-3.163262682197613e-14, -172.20000000000002),27,25,4,yes,x,5,x,0.4608141,1,18,test2,4,0.4609045,-20
15,wht,f,19,r,1,(-121.76378772032348, 121.76378772032349),24,3,1,no,m,6,m,0.8723896,1,19,test2,4,0.872805,-20
15,wht,f,19,r,1,(-121.76378772032352, -121.76378772032348),26,5,2,yes,x,5,x,0.9674671,1,20,test2,4,0.9676932,-40
15,wht,f,19,r,1,(-121.76378772032352, -121.76378772032348),26,7,3,no,m,6,m,0.7620149,1,21,test2,4,0.7623115,-40
15,wht,f,19,r,1,(121.76378772032349, 121.76378772032349),22,3,1,yes,x,5,x,0.9181484,1,22,test2,4,0.9182469,-42
15,wht,f,19,r,1,(1.0544208940658713e-14, 172.20000000000002),23,-7,13,yes,x,5,x,0.5402825,1,23,test2,4,0.5403836,-52
15,wht,f,19,r,1,(-121.76378772032352, -121.76378772032348),26,3,1,yes,x,5,x,0.898038,1,24,test2,4,0.8981523,-42
15,wht,f,19,r,1,(172.20000000000002, 0.0),21,3,1,yes,x,5,x,0.9098623,1,25,test2,4,0.9100194,-42
15,wht,f,19,r,1,(-121.76378772032352, -121.76378772032348),26,25,4,yes,x,5,x,0.5125385,1,26,test2,4,0.512642,-20
15,wht,f,19,r,1,(121.76378772032346, -121.76378772032352),28,25,4,no,m,6,m,0.7479607,1,27,test2,4,0.7483967,-20
15,wht,f,19,r,1,(172.20000000000002, 0.0),21,5,2,yes,x,5,x,0.6917383,1,28,test2,4,0.6921244,-40
15,wht,f,19,r,1,(-121.76378772032348, 121.76378772032349),24,-3,11,yes,x,5,m,1.0201015,0,29,test2,4,1.0202238,-48
15,wht,f,19,r,1,(-172.20000000000002, 2.1088417881317425e-14),25,7,3,yes,x,5,x,0.5136978,1,30,test2,4,0.5138377,-38
15,wht,f,19,r,1,(121.76378772032349, 121.76378772032349),22,25,4,yes,x,5,x,0.4739371,1,31,test2,4,0.474175,-20
15,wht,f,19,r,1,(-121.76378772032352, -121.76378772032348),26,-7,13,yes,x,5,x,0.4792604,1,32,test2,4,0.479545,-52
15,wht,f,19,r,1,(-172.20000000000002, 2.1088417881317425e-14),25,-3,11,no,m,6,m,0.6745019,1,33,test2,4,0.6747982,-52
15,wht,f,19,r,1,(1.0544208940658713e-14, 172.20000000000002),23,-25,14,yes,x,5,x,0.4996043,1,34,test2,4,0.4999408,-70
15,wht,f,19,r,1,(121.76378772032349, 121.76378772032349),22,-25,14,yes,x,5,x,0.5590273,1,35,test2,4,0.5593144,-70
15,wht,f,19,r,1,(1.0544208940658713e-14, 172.20000000000002),23,-5,12,no,m,6,m,1.1534317,1,36,test2,4,1.1537682,-70
15,wht,f,19,r,1,(172.20000000000002, 0.0),21,5,2,no,m,6,m,0.7523369,1,37,test2,4,0.7524357,-70
15,wht,f,19,r,1,(121.76378772032346, -121.76378772032352),28,-5,12,no,m,6,x,0.8837043,0,38,test2,4,0.8841251,-70
15,wht,f,19,r,1,(-172.20000000000002, 2.1088417881317425e-14),25,-5,12,yes,x,5,x,0.7606769,1,39,test2,4,0.7608232,-50
15,wht,f,19,r,1,(1.0544208940658713e-14, 172.20000000000002),23,25,4,yes,x,5,x,0.5105099,1,40,test2,4,0.5111112,-20
15,wht,f,19,r,1,(121.76378772032349, 121.76378772032349),22,25,4,no,m,6,m,0.6522592,1,41,test2,4,0.6523923,-20
15,wht,f,19,r,1,(121.76378772032349, 121.76378772032349),22,25,4,yes,x,5,x,0.503867,1,42,test2,4,0.5040083,-20
15,wht,f,19,r,1,(1.0544208940658713e-14, 172.20000000000002),23,-25,14,yes,x,5,x,0.6305179,1,43,test2,4,0.6307627,-70
15,wht,f,19,r,1,(-172.20000000000002, 2.1088417881317425e-14),25,25,4,no,m,6,m,0.6281268,1,44,test2,4,0.6283515,-70
15,wht,f,19,r,1,(-172.20000000000002, 2.1088417881317425e-14),25,5,2,yes,x,5,x,0.589528,1,45,test2,4,0.5896398,-40
15,wht,f,19,r,1,(-172.20000000000002, 2.1088417881317425e-14),25,7,3,yes,x,5,x,0.4807826,1,46,test2,4,0.480943,-38
15,wht,f,19,r,1,(1.0544208940658713e-14, 172.20000000000002),23,-25,14,no,m,6,x,0.4420491,0,47,test2,4,0.4422612,-38
15,wht,f,19,r,1,(-172.20000000000002, 2.1088417881317425e-14),25,-25,14,yes,x,5,x,0.4890504,1,48,test2,4,0.48918,-70
15,wht,f,19,r,1,(-3.163262682197613e-14, -172.20000000000002),27,-3,11,yes,x,5,x,0.9514552,1,49,test2,4,0.9516599,-48
15,wht,f,19,r,1,(-121.76378772032348, 121.76378772032349),24,5,2,yes,x,5,x,0.8076981,1,50,test2,4,0.8078029,-40
15,wht,f,19,r,1,(1.0544208940658713e-14, 172.20000000000002),23,7,3,yes,x,5,x,0.5702367,1,51,test2,4,0.5705314,-38
15,wht,f,19,r,1,(-121.76378772032352, -121.76378772032348),26,3,1,yes,x,5,m,1.1314374,0,52,test2,4,1.1319996,-42
15,wht,f,19,r,1,(121.76378772032349, 121.76378772032349),22,-7,13,yes,x,5,x,0.513114,1,53,test2,4,0.5135269,-52
15,wht,f,19,r,1,(1.0544208940658713e-14, 172.20000000000002),23,7,3,no,m,6,x,1.1347377,0,54,test2,4,1.1349523,-52
15,wht,f,19,r,1,(121.76378772032349, 121.76378772032349),22,5,2,yes,x,5,x,0.6126264,1,55,test2,4,0.6127243,-40
15,wht,f,19,r,1,(172.20000000000002, 0.0),21,-25,14,yes,x,5,x,0.4479796,1,56,test2,4,0.448207,-70
15,wht,f,19,r,1,(-121.76378772032352, -121.76378772032348),26,25,4,yes,x,5,x,0.4896675,1,57,test2,4,0.4904409,-20
15,wht,f,19,r,1,(-121.76378772032348, 121.76378772032349),24,-5,12,yes,x,5,x,0.7350502,1,58,test2,4,0.7351822,-50
15,wht,f,19,r,1,(172.20000000000002, 0.0),21,-25,14,yes,x,5,x,0.4953332,1,59,test2,4,0.4955742,-70
15,wht,f,19,r,1,(-121.76378772032348, 121.76378772032349),24,25,4,no,m,6,m,1.1300615,1,60,test2,4,1.130285,-70
15,wht,f,19,r,1,(121.76378772032349, 121.76378772032349),22,-7,13,yes,x,5,x,0.5827829,1,61,test2,4,0.5830498,-52
15,wht,f,19,r,1,(-172.20000000000002, 2.1088417881317425e-14),25,3,1,yes,x,5,x,1.0349174,1,62,test2,4,1.0350441,-42
15,wht,f,19,r,1,(-121.76378772032348, 121.76378772032349),24,3,1,yes,x,5,x,0.5071304,1,63,test2,4,0.507233,-42
15,wht,f,19,r,1,(1.0544208940658713e-14, 172.20000000000002),23,3,1,yes,x,5,x,0.7060326,1,64,test2,4,0.7061608,-42
15,wht,f,19,r,1,(172.20000000000002, 0.0),21,-3,11,yes,x,5,x,0.7385226,1,65,test2,4,0.7388949,-48
15,wht,f,19,r,1,(-172.20000000000002, 2.1088417881317425e-14),25,3,1,yes,x,5,x,0.654364,1,66,test2,4,0.6545006,-42
15,wht,f,19,r,1,(121.76378772032349, 121.76378772032349),22,5,2,no,m,6,x,0.6335013,0,67,test2,4,0.6340348,-42
15,wht,f,19,r,1,(-121.76378772032352, -121.76378772032348),26,-5,12,yes,x,5,x,0.6737137,1,68,test2,4,0.6739352,-50
15,wht,f,19,r,1,(-121.76378772032352, -121.76378772032348),26,5,2,no,m,6,m,1.2963843,1,69,test2,4,1.2964793,-50
15,wht,f,19,r,1,(-121.76378772032348, 121.76378772032349),24,-25,14,yes,x,5,x,0.4524979,1,70,test2,4,0.4527042,-70
15,wht,f,19,r,1,(-121.76378772032348, 121.76378772032349),24,7,3,no,m,6,m,0.6566863,1,71,test2,4,0.6569087,-70
15,wht,f,19,r,1,(-121.76378772032348, 121.76378772032349),24,-25,14,no,m,6,x,1.0747978,0,72,test2,4,1.075293,-70
15,wht,f,19,r,1,(-3.163262682197613e-14, -172.20000000000002),27,-25,14,yes,x,5,x,0.5573868,1,73,test2,4,0.5575024,-70
15,wht,f,19,r,1,(172.20000000000002, 0.0),21,-5,12,yes,x,5,x,0.8322918,1,74,test2,4,0.8326062,-50
15,wht,f,19,r,1,(121.76378772032346, -121.76378772032352),28,-5,12,yes,x,5,x,0.8974228,1,75,test2,4,0.8975905,-50
15,wht,f,19,r,1,(-172.20000000000002, 2.1088417881317425e-14),25,25,4,yes,x,5,x,0.4999643,1,76,test2,4,0.5003493,-20
15,wht,f,19,r,1,(121.76378772032349, 121.76378772032349),22,3,1,yes,x,5,m,0.8278818,0,77,test2,4,0.828258,-42
15,wht,f,19,r,1,(-121.76378772032352, -121.76378772032348),26,-3,11,no,m,6,m,0.8815084,1,78,test2,4,0.8817933,-42
15,wht,f,19,r,1,(121.76378772032346, -121.76378772032352),28,7,3,yes,x,5,x,0.7300111,1,79,test2,4,0.7302546,-38
15,wht,f,19,r,1,(1.0544208940658713e-14, 172.20000000000002),23,-3,11,no,m,6,m,0.8665845,1,80,test2,4,0.8667948,-38
15,wht,f,19,r,1,(-121.76378772032348, 121.76378772032349),24,-5,12,no,m,6,m,0.8058799,1,81,test2,4,0.8062255,-38
15,wht,f,19,r,1,(172.20000000000002, 0.0),21,-5,12,no,m,6,m,0.7554418,1,82,test2,4,0.7559513,-38
15,wht,f,19,r,1,(-3.163262682197613e-14, -172.20000000000002),27,-7,13,yes,x,5,x,0.5524427,1,83,test2,4,0.5525781,-52
15,wht,f,19,r,1,(-121.76378772032352, -121.76378772032348),26,-25,14,no,m,6,m,0.9374068,1,84,test2,4,0.9376477,-52
15,wht,f,19,r,1,(-121.76378772032352, -121.76378772032348),26,-5,12,no,m,6,m,0.6038,1,85,test2,4,0.6039638,-52
15,wht,f,19,r,1,(-121.76378772032352, -121.76378772032348),26,7,3,yes,x,5,x,0.507211,1,86,test2,4,0.5074448,-38
15,wht,f,19,r,1,(-172.20000000000002, 2.1088417881317425e-14),25,25,4,yes,x,5,x,0.4784208,1,87,test2,4,0.4787157,-20
15,wht,f,19,r,1,(121.76378772032349, 121.76378772032349),22,-3,11,no,m,6,m,0.6492536,1,88,test2,4,0.6494471,-20
15,wht,f,19,r,1,(121.76378772032346, -121.76378772032352),28,-25,14,yes,x,5,x,0.4516122,1,89,test2,4,0.4517294,-70
15,wht,f,19,r,1,(-3.163262682197613e-14, -172.20000000000002),27,7,3,no,m,6,m,0.7151224,1,90,test2,4,0.7152645,-70
15,wht,f,19,r,1,(-121.76378772032352, -121.76378772032348),26,3,1,no,m,6,m,0.756035,1,91,test2,4,0.7565086,-70
15,wht,f,19,r,1,(-121.76378772032348, 121.76378772032349),24,3,1,yes,x,5,m,0.5895655,0,92,test2,4,0.5896641,-42
15,wht,f,19,r,1,(172.20000000000002, 0.0),21,-7,13,no,m,6,x,1.15233,0,93,test2,4,1.1524987,-42
15,wht,f,19,r,1,(-121.76378772032348, 121.76378772032349),24,-7,13,yes,x,5,x,0.5505413,1,94,test2,4,0.5508853,-52
15,wht,f,19,r,1,(172.20000000000002, 0.0),21,3,1,yes,x,5,m,0.8474089,0,95,test2,4,0.8476238,-42
15,wht,f,19,r,1,(-172.20000000000002, 2.1088417881317425e-14),25,5,2,no,m,6,m,0.980463,1,96,test2,4,0.9805768,-42
15,wht,f,19,r,1,(121.76378772032346, -121.76378772032352),28,-5,12,yes,x,5,x,0.8651456,1,1,test1,5,0.8656811,-50
15,wht,f,19,r,1,(-3.163262682197613e-14, -172.20000000000002),27,3,1,yes,x,5,m,1.3353322,0,2,test1,5,1.3356105,-42
15,wht,f,19,r,1,(-172.20000000000002, 2.1088417881317425e-14),25,-5,12,yes,x,5,x,0.5484541,1,3,test1,5,0.5485843,-50
15,wht,f,19,r,1,(-3.163262682197613e-14, -172.20000000000002),27,-5,12,yes,x,5,x,0.6089553,1,4,test1,5,0.6090547,-50
15,wht,f,19,r,1,(1.0544208940658713e-14, 172.20000000000002),23,-5,12,yes,x,5,x,0.4846996,1,5,test1,5,0.4848242,-50
15,wht,f,19,r,1,(-3.163262682197613e-14, -172.20000000000002),27,-25,14,yes,x,5,x,0.4544892,1,6,test1,5,0.4547621,-70
15,wht,f,19,r,1,(172.20000000000002, 0.0),21,-7,13,yes,x,5,x,0.5953936,1,7,test1,5,0.5955308,-52
15,wht,f,19,r,1,(121.76378772032346, -121.76378772032352),28,25,4,yes,x,5,x,0.4116516,1,8,test1,5,0.4118501,-20
15,wht,f,19,r,1,(-172.20000000000002, 2.1088417881317425e-14),25,-25,14,yes,x,5,x,0.3970091,1,9,test1,5,0.397126,-70
15,wht,f,19,r,1,(-3.163262682197613e-14, -172.20000000000002),27,-5,12,yes,x,5,x,0.5461902,1,10,test1,5,0.5463139,-50
15,wht,f,19,r,1,(-121.76378772032348, 121.76378772032349),24,5,2,no,m,6,m,0.8400835,1,11,test1,5,0.8406821,-50
15,wht,f,19,r,1,(172.20000000000002, 0.0),21,-7,13,yes,x,5,x,0.5129767,1,12,test1,5,0.5130732,-52
15,wht,f,19,r,1,(121.76378772032349, 121.76378772032349),22,-7,13,no,m,6,m,0.7605102,1,13,test1,5,0.7607232,-52
15,wht,f,19,r,1,(172.20000000000002, 0.0),21,3,1,no,m,6,m,0.7723144,1,14,test1,5,0.7725555,-52
15,wht,f,19,r,1,(-172.20000000000002, 2.1088417881317425e-14),25,-3,11,yes,x,5,m,0.7101983,0,15,test1,5,0.7104557,-48
15,wht,f,19,r,1,(121.76378772032346, -121.76378772032352),28,5,2,yes,x,5,x,0.6067666,1,16,test1,5,0.6068844,-40
15,wht,f,19,r,1,(-121.76378772032352, -121.76378772032348),26,7,3,yes,x,5,x,0.6401412,1,17,test1,5,0.6403475,-38
15,wht,f,19,r,1,(-3.163262682197613e-14, -172.20000000000002),27,7,3,yes,x,5,x,0.6535741,1,18,test1,5,0.6537811,-38
15,wht,f,19,r,1,(1.0544208940658713e-14, 172.20000000000002),23,7,3,yes,x,5,x,0.4886292,1,19,test1,5,0.4887273,-38
15,wht,f,19,r,1,(-3.163262682197613e-14, -172.20000000000002),27,-25,14,no,m,6,m,0.7333738,1,20,test1,5,0.7339979,-38
15,wht,f,19,r,1,(121.76378772032346, -121.76378772032352),28,5,2,no,m,6,m,1.0411961,1,21,test1,5,1.0412922,-38
15,wht,f,19,r,1,(-121.76378772032348, 121.76378772032349),24,5,2,yes,x,5,x,0.6650434,1,22,test1,5,0.6651693,-40
15,wht,f,19,r,1,(121.76378772032349, 121.76378772032349),22,-5,12,no,m,6,m,0.6884256,1,23,test1,5,0.6887101,-40
15,wht,f,19,r,1,(-3.163262682197613e-14, -172.20000000000002),27,5,2,yes,x,5,x,0.7216262,1,24,test1,5,0.7218616,-40
15,wht,f,19,r,1,(121.76378772032346, -121.76378772032352),28,7,3,no,m,6,m,0.7052911,1,25,test1,5,0.7054091,-40
15,wht,f,19,r,1,(-172.20000000000002, 2.1088417881317425e-14),25,-5,12,no,m,6,m,0.8543654,1,26,test1,5,0.8544849,-40
15,wht,f,19,r,1,(121.76378772032346, -121.76378772032352),28,-7,13,yes,x,5,x,0.7431608,1,27,test1,5,0.7435998,-52
15,wht,f,19,r,1,(-172.20000000000002, 2.1088417881317425e-14),25,-7,13,yes,x,5,x,0.4563749,1,28,test1,5,0.4566077,-52
15,wht,f,19,r,1,(121.76378772032349, 121.76378772032349),22,7,3,yes,x,5,x,0.5978753,1,29,test1,5,0.5981006,-38
15,wht,f,19,r,1,(1.0544208940658713e-14, 172.20000000000002),23,-7,13,yes,x,5,x,0.4623421,1,30,test1,5,0.4630471,-52
15,wht,f,19,r,1,(-3.163262682197613e-14, -172.20000000000002),27,7,3,yes,x,5,x,0.5200056,1,31,test1,5,0.5201035,-38
15,wht,f,19,r,1,(-172.20000000000002, 2.1088417881317425e-14),25,-7,13,yes,x,5,x,0.4884494,1,32,test1,5,0.4889566,-52
15,wht,f,19,r,1,(121.76378772032346, -121.76378772032352),28,-7,13,no,m,6,x,1.094387,0,33,test1,5,1.0945079,-52
15,wht,f,19,r,1,(121.76378772032349, 121.76378772032349),22,-3,11,yes,x,5,m,1.0183591,0,34,test1,5,1.0185002,-48
15,wht,f,19,r,1,(121.76378772032346, -121.76378772032352),28,3,1,no,m,6,m,1.3579166,1,35,test1,5,1.3581503,-48
15,wht,f,19,r,1,(-121.76378772032352, -121.76378772032348),26,25,4,no,m,6,m,0.8889082,1,36,test1,5,0.8892829,-48
15,wht,f,19,r,1,(-3.163262682197613e-14, -172.20000000000002),27,25,4,yes,x,5,x,0.5531896,1,37,test1,5,0.5534958,-20
15,wht,f,19,r,1,(-121.76378772032348, 121.76378772032349),24,25,4,yes,x,5,x,0.5471684,1,38,test1,5,0.54727,-20
15,wht,f,19,r,1,(-121.76378772032352, -121.76378772032348),26,-5,12,yes,x,5,x,0.9889387,1,39,test1,5,0.9891094,-50
15,wht,f,19,r,1,(121.76378772032346, -121.76378772032352),28,5,2,yes,x,5,x,0.6793765,1,40,test1,5,0.6798857,-40
15,wht,f,19,r,1,(-3.163262682197613e-14, -172.20000000000002),27,5,2,no,m,6,m,1.0714896,1,41,test1,5,1.0716033,-40
15,wht,f,19,r,1,(121.76378772032349, 121.76378772032349),22,7,3,no,m,6,m,1.4164424,1,42,test1,5,1.4166293,-40
15,wht,f,19,r,1,(1.0544208940658713e-14, 172.20000000000002),23,25,4,no,m,6,m,0.5924032,1,43,test1,5,0.5933107,-40
15,wht,f,19,r,1,(1.0544208940658713e-14, 172.20000000000002),23,-7,13,no,m,6,m,0.5804252,1,44,test1,5,0.5807703,-40
15,wht,f,19,r,1,(-121.76378772032348, 121.76378772032349),24,7,3,yes,x,5,x,0.4654954,1,45,test1,5,0.4655964,-38
15,wht,f,19,r,1,(121.76378772032346, -121.76378772032352),28,7,3,yes,x,5,x,0.7794951,1,46,test1,5,0.779633,-38
15,wht,f,19,r,1,(172.20000000000002, 0.0),21,25,4,yes,x,5,x,0.4413064,1,47,test1,5,0.4414035,-20
15,wht,f,19,r,1,(-172.20000000000002, 2.1088417881317425e-14),25,-3,11,yes,x,5,x,0.4468872,1,48,test1,5,0.4470101,-48
15,wht,f,19,r,1,(-3.163262682197613e-14, -172.20000000000002),27,-5,12,no,m,6,x,0.6880518,0,49,test1,5,0.6881515,-48
15,wht,f,19,r,1,(-121.76378772032352, -121.76378772032348),26,-25,14,yes,x,5,x,0.4696159,1,50,test1,5,0.4698589,-70
15,wht,f,19,r,1,(1.0544208940658713e-14, 172.20000000000002),23,5,2,yes,x,5,x,1.094478,1,51,test1,5,1.0951702,-40
15,wht,f,19,r,1,(121.76378772032349, 121.76378772032349),22,5,2,yes,x,5,x,0.5704833,1,52,test1,5,0.5709583,-40
15,wht,f,19,r,1,(121.76378772032346, -121.76378772032352),28,-3,11,yes,x,5,m,0.7139586,0,53,test1,5,0.7140879,-48
15,wht,f,19,r,1,(-3.163262682197613e-14, -172.20000000000002),27,5,2,yes,x,5,m,0.8781084,0,54,test1,5,0.8782848,-40
15,wht,f,19,r,1,(172.20000000000002, 0.0),21,5,2,yes,x,5,x,0.5194227,1,55,test1,5,0.5195755,-40
15,wht,f,19,r,1,(1.0544208940658713e-14, 172.20000000000002),23,3,1,yes,x,5,x,1.0140863,1,56,test1,5,1.0142036,-42
15,wht,f,19,r,1,(-3.163262682197613e-14, -172.20000000000002),27,-3,11,no,m,6,m,0.908775,1,57,test1,5,0.9089237,-42
15,wht,f,19,r,1,(121.76378772032346, -121.76378772032352),28,3,1,yes,x,5,m,0.675789,0,58,test1,5,0.6759952,-42
15,wht,f,19,r,1,(1.0544208940658713e-14, 172.20000000000002),23,5,2,yes,x,5,x,0.5323478,1,59,test1,5,0.5326378,-40
15,wht,f,19,r,1,(172.20000000000002, 0.0),21,25,4,no,m,6,m,0.7304511,1,60,test1,5,0.7306489,-40
15,wht,f,19,r,1,(-121.76378772032352, -121.76378772032348),26,-3,11,yes,x,5,x,0.9048249,1,61,test1,5,0.9049636,-48
15,wht,f,19,r,1,(-3.163262682197613e-14, -172.20000000000002),27,25,4,no,m,6,m,0.7417523,1,62,test1,5,0.7420004,-48
15,wht,f,19,r,1,(1.0544208940658713e-14, 172.20000000000002),23,25,4,yes,x,5,x,0.4235897,1,63,test1,5,0.4237439,-20
15,wht,f,19,r,1,(121.76378772032346, -121.76378772032352),28,-25,14,no,m,6,m,1.0107877,1,64,test1,5,1.0108886,-20
15,wht,f,19,r,1,(172.20000000000002, 0.0),21,7,3,yes,x,5,x,0.6715298,1,65,test1,5,0.6716892,-38
15,wht,f,19,r,1,(121.76378772032346, -121.76378772032352),28,25,4,yes,x,5,x,0.5246489,1,66,test1,5,0.5248692,-20
15,wht,f,19,r,1,(121.76378772032346, -121.76378772032352),28,-3,11,yes,x,5,x,0.7659101,1,67,test1,5,0.7660129,-48
15,wht,f,19,r,1,(-121.76378772032348, 121.76378772032349),24,-5,12,yes,x,5,x,0.5943934,1,68,test1,5,0.5946984,-50
15,wht,f,19,r,1,(121.76378772032346, -121.76378772032352),28,-25,14,yes,x,5,x,0.4540174,1,69,test1,5,0.4544883,-70
15,wht,f,19,r,1,(-3.163262682197613e-14, -172.20000000000002),27,3,1,yes,x,5,m,0.8269639,0,70,test1,5,0.8272532,-42
15,wht,f,19,r,1,(-121.76378772032348, 121.76378772032349),24,-7,13,yes,x,5,x,0.4138656,1,71,test1,5,0.4140714,-52
15,wht,f,19,r,1,(-121.76378772032348, 121.76378772032349),24,7,3,yes,x,5,x,0.4868186,1,72,test1,5,0.48724,-38
15,wht,f,19,r,1,(-172.20000000000002, 2.1088417881317425e-14),25,7,3,no,m,6,m,0.8737313,1,73,test1,5,0.8738428,-38
15,wht,f,19,r,1,(-3.163262682197613e-14, -172.20000000000002),27,3,1,no,m,6,m,0.9378145,1,74,test1,5,0.9380493,-38
15,wht,f,19,r,1,(172.20000000000002, 0.0),21,-5,12,yes,x,5,x,0.8106676,1,75,test1,5,0.8109544,-50
15,wht,f,19,r,1,(121.76378772032346, -121.76378772032352),28,-7,13,yes,x,5,x,0.529341,1,76,test1,5,0.5294568,-52
15,wht,f,19,r,1,(-121.76378772032352, -121.76378772032348),26,-25,14,yes,x,5,x,0.4067222,1,77,test1,5,0.4073815,-70
15,wht,f,19,r,1,(-121.76378772032352, -121.76378772032348),26,-7,13,no,m,6,m,1.0754214,1,78,test1,5,1.0755271,-70
15,wht,f,19,r,1,(121.76378772032346, -121.76378772032352),28,-3,11,no,m,6,m,0.7978411,1,79,test1,5,0.7982912,-70
15,wht,f,19,r,1,(-121.76378772032348, 121.76378772032349),24,-3,11,no,m,6,m,0.6333367,1,80,test1,5,0.6335748,-70
15,wht,f,19,r,1,(121.76378772032349, 121.76378772032349),22,-25,14,no,m,6,m,0.5830329,1,81,test1,5,0.5832975,-70
15,wht,f,19,r,1,(121.76378772032349, 121.76378772032349),22,-5,12,yes,x,5,x,0.7427653,1,82,test1,5,0.7429708,-50
15,wht,f,19,r,1,(-3.163262682197613e-14, -172.20000000000002),27,-7,13,yes,x,5,x,0.5770934,1,83,test1,5,0.5772164,-52
15,wht,f,19,r,1,(-121.76378772032348, 121.76378772032349),24,-25,14,yes,x,5,x,0.5017843,1,84,test1,5,0.5018835,-70
15,wht,f,19,r,1,(121.76378772032346, -121.76378772032352),28,3,1,yes,x,5,x,1.3093852,1,85,test1,5,1.3095555,-42
15,wht,f,19,r,1,(172.20000000000002, 0.0),21,25,4,yes,x,5,x,0.4487076,1,86,test1,5,0.4488096,-20
15,wht,f,19,r,1,(121.76378772032349, 121.76378772032349),22,3,1,no,m,6,m,0.6015461,1,87,test1,5,0.6017011,-20
15,wht,f,19,r,1,(-3.163262682197613e-14, -172.20000000000002),27,-7,13,no,m,6,m,0.6488205,1,88,test1,5,0.6489185,-20
15,wht,f,19,r,1,(-172.20000000000002, 2.1088417881317425e-14),25,3,1,no,m,6,m,0.6981378,1,89,test1,5,0.6985384,-20
15,wht,f,19,r,1,(-121.76378772032352, -121.76378772032348),26,5,2,yes,x,5,x,0.8084406,1,90,test1,5,0.8086611,-40
15,wht,f,19,r,1,(1.0544208940658713e-14, 172.20000000000002),23,-5,12,yes,x,5,x,1.091175,1,91,test1,5,1.0915547,-50
15,wht,f,19,r,1,(-121.76378772032348, 121.76378772032349),24,-7,13,no,m,6,m,0.7340858,1,92,test1,5,0.734594,-50
15,wht,f,19,r,1,(172.20000000000002, 0.0),21,-3,11,yes,x,5,x,0.7129291,1,93,test1,5,0.713333,-48
15,wht,f,19,r,1,(1.0544208940658713e-14, 172.20000000000002),23,-3,11,yes,x,5,m,0.6995443,0,94,test1,5,0.6999852,-48
15,wht,f,19,r,1,(-121.76378772032348, 121.76378772032349),24,25,4,yes,x,5,x,0.527093,1,95,test1,5,0.5273764,-20
