subj_id,subj_name,subj_gender ,subj_age,subj_handedness,subj_runNum,tar_l_x,tar_l_y,loc_code,tar_ori,tar_code,tar_pre ,cor_response,pre_code,subj_response,RT,correct,trial_num,type,bloc_num,dur, real_tar
16,sj,f,20,r,1,(-172.20000000000002, 2.1088417881317425e-14),25,-25,14,yes,x,5,x,0.7875390999979572,1,1,prac,0,0.7876644999996643,-70.0
16,sj,f,20,r,1,(121.76378772032349, 121.76378772032349),22,-7,13,no,m,6,m,0.7266204999978072,1,2,prac,0,0.7268354999978328,-70.0
16,sj,f,20,r,1,(-172.20000000000002, 2.1088417881317425e-14),25,3,1,no,m,6,m,0.44519020000007004,1,3,prac,0,0.445362300000852,-70.0
16,sj,f,20,r,1,(1.0544208940658713e-14, 172.20000000000002),23,-5,12,yes,x,5,m,0.521837799999048,0,4,prac,0,0.5221562000006088,-50.0
16,sj,f,20,r,1,(-121.76378772032352, -121.76378772032348),26,-3,11,yes,x,5,m,0.8553726999962237,0,5,prac,0,0.8554733999990276,-48.0
16,sj,f,20,r,1,(172.20000000000002, 0.0),21,-5,12,yes,x,5,x,0.9379104999970878,1,6,prac,0,0.938288500001363,-50.0
16,sj,f,20,r,1,(-121.76378772032348, 121.76378772032349),24,-25,14,yes,x,5,x,0.6796100999999908,1,7,prac,0,0.6798416000019643,-70.0
16,sj,f,20,r,1,(-172.20000000000002, 2.1088417881317425e-14),25,-7,13,no,m,6,m,1.5853705999979866,1,8,prac,0,1.5857278000039514,-70.0
16,sj,f,20,r,1,(172.20000000000002, 0.0),21,25,4,no,m,6,m,1.8895482999942033,1,9,prac,0,1.8898409999965224,-70.0
16,sj,f,20,r,1,(121.76378772032346, -121.76378772032352),28,7,3,yes,x,5,x,0.769354399999429,1,10,prac,0,0.7694683000008808,-38.0
16,sj,f,20,r,1,(-121.76378772032352, -121.76378772032348),26,5,2,yes,x,5,m,1.1345222999952966,0,11,prac,0,1.1347468999956618,-40.0
16,sj,f,20,r,1,(121.76378772032349, 121.76378772032349),22,25,4,no,m,6,m,1.7853133000025991,1,12,prac,0,1.7857010000006994,-40.0
16,sj,f,20,r,1,(121.76378772032349, 121.76378772032349),22,3,1,yes,x,5,x,1.8040177000002586,1,13,prac,0,1.8045223999943119,-42.0
16,sj,f,20,r,1,(121.76378772032346, -121.76378772032352),28,25,4,no,m,6,m,1.920522799999162,1,14,prac,0,1.9208059999946272,-42.0
16,sj,f,20,r,1,(-121.76378772032348, 121.76378772032349),24,3,1,yes,x,5,x,0.8200051000021631,1,15,prac,0,0.8203232000014395,-42.0
16,sj,f,20,r,1,(-3.163262682197613e-14, -172.20000000000002),27,7,3,no,m,6,m,1.1439601000020048,1,16,prac,0,1.1441886999964481,-42.0
16,sj,f,20,r,1,(1.0544208940658713e-14, 172.20000000000002),23,3,1,yes,x,5,x,1.1434785000019474,1,17,prac,0,1.1442536000031396,-42.0
16,sj,f,20,r,1,(1.0544208940658713e-14, 172.20000000000002),23,-7,13,yes,x,5,x,0.8147333000015351,1,18,prac,0,0.8150404999978491,-52.0
16,sj,f,20,r,1,(-3.163262682197613e-14, -172.20000000000002),27,5,2,no,m,6,m,0.9089318999976967,1,19,prac,0,0.9092235999996774,-52.0
16,sj,f,20,r,1,(1.0544208940658713e-14, 172.20000000000002),23,3,1,no,m,6,m,1.134588300003088,1,20,prac,0,1.1348180999993929,-52.0
16,sj,f,20,r,1,(-121.76378772032348, 121.76378772032349),24,-25,14,yes,x,5,x,0.6181361000053585,1,1,test1,1,0.6183028999948874,-70.0
16,sj,f,20,r,1,(121.76378772032346, -121.76378772032352),28,-3,11,yes,x,5,x,1.0230790999994497,1,2,test1,1,1.0235711999994237,-48.0
16,sj,f,20,r,1,(-172.20000000000002, 2.1088417881317425e-14),25,-3,11,no,m,6,x,1.2936059999992722,0,3,test1,1,1.2937340999997105,-48.0
16,sj,f,20,r,1,(172.20000000000002, 0.0),21,5,2,yes,x,5,x,0.6609927000026801,1,4,test1,1,0.6614140000019688,-40.0
16,sj,f,20,r,1,(-172.20000000000002, 2.1088417881317425e-14),25,5,2,yes,x,5,x,0.8304414000012912,1,5,test1,1,0.8305373000039253,-40.0
16,sj,f,20,r,1,(121.76378772032349, 121.76378772032349),22,5,2,yes,x,5,x,1.131135900002846,1,6,test1,1,1.1314855000018724,-40.0
16,sj,f,20,r,1,(-172.20000000000002, 2.1088417881317425e-14),25,5,2,no,m,6,m,0.9807208000056562,1,7,test1,1,0.980992700002389,-40.0
16,sj,f,20,r,1,(-121.76378772032348, 121.76378772032349),24,5,2,no,m,6,m,1.4089578999992227,1,8,test1,1,1.409238500003994,-40.0
16,sj,f,20,r,1,(-121.76378772032348, 121.76378772032349),24,5,2,yes,x,5,x,0.6986283000005642,1,9,test1,1,0.6990320999975665,-40.0
16,sj,f,20,r,1,(-3.163262682197613e-14, -172.20000000000002),27,7,3,yes,x,5,x,0.8257711999976891,1,10,test1,1,0.8258935999983805,-38.0
16,sj,f,20,r,1,(-172.20000000000002, 2.1088417881317425e-14),25,-7,13,yes,x,5,x,0.67935209999996,1,11,test1,1,0.679574900001171,-52.0
16,sj,f,20,r,1,(-3.163262682197613e-14, -172.20000000000002),27,-7,13,no,m,6,m,0.9131699999998091,1,12,test1,1,0.913269600001513,-52.0
16,sj,f,20,r,1,(-172.20000000000002, 2.1088417881317425e-14),25,5,2,yes,x,5,x,0.6248137000002316,1,13,test1,1,0.6250652000016998,-40.0
16,sj,f,20,r,1,(172.20000000000002, 0.0),21,25,4,yes,x,5,x,0.5964643000042997,1,14,test1,1,0.5966942999948515,-20.0
16,sj,f,20,r,1,(121.76378772032349, 121.76378772032349),22,-25,14,yes,x,5,x,0.6897872000045027,1,15,test1,1,0.6898842000009608,-70.0
16,sj,f,20,r,1,(121.76378772032346, -121.76378772032352),28,-25,14,yes,x,5,x,0.6348540000035428,1,16,test1,1,0.6353782999940449,-70.0
16,sj,f,20,r,1,(1.0544208940658713e-14, 172.20000000000002),23,5,2,yes,x,5,x,0.6107358999943244,1,17,test1,1,0.6109721000029822,-40.0
16,sj,f,20,r,1,(121.76378772032346, -121.76378772032352),28,-5,12,no,m,6,m,0.7197943999999552,1,18,test1,1,0.7201800999973784,-40.0
16,sj,f,20,r,1,(121.76378772032349, 121.76378772032349),22,5,2,no,m,6,m,0.7657789000004414,1,19,test1,1,0.766158300000825,-40.0
16,sj,f,20,r,1,(172.20000000000002, 0.0),21,7,3,yes,x,5,x,0.7125371000001905,1,20,test1,1,0.7127266000024974,-38.0
16,sj,f,20,r,1,(1.0544208940658713e-14, 172.20000000000002),23,3,1,no,m,6,m,1.1242220000058296,1,21,test1,1,1.1247072000041953,-38.0
16,sj,f,20,r,1,(-172.20000000000002, 2.1088417881317425e-14),25,7,3,no,m,6,m,1.546551700004784,1,22,test1,1,1.546750500005146,-38.0
16,sj,f,20,r,1,(172.20000000000002, 0.0),21,5,2,no,m,6,m,1.5332992000039667,1,23,test1,1,1.533453299998655,-38.0
16,sj,f,20,r,1,(121.76378772032346, -121.76378772032352),28,25,4,yes,x,5,x,0.6344486999951187,1,24,test1,1,0.6346189000032609,-20.0
16,sj,f,20,r,1,(1.0544208940658713e-14, 172.20000000000002),23,25,4,yes,x,5,x,0.6161619999984396,1,25,test1,1,0.6162870999978622,-20.0
16,sj,f,20,r,1,(121.76378772032346, -121.76378772032352),28,5,2,yes,x,5,x,0.754491899999266,1,26,test1,1,0.7545879999961471,-40.0
16,sj,f,20,r,1,(-172.20000000000002, 2.1088417881317425e-14),25,7,3,yes,x,5,x,0.61332720000064,1,27,test1,1,0.6134477000014158,-38.0
16,sj,f,20,r,1,(-121.76378772032348, 121.76378772032349),24,3,1,yes,x,5,x,0.9462558000013814,1,28,test1,1,0.9463649000026635,-42.0
16,sj,f,20,r,1,(121.76378772032346, -121.76378772032352),28,-25,14,yes,x,5,x,0.6733942999999272,1,29,test1,1,0.6740034999966156,-70.0
16,sj,f,20,r,1,(-121.76378772032348, 121.76378772032349),24,7,3,no,m,6,m,0.8198699999993551,1,30,test1,1,0.8200357000023359,-70.0
16,sj,f,20,r,1,(-3.163262682197613e-14, -172.20000000000002),27,3,1,yes,x,5,x,1.2472703999956138,1,31,test1,1,1.2475754999977653,-42.0
16,sj,f,20,r,1,(-121.76378772032352, -121.76378772032348),26,-7,13,yes,x,5,x,1.3421010000020033,1,32,test1,1,1.3423202999983914,-52.0
16,sj,f,20,r,1,(121.76378772032349, 121.76378772032349),22,3,1,no,m,6,m,0.9614825999960885,1,33,test1,1,0.9616720999983954,-52.0
16,sj,f,20,r,1,(172.20000000000002, 0.0),21,-3,11,yes,x,5,x,1.0911906000037561,1,34,test1,1,1.0913274000049569,-48.0
16,sj,f,20,r,1,(-121.76378772032352, -121.76378772032348),26,3,1,yes,x,5,x,0.9685194999983651,1,35,test1,1,0.9688785999969696,-42.0
16,sj,f,20,r,1,(-172.20000000000002, 2.1088417881317425e-14),25,3,1,yes,x,5,x,0.9223762000037823,1,36,test1,1,0.9227343999955337,-42.0
16,sj,f,20,r,1,(-121.76378772032348, 121.76378772032349),24,-25,14,no,m,6,m,1.8848483000037959,1,37,test1,1,1.8849685000022873,-42.0
16,sj,f,20,r,1,(121.76378772032346, -121.76378772032352),28,3,1,yes,x,5,x,1.1008663999964483,1,38,test1,1,1.1010764000020572,-42.0
16,sj,f,20,r,1,(1.0544208940658713e-14, 172.20000000000002),23,5,2,no,m,6,m,1.5003880000003846,1,39,test1,1,1.5006187000035425,-42.0
16,sj,f,20,r,1,(-172.20000000000002, 2.1088417881317425e-14),25,25,4,yes,x,5,x,0.6627059000020381,1,40,test1,1,0.6628141999972286,-20.0
16,sj,f,20,r,1,(121.76378772032349, 121.76378772032349),22,3,1,yes,x,5,x,1.4116591999991215,1,41,test1,1,1.4118633000034606,-42.0
16,sj,f,20,r,1,(172.20000000000002, 0.0),21,3,1,yes,x,5,x,0.9700434000042151,1,42,test1,1,0.970436100004008,-42.0
16,sj,f,20,r,1,(172.20000000000002, 0.0),21,7,3,yes,x,5,x,0.7614548999990802,1,43,test1,1,0.7616801000040141,-38.0
16,sj,f,20,r,1,(-3.163262682197613e-14, -172.20000000000002),27,5,2,no,m,6,m,1.0464580000043497,1,44,test1,1,1.0465815999996266,-38.0
16,sj,f,20,r,1,(-3.163262682197613e-14, -172.20000000000002),27,-25,14,yes,x,5,x,0.6382833999959985,1,45,test1,1,0.638493099999323,-70.0
16,sj,f,20,r,1,(-3.163262682197613e-14, -172.20000000000002),27,3,1,no,m,6,m,1.4234667999990052,1,46,test1,1,1.4235923000014736,-70.0
16,sj,f,20,r,1,(-3.163262682197613e-14, -172.20000000000002),27,5,2,yes,x,5,x,1.0876957000000402,1,47,test1,1,1.0878580000062357,-40.0
16,sj,f,20,r,1,(-121.76378772032352, -121.76378772032348),26,-5,12,yes,x,5,x,0.6690075000005891,1,48,test1,1,0.6691068000000087,-50.0
16,sj,f,20,r,1,(-121.76378772032352, -121.76378772032348),26,5,2,no,m,6,m,0.8715135000020382,1,49,test1,1,0.871609099995112,-50.0
16,sj,f,20,r,1,(121.76378772032346, -121.76378772032352),28,7,3,yes,x,5,x,0.9773019999993267,1,50,test1,1,0.9775126000022283,-38.0
16,sj,f,20,r,1,(121.76378772032349, 121.76378772032349),22,7,3,yes,x,5,x,0.7411391999994521,1,51,test1,1,0.7413710000037099,-38.0
16,sj,f,20,r,1,(-121.76378772032348, 121.76378772032349),24,-5,12,yes,x,5,x,0.7205362000022433,1,52,test1,1,0.7207791000037105,-50.0
16,sj,f,20,r,1,(-172.20000000000002, 2.1088417881317425e-14),25,25,4,no,m,6,m,0.8171856999979354,1,53,test1,1,0.8174603000006755,-50.0
16,sj,f,20,r,1,(-121.76378772032352, -121.76378772032348),26,-3,11,yes,x,5,x,1.0220616000005975,1,54,test1,1,1.022427299998526,-48.0
16,sj,f,20,r,1,(-172.20000000000002, 2.1088417881317425e-14),25,-7,13,no,m,6,m,0.9308996000036132,1,55,test1,1,0.9309949000016786,-48.0
16,sj,f,20,r,1,(1.0544208940658713e-14, 172.20000000000002),23,-7,13,yes,x,5,x,0.7881128000008175,1,56,test1,1,0.7886032000023988,-52.0
16,sj,f,20,r,1,(-3.163262682197613e-14, -172.20000000000002),27,7,3,yes,x,5,x,0.8225586999978987,1,57,test1,1,0.8226743000050192,-38.0
16,sj,f,20,r,1,(-121.76378772032352, -121.76378772032348),26,-3,11,no,m,6,m,0.8114174000002095,1,58,test1,1,0.8116232000029413,-38.0
16,sj,f,20,r,1,(-121.76378772032352, -121.76378772032348),26,-7,13,no,m,6,m,0.7169311999969068,1,59,test1,1,0.7171589999998105,-38.0
16,sj,f,20,r,1,(-172.20000000000002, 2.1088417881317425e-14),25,-5,12,yes,x,5,x,0.5447579999963637,1,60,test1,1,0.5450505000044359,-50.0
16,sj,f,20,r,1,(172.20000000000002, 0.0),21,-3,11,no,m,6,m,0.9024532999974326,1,61,test1,1,0.9028306000036537,-50.0
16,sj,f,20,r,1,(-3.163262682197613e-14, -172.20000000000002),27,5,2,yes,x,5,x,0.9255658000038238,1,62,test1,1,0.925945100003446,-40.0
16,sj,f,20,r,1,(1.0544208940658713e-14, 172.20000000000002),23,-25,14,yes,x,5,x,0.576821700000437,1,63,test1,1,0.5769205000033253,-70.0
16,sj,f,20,r,1,(-3.163262682197613e-14, -172.20000000000002),27,-3,11,yes,x,5,x,0.9060727000032784,1,64,test1,1,0.9061718000011751,-48.0
16,sj,f,20,r,1,(172.20000000000002, 0.0),21,3,1,yes,x,5,x,1.2773701999976765,1,65,test1,1,1.277466600004118,-42.0
16,sj,f,20,r,1,(-121.76378772032352, -121.76378772032348),26,-3,11,yes,x,5,m,1.1213478999998188,0,66,test1,1,1.1215305000005173,-48.0
16,sj,f,20,r,1,(-3.163262682197613e-14, -172.20000000000002),27,-3,11,yes,x,5,x,0.5807917999991332,1,67,test1,1,0.5810175999940839,-48.0
16,sj,f,20,r,1,(121.76378772032346, -121.76378772032352),28,-7,13,no,m,6,m,1.1338287000035052,1,68,test1,1,1.1342969999968773,-48.0
16,sj,f,20,r,1,(-172.20000000000002, 2.1088417881317425e-14),25,3,1,yes,x,5,x,0.8705248999976902,1,69,test1,1,0.8710594000003766,-42.0
16,sj,f,20,r,1,(-172.20000000000002, 2.1088417881317425e-14),25,-25,14,yes,x,5,x,0.5894532999955118,1,70,test1,1,0.5896382999999332,-70.0
16,sj,f,20,r,1,(-121.76378772032348, 121.76378772032349),24,-5,12,no,m,6,m,1.3277381999942008,1,71,test1,1,1.3278489000003901,-70.0
16,sj,f,20,r,1,(172.20000000000002, 0.0),21,-7,13,yes,x,5,x,0.726556100002199,1,72,test1,1,0.7269156000038492,-52.0
16,sj,f,20,r,1,(1.0544208940658713e-14, 172.20000000000002),23,7,3,no,m,6,m,1.1961771999995108,1,73,test1,1,1.1963313999949605,-52.0
16,sj,f,20,r,1,(121.76378772032346, -121.76378772032352),28,-3,11,yes,x,5,m,0.7750115000017104,0,74,test1,1,0.7752311000003829,-48.0
16,sj,f,20,r,1,(121.76378772032349, 121.76378772032349),22,25,4,yes,x,5,x,0.6533217999967746,1,75,test1,1,0.6534732000000076,-20.0
16,sj,f,20,r,1,(-121.76378772032348, 121.76378772032349),24,3,1,yes,x,5,x,1.1915221000017482,1,76,test1,1,1.1916165000002366,-42.0
16,sj,f,20,r,1,(1.0544208940658713e-14, 172.20000000000002),23,7,3,yes,x,5,x,0.784971900000528,1,77,test1,1,0.7850736000036704,-38.0
16,sj,f,20,r,1,(172.20000000000002, 0.0),21,-7,13,yes,x,5,x,0.6589678000018466,1,78,test1,1,0.6590849999993225,-52.0
16,sj,f,20,r,1,(121.76378772032346, -121.76378772032352),28,3,1,no,m,6,x,1.2017907999979798,0,79,test1,1,1.2021533999941312,-52.0
16,sj,f,20,r,1,(1.0544208940658713e-14, 172.20000000000002),23,7,3,yes,x,5,x,0.5980567000005976,1,80,test1,1,0.5982707000002847,-38.0
16,sj,f,20,r,1,(121.76378772032349, 121.76378772032349),22,7,3,no,m,6,m,1.5412079000016092,1,81,test1,1,1.541575000002922,-38.0
16,sj,f,20,r,1,(1.0544208940658713e-14, 172.20000000000002),23,-7,13,no,m,6,m,1.8306150999997044,1,82,test1,1,1.830709100002423,-38.0
16,sj,f,20,r,1,(121.76378772032349, 121.76378772032349),22,-3,11,no,m,6,m,1.7069520000004559,1,83,test1,1,1.7072516999978689,-38.0
16,sj,f,20,r,1,(1.0544208940658713e-14, 172.20000000000002),23,-5,12,yes,x,5,x,0.6288945000051172,1,84,test1,1,0.6291772999975365,-50.0
16,sj,f,20,r,1,(-121.76378772032352, -121.76378772032348),26,5,2,yes,x,5,x,0.7139170000009472,1,85,test1,1,0.7142802000016673,-40.0
16,sj,f,20,r,1,(121.76378772032346, -121.76378772032352),28,7,3,yes,x,5,x,0.774358000002394,1,86,test1,1,0.7744538999977522,-38.0
16,sj,f,20,r,1,(121.76378772032349, 121.76378772032349),22,-3,11,yes,x,5,x,1.1909706000005826,1,87,test1,1,1.1912137999970582,-48.0
16,sj,f,20,r,1,(-3.163262682197613e-14, -172.20000000000002),27,-7,13,yes,x,5,x,0.601677099999506,1,88,test1,1,0.6018818000011379,-52.0
16,sj,f,20,r,1,(-121.76378772032352, -121.76378772032348),26,25,4,yes,x,5,x,0.5130730000018957,1,89,test1,1,0.5131978999997955,-20.0
16,sj,f,20,r,1,(-3.163262682197613e-14, -172.20000000000002),27,-5,12,no,m,6,m,1.3036809999975958,1,90,test1,1,1.30395629999839,-20.0
16,sj,f,20,r,1,(-121.76378772032348, 121.76378772032349),24,25,4,no,m,6,m,1.5926481999995303,1,91,test1,1,1.592758300001151,-20.0
16,sj,f,20,r,1,(-121.76378772032348, 121.76378772032349),24,-7,13,yes,x,5,x,0.6167967000001227,1,92,test1,1,0.6168898999967496,-52.0
16,sj,f,20,r,1,(-172.20000000000002, 2.1088417881317425e-14),25,-3,11,yes,x,5,x,0.8816979000039282,1,93,test1,1,0.8821771000002627,-48.0
16,sj,f,20,r,1,(172.20000000000002, 0.0),21,-25,14,yes,x,5,m,0.45255790000373963,0,94,test1,1,0.4530434999978752,-70.0
16,sj,f,20,r,1,(172.20000000000002, 0.0),21,-5,12,yes,x,5,x,0.5323275999980979,1,95,test1,1,0.5324888000031933,-50.0
16,sj,f,20,r,1,(-121.76378772032348, 121.76378772032349),24,3,1,no,m,6,m,1.798461699996551,1,96,test1,1,1.798947399998724,-50.0
16,sj,f,20,r,1,(172.20000000000002, 0.0),21,7,3,no,m,6,m,1.8525659000006272,1,1,test2,1,1.8526792999982717,-50.0
16,sj,f,20,r,1,(-121.76378772032352, -121.76378772032348),26,7,3,yes,x,5,x,0.6528417000008631,1,2,test2,1,0.6529358999978285,-38.0
16,sj,f,20,r,1,(172.20000000000002, 0.0),21,5,2,yes,x,5,x,0.7425148999973317,1,3,test2,1,0.7427242000048864,-40.0
16,sj,f,20,r,1,(-3.163262682197613e-14, -172.20000000000002),27,7,3,no,m,6,m,1.2842766000030679,1,4,test2,1,1.2843739000018104,-40.0
16,sj,f,20,r,1,(-121.76378772032352, -121.76378772032348),26,7,3,yes,x,5,x,0.817718899997999,1,5,test2,1,0.8182058000020334,-38.0
16,sj,f,20,r,1,(172.20000000000002, 0.0),21,-7,13,no,m,6,m,1.0449859000000288,1,6,test2,1,1.0452664000040386,-38.0
16,sj,f,20,r,1,(-121.76378772032352, -121.76378772032348),26,5,2,yes,x,5,x,0.6736557000040193,1,7,test2,1,0.6739979999983916,-40.0
16,sj,f,20,r,1,(121.76378772032349, 121.76378772032349),22,7,3,yes,x,5,x,0.6202588000014657,1,8,test2,1,0.6204123999996227,-38.0
16,sj,f,20,r,1,(-3.163262682197613e-14, -172.20000000000002),27,25,4,no,m,6,m,1.527541100003873,1,9,test2,1,1.527764800004661,-38.0
16,sj,f,20,r,1,(-121.76378772032348, 121.76378772032349),24,25,4,yes,x,5,x,0.4689507000002777,1,10,test2,1,0.46904260000155773,-20.0
16,sj,f,20,r,1,(-121.76378772032352, -121.76378772032348),26,-25,14,yes,x,5,x,0.6327078999966034,1,11,test2,1,0.6328652000011061,-70.0
16,sj,f,20,r,1,(-121.76378772032352, -121.76378772032348),26,3,1,yes,x,5,m,1.3077676000029896,0,12,test2,1,1.3080145999992965,-42.0
16,sj,f,20,r,1,(1.0544208940658713e-14, 172.20000000000002),23,25,4,yes,x,5,x,0.5952064999946742,1,13,test2,1,0.5956225999980234,-20.0
16,sj,f,20,r,1,(121.76378772032349, 121.76378772032349),22,-7,13,yes,x,5,x,0.5869488999960595,1,14,test2,1,0.5870660000000498,-52.0
16,sj,f,20,r,1,(-121.76378772032352, -121.76378772032348),26,-25,14,no,m,6,m,1.322476800000004,1,15,test2,1,1.3225735000014538,-52.0
16,sj,f,20,r,1,(121.76378772032349, 121.76378772032349),22,3,1,yes,x,5,x,0.8838046000018949,1,16,test2,1,0.8840135999998893,-42.0
16,sj,f,20,r,1,(-121.76378772032348, 121.76378772032349),24,-7,13,no,m,6,m,1.3918122000031872,1,17,test2,1,1.3920461000016076,-42.0
16,sj,f,20,r,1,(-121.76378772032352, -121.76378772032348),26,25,4,no,m,6,m,1.80927569999767,1,18,test2,1,1.8094936999987112,-42.0
16,sj,f,20,r,1,(-121.76378772032352, -121.76378772032348),26,3,1,no,m,6,m,1.9399177000013879,1,19,test2,1,1.940018900000723,-42.0
16,sj,f,20,r,1,(121.76378772032349, 121.76378772032349),22,-7,13,yes,x,5,x,0.6826044000044931,1,20,test2,1,0.6828300999986823,-52.0
16,sj,f,20,r,1,(172.20000000000002, 0.0),21,3,1,no,m,6,m,1.4204538999983924,1,21,test2,1,1.4205832000006922,-52.0
16,sj,f,20,r,1,(121.76378772032346, -121.76378772032352),28,-5,12,yes,x,5,x,1.017711300002702,1,22,test2,1,1.0178357000040705,-50.0
16,sj,f,20,r,1,(-121.76378772032348, 121.76378772032349),24,7,3,yes,x,5,x,0.5988555000003544,1,23,test2,1,0.5990279999969061,-38.0
16,sj,f,20,r,1,(121.76378772032349, 121.76378772032349),22,-25,14,no,m,6,m,1.6020023000019137,1,24,test2,1,1.6021058000042103,-38.0
16,sj,f,20,r,1,(121.76378772032346, -121.76378772032352),28,-3,11,no,m,6,None,None,0,25,test2,1,1.9800909999976284,-38.0
16,sj,f,20,r,1,(121.76378772032346, -121.76378772032352),28,5,2,yes,x,5,x,0.7636280000006082,1,26,test2,1,0.7637179000012111,-40.0
16,sj,f,20,r,1,(1.0544208940658713e-14, 172.20000000000002),23,-3,11,yes,x,5,x,1.0534289999995963,1,27,test2,1,1.053608100002748,-48.0
16,sj,f,20,r,1,(-172.20000000000002, 2.1088417881317425e-14),25,-5,12,yes,x,5,x,0.6106196000037016,1,28,test2,1,0.6109742999979062,-50.0
16,sj,f,20,r,1,(-3.163262682197613e-14, -172.20000000000002),27,3,1,yes,x,5,x,0.6896905999965384,1,29,test2,1,0.6899469999989378,-42.0
16,sj,f,20,r,1,(121.76378772032346, -121.76378772032352),28,5,2,no,m,6,x,1.4375325000000885,0,30,test2,1,1.437630000000354,-42.0
16,sj,f,20,r,1,(121.76378772032346, -121.76378772032352),28,-25,14,no,m,6,m,1.29979319999984,1,31,test2,1,1.3000221000038437,-42.0
16,sj,f,20,r,1,(172.20000000000002, 0.0),21,-5,12,no,m,6,m,1.2672671000036644,1,32,test2,1,1.2674095000038506,-42.0
16,sj,f,20,r,1,(-3.163262682197613e-14, -172.20000000000002),27,-3,11,no,m,6,m,1.621635999996215,1,33,test2,1,1.6218392000009771,-42.0
16,sj,f,20,r,1,(-172.20000000000002, 2.1088417881317425e-14),25,-25,14,no,m,6,m,1.6962658999982523,1,34,test2,1,1.6963781000013114,-42.0
16,sj,f,20,r,1,(-172.20000000000002, 2.1088417881317425e-14),25,-25,14,yes,x,5,x,0.505983600000036,1,35,test2,1,0.5062001000042073,-70.0
16,sj,f,20,r,1,(1.0544208940658713e-14, 172.20000000000002),23,-25,14,no,m,6,m,0.985852400001022,1,36,test2,1,0.9862091000031796,-70.0
16,sj,f,20,r,1,(-172.20000000000002, 2.1088417881317425e-14),25,-5,12,no,m,6,x,0.9670429000034346,0,37,test2,1,0.9677183000021614,-70.0
16,sj,f,20,r,1,(121.76378772032349, 121.76378772032349),22,-3,11,yes,x,5,x,0.8339882000000216,1,38,test2,1,0.8340972000005422,-48.0
16,sj,f,20,r,1,(172.20000000000002, 0.0),21,-5,12,yes,x,5,x,0.8185964000003878,1,39,test2,1,0.8187266999957501,-50.0
16,sj,f,20,r,1,(1.0544208940658713e-14, 172.20000000000002),23,-3,11,yes,x,5,x,0.9666642000011052,1,40,test2,1,0.9667599000022165,-48.0
16,sj,f,20,r,1,(121.76378772032349, 121.76378772032349),22,-5,12,yes,x,5,x,0.6112321999971755,1,41,test2,1,0.6114221999960137,-50.0
16,sj,f,20,r,1,(-172.20000000000002, 2.1088417881317425e-14),25,-3,11,yes,x,5,x,1.0306057000052533,1,42,test2,1,1.0307323000015458,-48.0
16,sj,f,20,r,1,(1.0544208940658713e-14, 172.20000000000002),23,-3,11,no,m,6,m,1.2552147999958834,1,43,test2,1,1.2553308999995352,-48.0
16,sj,f,20,r,1,(121.76378772032346, -121.76378772032352),28,25,4,yes,x,5,x,0.4680322000058368,1,44,test2,1,0.46834799999487586,-20.0
16,sj,f,20,r,1,(-3.163262682197613e-14, -172.20000000000002),27,-7,13,yes,x,5,x,0.5521036999998614,1,45,test2,1,0.5523252000057255,-52.0
16,sj,f,20,r,1,(-172.20000000000002, 2.1088417881317425e-14),25,25,4,yes,x,5,x,0.5154858999958378,1,46,test2,1,0.5156110000025365,-20.0
16,sj,f,20,r,1,(121.76378772032346, -121.76378772032352),28,-7,13,yes,x,5,x,0.6370864999989863,1,47,test2,1,0.6374603000003844,-52.0
16,sj,f,20,r,1,(1.0544208940658713e-14, 172.20000000000002),23,-7,13,yes,x,5,x,0.5502674999952433,1,48,test2,1,0.5503951000064262,-52.0
16,sj,f,20,r,1,(1.0544208940658713e-14, 172.20000000000002),23,-5,12,yes,x,5,x,0.6472681000013836,1,49,test2,1,0.6473891000059666,-50.0
16,sj,f,20,r,1,(-121.76378772032348, 121.76378772032349),24,-7,13,yes,x,5,x,0.8572781999973813,1,50,test2,1,0.8574957999953767,-52.0
16,sj,f,20,r,1,(-121.76378772032352, -121.76378772032348),26,7,3,no,m,6,x,1.859687300006044,0,51,test2,1,1.859836900002847,-52.0
16,sj,f,20,r,1,(-121.76378772032348, 121.76378772032349),24,-3,11,yes,x,5,x,0.9503724000023794,1,52,test2,1,0.9505128000018885,-48.0
16,sj,f,20,r,1,(121.76378772032346, -121.76378772032352),28,25,4,no,m,6,m,1.2475828000024194,1,53,test2,1,1.247699300001841,-48.0
16,sj,f,20,r,1,(-3.163262682197613e-14, -172.20000000000002),27,-25,14,no,m,6,m,1.0156429999988177,1,54,test2,1,1.0157570999945165,-48.0
16,sj,f,20,r,1,(-172.20000000000002, 2.1088417881317425e-14),25,-7,13,yes,x,5,x,0.6035855000009178,1,55,test2,1,0.6039023999983328,-52.0
16,sj,f,20,r,1,(-121.76378772032348, 121.76378772032349),24,25,4,yes,x,5,x,0.6458611999987625,1,56,test2,1,0.6459558999995352,-20.0
16,sj,f,20,r,1,(-121.76378772032348, 121.76378772032349),24,-3,11,yes,x,5,x,0.9401365000012447,1,57,test2,1,0.9403538000042317,-48.0
16,sj,f,20,r,1,(-3.163262682197613e-14, -172.20000000000002),27,25,4,yes,x,5,x,0.7195853000011994,1,58,test2,1,0.7197050000031595,-20.0
16,sj,f,20,r,1,(121.76378772032346, -121.76378772032352),28,-7,13,yes,x,5,x,0.7248974999965867,1,59,test2,1,0.725049399996351,-52.0
16,sj,f,20,r,1,(-121.76378772032348, 121.76378772032349),24,-3,11,no,m,6,m,1.0463359999994282,1,60,test2,1,1.0468154000045615,-52.0
16,sj,f,20,r,1,(172.20000000000002, 0.0),21,-25,14,yes,x,5,x,0.635478799995326,1,61,test2,1,0.6355689999982133,-70.0
16,sj,f,20,r,1,(-172.20000000000002, 2.1088417881317425e-14),25,7,3,yes,x,5,x,0.5166001999969012,1,62,test2,1,0.5167230000006384,-38.0
16,sj,f,20,r,1,(1.0544208940658713e-14, 172.20000000000002),23,-5,12,no,m,6,m,0.7794045999980881,1,63,test2,1,0.7797381999989739,-38.0
16,sj,f,20,r,1,(172.20000000000002, 0.0),21,-3,11,yes,x,5,x,1.0082783999969251,1,64,test2,1,1.008500500000082,-48.0
16,sj,f,20,r,1,(121.76378772032349, 121.76378772032349),22,-5,12,yes,x,5,x,0.5165024000016274,1,65,test2,1,0.5166002999976627,-50.0
16,sj,f,20,r,1,(172.20000000000002, 0.0),21,25,4,yes,x,5,x,0.5576083999985713,1,66,test2,1,0.55769980000332,-20.0
16,sj,f,20,r,1,(121.76378772032349, 121.76378772032349),22,25,4,no,m,6,m,0.9634518000020762,1,67,test2,1,0.9637541999982204,-20.0
16,sj,f,20,r,1,(-121.76378772032352, -121.76378772032348),26,-7,13,yes,x,5,x,0.6135767000014312,1,68,test2,1,0.6137980999992578,-52.0
16,sj,f,20,r,1,(172.20000000000002, 0.0),21,-25,14,no,m,6,m,0.7087048000030336,1,69,test2,1,0.7088117000021157,-52.0
16,sj,f,20,r,1,(121.76378772032346, -121.76378772032352),28,-5,12,yes,x,5,x,0.740358600000036,1,70,test2,1,0.7405776000014157,-50.0
16,sj,f,20,r,1,(-3.163262682197613e-14, -172.20000000000002),27,-5,12,yes,x,5,x,0.45527250000304775,1,71,test2,1,0.45536819999688305,-50.0
16,sj,f,20,r,1,(-121.76378772032348, 121.76378772032349),24,7,3,yes,x,5,x,0.5054756000026828,1,72,test2,1,0.5058090999955311,-38.0
16,sj,f,20,r,1,(-121.76378772032352, -121.76378772032348),26,-25,14,yes,x,5,x,0.4310014000002411,1,73,test2,1,0.43140789999597473,-70.0
16,sj,f,20,r,1,(121.76378772032346, -121.76378772032352),28,3,1,yes,x,5,x,0.877206400000432,1,74,test2,1,0.877323200002138,-42.0
16,sj,f,20,r,1,(121.76378772032349, 121.76378772032349),22,5,2,yes,x,5,x,0.7332814000037615,1,75,test2,1,0.7333904000042821,-40.0
16,sj,f,20,r,1,(1.0544208940658713e-14, 172.20000000000002),23,-25,14,yes,x,5,x,0.4554999999963911,1,76,test2,1,0.4557645000022603,-70.0
16,sj,f,20,r,1,(121.76378772032349, 121.76378772032349),22,-5,12,no,m,6,m,0.9870054999992135,1,77,test2,1,0.987101699996856,-70.0
16,sj,f,20,r,1,(-121.76378772032348, 121.76378772032349),24,-5,12,yes,x,5,x,0.6047528999988572,1,78,test2,1,0.605548200001067,-50.0
16,sj,f,20,r,1,(-121.76378772032352, -121.76378772032348),26,25,4,yes,x,5,x,0.49614970000402536,1,79,test2,1,0.4964267000032123,-20.0
16,sj,f,20,r,1,(121.76378772032349, 121.76378772032349),22,-25,14,yes,x,5,x,0.7777732000031392,1,80,test2,1,0.7781317999979365,-70.0
16,sj,f,20,r,1,(-121.76378772032348, 121.76378772032349),24,-25,14,yes,x,5,x,0.47881040000356734,1,81,test2,1,0.4796946999995271,-70.0
16,sj,f,20,r,1,(-121.76378772032352, -121.76378772032348),26,-5,12,no,m,6,m,0.823765100001765,1,82,test2,1,0.8243896999993012,-70.0
16,sj,f,20,r,1,(-121.76378772032348, 121.76378772032349),24,5,2,yes,x,5,x,0.6338564999969094,1,83,test2,1,0.6340914999964298,-40.0
16,sj,f,20,r,1,(1.0544208940658713e-14, 172.20000000000002),23,25,4,no,m,6,m,1.1635308000040823,1,84,test2,1,1.1642294999983278,-40.0
16,sj,f,20,r,1,(-3.163262682197613e-14, -172.20000000000002),27,-5,12,yes,x,5,x,0.5371531999990111,1,85,test2,1,0.5373720000061439,-50.0
16,sj,f,20,r,1,(1.0544208940658713e-14, 172.20000000000002),23,3,1,yes,x,5,m,0.817382400004135,0,86,test2,1,0.8175287999983993,-42.0
16,sj,f,20,r,1,(121.76378772032349, 121.76378772032349),22,25,4,yes,x,5,x,0.6991380999970715,1,87,test2,1,0.6992454999999609,-20.0
16,sj,f,20,r,1,(172.20000000000002, 0.0),21,25,4,no,m,6,x,1.2243969999981346,0,88,test2,1,1.2245341000016197,-20.0
16,sj,f,20,r,1,(-3.163262682197613e-14, -172.20000000000002),27,-25,14,yes,x,5,x,0.6244751000049291,1,89,test2,1,0.6246068999971612,-70.0
16,sj,f,20,r,1,(121.76378772032346, -121.76378772032352),28,7,3,no,m,6,m,1.3800353000042378,1,90,test2,1,1.3802509999950416,-70.0
16,sj,f,20,r,1,(1.0544208940658713e-14, 172.20000000000002),23,3,1,yes,x,5,x,1.1080259000009391,1,91,test2,1,1.1081714000029024,-42.0
16,sj,f,20,r,1,(1.0544208940658713e-14, 172.20000000000002),23,5,2,yes,x,5,x,1.2053771999999299,1,92,test2,1,1.2055313000018941,-40.0
16,sj,f,20,r,1,(121.76378772032349, 121.76378772032349),22,-7,13,no,m,6,m,0.8282426000005216,1,93,test2,1,0.8283344000010402,-40.0
16,sj,f,20,r,1,(-172.20000000000002, 2.1088417881317425e-14),25,3,1,no,m,6,m,1.2863320000033127,1,94,test2,1,1.2864273000013782,-40.0
16,sj,f,20,r,1,(-3.163262682197613e-14, -172.20000000000002),27,25,4,yes,x,5,x,0.4815454999989015,1,95,test2,1,0.48218249999627005,-20.0
16,sj,f,20,r,1,(-121.76378772032352, -121.76378772032348),26,-5,12,yes,x,5,x,0.6557251999984146,1,96,test2,1,0.6558385000025737,-50.0
16,sj,f,20,r,1,(-121.76378772032348, 121.76378772032349),24,-25,14,yes,x,5,x,0.6461096999992151,1,1,test1,2,0.6463235999981407,-70.0
16,sj,f,20,r,1,(121.76378772032346, -121.76378772032352),28,-3,11,yes,x,5,x,1.1691516999999294,1,2,test1,2,1.1694263000026694,-48.0
16,sj,f,20,r,1,(-172.20000000000002, 2.1088417881317425e-14),25,-3,11,no,m,6,None,None,0,3,test1,2,1.9800791000016034,-48.0
16,sj,f,20,r,1,(172.20000000000002, 0.0),21,5,2,yes,x,5,x,0.695935699994152,1,4,test1,2,0.6960315999967861,-40.0
16,sj,f,20,r,1,(-172.20000000000002, 2.1088417881317425e-14),25,5,2,yes,x,5,x,0.5927582000003895,1,5,test1,2,0.5928515999985393,-40.0
16,sj,f,20,r,1,(121.76378772032349, 121.76378772032349),22,5,2,yes,x,5,x,0.6074087000015425,1,6,test1,2,0.6076489000042784,-40.0
16,sj,f,20,r,1,(-172.20000000000002, 2.1088417881317425e-14),25,5,2,no,m,6,m,1.3987317999999505,1,7,test1,2,1.3992418999987422,-40.0
16,sj,f,20,r,1,(-121.76378772032348, 121.76378772032349),24,5,2,no,m,6,m,1.2323332000014489,1,8,test1,2,1.2326731000066502,-40.0
16,sj,f,20,r,1,(-121.76378772032348, 121.76378772032349),24,5,2,yes,x,5,x,0.48533869999664603,1,9,test1,2,0.48568019999947865,-40.0
16,sj,f,20,r,1,(-3.163262682197613e-14, -172.20000000000002),27,7,3,yes,x,5,x,0.7016936999934842,1,10,test1,2,0.7017993999979808,-38.0
16,sj,f,20,r,1,(-172.20000000000002, 2.1088417881317425e-14),25,-7,13,yes,x,5,x,0.4586708999995608,1,11,test1,2,0.4587616999997408,-52.0
16,sj,f,20,r,1,(-3.163262682197613e-14, -172.20000000000002),27,-7,13,no,m,6,m,0.93157169999904,1,12,test1,2,0.9316878000026918,-52.0
16,sj,f,20,r,1,(-172.20000000000002, 2.1088417881317425e-14),25,5,2,yes,x,5,x,0.5157714000015403,1,13,test1,2,0.5158632000020589,-40.0
16,sj,f,20,r,1,(172.20000000000002, 0.0),21,25,4,yes,x,5,x,0.703445200000715,1,14,test1,2,0.7035409000018262,-20.0
16,sj,f,20,r,1,(121.76378772032349, 121.76378772032349),22,-25,14,yes,x,5,x,0.5079285999963759,1,15,test1,2,0.5082129000002169,-70.0
16,sj,f,20,r,1,(121.76378772032346, -121.76378772032352),28,-25,14,yes,x,5,x,0.5249046000026283,1,16,test1,2,0.5254160999975284,-70.0
16,sj,f,20,r,1,(1.0544208940658713e-14, 172.20000000000002),23,5,2,yes,x,5,x,0.5352066999985254,1,17,test1,2,0.5352989000020898,-40.0
16,sj,f,20,r,1,(121.76378772032346, -121.76378772032352),28,-5,12,no,m,6,m,0.9829777999984799,1,18,test1,2,0.9833348000029218,-40.0
16,sj,f,20,r,1,(121.76378772032349, 121.76378772032349),22,5,2,no,m,6,m,1.2092856000017491,1,19,test1,2,1.209413399999903,-40.0
16,sj,f,20,r,1,(172.20000000000002, 0.0),21,7,3,yes,x,5,x,0.7611783999964246,1,20,test1,2,0.7612759000039659,-38.0
16,sj,f,20,r,1,(1.0544208940658713e-14, 172.20000000000002),23,3,1,no,m,6,m,0.7484736000042176,1,21,test1,2,0.7486886999977287,-38.0
16,sj,f,20,r,1,(-172.20000000000002, 2.1088417881317425e-14),25,7,3,no,m,6,m,0.834075999999186,1,22,test1,2,0.8341705999991973,-38.0
16,sj,f,20,r,1,(172.20000000000002, 0.0),21,5,2,no,m,6,m,0.6494161000009626,1,23,test1,2,0.6495088000010583,-38.0
16,sj,f,20,r,1,(121.76378772032346, -121.76378772032352),28,25,4,yes,x,5,x,0.5104271000018343,1,24,test1,2,0.5105237999960082,-20.0
16,sj,f,20,r,1,(1.0544208940658713e-14, 172.20000000000002),23,25,4,yes,x,5,x,0.40899630000058096,1,25,test1,2,0.40918129999772646,-20.0
16,sj,f,20,r,1,(121.76378772032346, -121.76378772032352),28,5,2,yes,x,5,m,0.8153301999991527,0,26,test1,2,0.8154704000044148,-40.0
16,sj,f,20,r,1,(-172.20000000000002, 2.1088417881317425e-14),25,7,3,yes,x,5,x,0.5275135000047158,1,27,test1,2,0.5276066000005812,-38.0
16,sj,f,20,r,1,(-121.76378772032348, 121.76378772032349),24,3,1,yes,x,5,x,0.6494768999982625,1,28,test1,2,0.6497045999931288,-42.0
16,sj,f,20,r,1,(121.76378772032346, -121.76378772032352),28,-25,14,yes,x,5,x,0.5883992000017315,1,29,test1,2,0.5891071000005468,-70.0
16,sj,f,20,r,1,(-121.76378772032348, 121.76378772032349),24,7,3,no,m,6,m,1.2371910000001662,1,30,test1,2,1.2373120000047493,-70.0
16,sj,f,20,r,1,(-3.163262682197613e-14, -172.20000000000002),27,3,1,yes,x,5,m,0.9102198999971733,0,31,test1,2,0.9103851999971084,-42.0
16,sj,f,20,r,1,(-121.76378772032352, -121.76378772032348),26,-7,13,yes,x,5,x,0.4663923000043724,1,32,test1,2,0.4665448999949149,-52.0
16,sj,f,20,r,1,(121.76378772032349, 121.76378772032349),22,3,1,no,m,6,x,1.0395493999967584,0,33,test1,2,1.0398492000022088,-52.0
16,sj,f,20,r,1,(172.20000000000002, 0.0),21,-3,11,yes,x,5,x,0.6770174999983283,1,34,test1,2,0.6771143000005395,-48.0
16,sj,f,20,r,1,(-121.76378772032352, -121.76378772032348),26,3,1,yes,x,5,x,0.8568920000034268,1,35,test1,2,0.8570557999992161,-42.0
16,sj,f,20,r,1,(-172.20000000000002, 2.1088417881317425e-14),25,3,1,yes,x,5,x,1.076891800003068,1,36,test1,2,1.077111300000979,-42.0
16,sj,f,20,r,1,(-121.76378772032348, 121.76378772032349),24,-25,14,no,m,6,m,1.4296491000059177,1,37,test1,2,1.4301357999938773,-42.0
16,sj,f,20,r,1,(121.76378772032346, -121.76378772032352),28,3,1,yes,x,5,x,0.8851471999951173,1,38,test1,2,0.8852456000022357,-42.0
16,sj,f,20,r,1,(1.0544208940658713e-14, 172.20000000000002),23,5,2,no,m,6,m,1.148668899993936,1,39,test1,2,1.1489130999980262,-42.0
16,sj,f,20,r,1,(-172.20000000000002, 2.1088417881317425e-14),25,25,4,yes,x,5,x,0.5135209000000032,1,40,test1,2,0.5136517000064487,-20.0
16,sj,f,20,r,1,(121.76378772032349, 121.76378772032349),22,3,1,yes,x,5,m,1.5126264999998966,0,41,test1,2,1.5127280000015162,-42.0
16,sj,f,20,r,1,(172.20000000000002, 0.0),21,3,1,yes,x,5,x,1.0034948000029544,1,42,test1,2,1.0037596999973175,-42.0
16,sj,f,20,r,1,(172.20000000000002, 0.0),21,7,3,yes,x,5,x,0.5083594999960042,1,43,test1,2,0.5087419000046793,-38.0
16,sj,f,20,r,1,(-3.163262682197613e-14, -172.20000000000002),27,5,2,no,m,6,m,1.3981708999999682,1,44,test1,2,1.3983062000042992,-38.0
16,sj,f,20,r,1,(-3.163262682197613e-14, -172.20000000000002),27,-25,14,yes,x,5,x,0.547681999996712,1,45,test1,2,0.5477717999965535,-70.0
16,sj,f,20,r,1,(-3.163262682197613e-14, -172.20000000000002),27,3,1,no,m,6,m,0.873813499994867,1,46,test1,2,0.8739079000006313,-70.0
16,sj,f,20,r,1,(-3.163262682197613e-14, -172.20000000000002),27,5,2,yes,x,5,x,0.7292525000011665,1,47,test1,2,0.729846299997007,-40.0
16,sj,f,20,r,1,(-121.76378772032352, -121.76378772032348),26,-5,12,yes,x,5,x,0.8119836999976542,1,48,test1,2,0.8120769000015571,-50.0
16,sj,f,20,r,1,(-121.76378772032352, -121.76378772032348),26,5,2,no,m,6,m,0.7821965000039199,1,49,test1,2,0.7823141000044416,-50.0
16,sj,f,20,r,1,(121.76378772032346, -121.76378772032352),28,7,3,yes,x,5,x,0.5538202000025194,1,50,test1,2,0.5541515000004438,-38.0
16,sj,f,20,r,1,(121.76378772032349, 121.76378772032349),22,7,3,yes,x,5,x,0.6408721999978297,1,51,test1,2,0.641207900000154,-38.0
16,sj,f,20,r,1,(-121.76378772032348, 121.76378772032349),24,-5,12,yes,x,5,x,0.8636509999996633,1,52,test1,2,0.8638843999942765,-50.0
16,sj,f,20,r,1,(-172.20000000000002, 2.1088417881317425e-14),25,25,4,no,m,6,m,1.236039700001129,1,53,test1,2,1.2365212000004249,-50.0
16,sj,f,20,r,1,(-121.76378772032352, -121.76378772032348),26,-3,11,yes,x,5,x,0.9933094000007259,1,54,test1,2,0.9936878999942564,-48.0
16,sj,f,20,r,1,(-172.20000000000002, 2.1088417881317425e-14),25,-7,13,no,m,6,m,0.8832211000044481,1,55,test1,2,0.8834515999988071,-48.0
16,sj,f,20,r,1,(1.0544208940658713e-14, 172.20000000000002),23,-7,13,yes,x,5,x,0.49509350000153063,1,56,test1,2,0.4954266000058851,-52.0
16,sj,f,20,r,1,(-3.163262682197613e-14, -172.20000000000002),27,7,3,yes,x,5,x,0.5737632999953348,1,57,test1,2,0.5738599999967846,-38.0
16,sj,f,20,r,1,(-121.76378772032352, -121.76378772032348),26,-3,11,no,m,6,m,0.7811068000009982,1,58,test1,2,0.7814037999996799,-38.0
16,sj,f,20,r,1,(-121.76378772032352, -121.76378772032348),26,-7,13,no,m,6,m,0.852600700003677,1,59,test1,2,0.8526905000035185,-38.0
16,sj,f,20,r,1,(-172.20000000000002, 2.1088417881317425e-14),25,-5,12,yes,x,5,x,0.5221593000023859,1,60,test1,2,0.5225178999971831,-50.0
16,sj,f,20,r,1,(172.20000000000002, 0.0),21,-3,11,no,m,6,m,0.6736297999959788,1,61,test1,2,0.6737409000052139,-50.0
16,sj,f,20,r,1,(-3.163262682197613e-14, -172.20000000000002),27,5,2,yes,x,5,x,0.5200411999976495,1,62,test1,2,0.5203734000024269,-40.0
16,sj,f,20,r,1,(1.0544208940658713e-14, 172.20000000000002),23,-25,14,yes,x,5,x,0.5768424999987474,1,63,test1,2,0.5769377999968128,-70.0
16,sj,f,20,r,1,(-3.163262682197613e-14, -172.20000000000002),27,-3,11,yes,x,5,m,0.8233737999980804,0,64,test1,2,0.8240195999969728,-48.0
16,sj,f,20,r,1,(172.20000000000002, 0.0),21,3,1,yes,x,5,x,1.0394340000057127,1,65,test1,2,1.0395895000037854,-42.0
16,sj,f,20,r,1,(-121.76378772032352, -121.76378772032348),26,-3,11,yes,x,5,x,1.036848399999144,1,66,test1,2,1.037069000005431,-48.0
16,sj,f,20,r,1,(-3.163262682197613e-14, -172.20000000000002),27,-3,11,yes,x,5,x,0.5398999999961234,1,67,test1,2,0.5401837999961572,-48.0
16,sj,f,20,r,1,(121.76378772032346, -121.76378772032352),28,-7,13,no,m,6,m,1.1067258000039146,1,68,test1,2,1.1070270000054734,-48.0
16,sj,f,20,r,1,(-172.20000000000002, 2.1088417881317425e-14),25,3,1,yes,x,5,x,0.711463299994648,1,69,test1,2,0.7116339999993215,-42.0
16,sj,f,20,r,1,(-172.20000000000002, 2.1088417881317425e-14),25,-25,14,yes,x,5,x,0.510062299996207,1,70,test1,2,0.5102186999938567,-70.0
16,sj,f,20,r,1,(-121.76378772032348, 121.76378772032349),24,-5,12,no,m,6,m,0.6658129999996163,1,71,test1,2,0.6661286999951699,-70.0
16,sj,f,20,r,1,(172.20000000000002, 0.0),21,-7,13,yes,x,5,m,0.8018167000045651,0,72,test1,2,0.802039700000023,-52.0
16,sj,f,20,r,1,(1.0544208940658713e-14, 172.20000000000002),23,7,3,no,m,6,m,1.4652407000030507,1,73,test1,2,1.4653607000000193,-52.0
16,sj,f,20,r,1,(121.76378772032346, -121.76378772032352),28,-3,11,yes,x,5,m,1.314640299999155,0,74,test1,2,1.3148647999987588,-48.0
16,sj,f,20,r,1,(121.76378772032349, 121.76378772032349),22,25,4,yes,x,5,x,0.5129513000065344,1,75,test1,2,0.5134351000015158,-20.0
16,sj,f,20,r,1,(-121.76378772032348, 121.76378772032349),24,3,1,yes,x,5,x,0.5139428999973461,1,76,test1,2,0.5140552000011667,-42.0
16,sj,f,20,r,1,(1.0544208940658713e-14, 172.20000000000002),23,7,3,yes,x,5,x,0.701153100002557,1,77,test1,2,0.7012632000041776,-38.0
16,sj,f,20,r,1,(172.20000000000002, 0.0),21,-7,13,yes,x,5,x,0.5219324999998207,1,78,test1,2,0.522061700001359,-52.0
16,sj,f,20,r,1,(121.76378772032346, -121.76378772032352),28,3,1,no,m,6,m,1.2214650999958394,1,79,test1,2,1.2217750000054366,-52.0
16,sj,f,20,r,1,(1.0544208940658713e-14, 172.20000000000002),23,7,3,yes,x,5,x,0.5102913000009721,1,80,test1,2,0.5105104000031133,-38.0
16,sj,f,20,r,1,(121.76378772032349, 121.76378772032349),22,7,3,no,m,6,m,1.3631696000011289,1,81,test1,2,1.3635320999965188,-38.0
16,sj,f,20,r,1,(1.0544208940658713e-14, 172.20000000000002),23,-7,13,no,m,6,m,1.2233527999997023,1,82,test1,2,1.2234489999973448,-38.0
16,sj,f,20,r,1,(121.76378772032349, 121.76378772032349),22,-3,11,no,m,6,m,1.1724792999957572,1,83,test1,2,1.172574699994584,-38.0
16,sj,f,20,r,1,(1.0544208940658713e-14, 172.20000000000002),23,-5,12,yes,x,5,x,0.9486489999981131,1,84,test1,2,0.9490349999978207,-50.0
16,sj,f,20,r,1,(-121.76378772032352, -121.76378772032348),26,5,2,yes,x,5,x,1.431733899997198,1,85,test1,2,1.4318315000055009,-40.0
16,sj,f,20,r,1,(121.76378772032346, -121.76378772032352),28,7,3,yes,x,5,x,0.5835112999993726,1,86,test1,2,0.5837035000004107,-38.0
16,sj,f,20,r,1,(121.76378772032349, 121.76378772032349),22,-3,11,yes,x,5,x,0.9301585000066552,1,87,test1,2,0.9303881999949226,-48.0
16,sj,f,20,r,1,(-3.163262682197613e-14, -172.20000000000002),27,-7,13,yes,x,5,x,0.5361647000027006,1,88,test1,2,0.5363926999998512,-52.0
16,sj,f,20,r,1,(-121.76378772032352, -121.76378772032348),26,25,4,yes,x,5,x,0.6879344999979367,1,89,test1,2,0.6882140000016079,-20.0
16,sj,f,20,r,1,(-3.163262682197613e-14, -172.20000000000002),27,-5,12,no,m,6,x,0.71865809999872,0,90,test1,2,0.718766100006178,-20.0
16,sj,f,20,r,1,(-121.76378772032348, 121.76378772032349),24,25,4,no,m,6,m,1.188902900001267,1,91,test1,2,1.1891022999989218,-20.0
16,sj,f,20,r,1,(-121.76378772032348, 121.76378772032349),24,-7,13,yes,x,5,x,0.5398621000058483,1,92,test1,2,0.5399886000013794,-52.0
16,sj,f,20,r,1,(-172.20000000000002, 2.1088417881317425e-14),25,-3,11,yes,x,5,x,0.9279590000005555,1,93,test1,2,0.9287180000028457,-48.0
16,sj,f,20,r,1,(172.20000000000002, 0.0),21,-25,14,yes,x,5,x,0.5900338999999803,1,94,test1,2,0.5901325999948313,-70.0
16,sj,f,20,r,1,(172.20000000000002, 0.0),21,-5,12,yes,x,5,x,0.7201241999937338,1,95,test1,2,0.7203613000019686,-50.0
16,sj,f,20,r,1,(-121.76378772032348, 121.76378772032349),24,3,1,no,m,6,m,1.1039606999984244,1,96,test1,2,1.1041532000017469,-50.0
16,sj,f,20,r,1,(172.20000000000002, 0.0),21,7,3,no,m,6,x,0.9775819999995292,0,1,test2,2,0.9777953000011621,-50.0
16,sj,f,20,r,1,(-121.76378772032352, -121.76378772032348),26,7,3,yes,x,5,x,0.5170650999934878,1,2,test2,2,0.5171800000025542,-38.0
16,sj,f,20,r,1,(172.20000000000002, 0.0),21,5,2,yes,x,5,x,0.5812041999961366,1,3,test2,2,0.5814750999998068,-40.0
16,sj,f,20,r,1,(-3.163262682197613e-14, -172.20000000000002),27,7,3,no,m,6,m,1.1136152999970363,1,4,test2,2,1.114162199999555,-40.0
16,sj,f,20,r,1,(-121.76378772032352, -121.76378772032348),26,7,3,yes,x,5,x,0.5148134000046412,1,5,test2,2,0.5149579000062658,-38.0
16,sj,f,20,r,1,(172.20000000000002, 0.0),21,-7,13,no,m,6,m,1.4507363999946392,1,6,test2,2,1.4508349000025191,-38.0
16,sj,f,20,r,1,(-121.76378772032352, -121.76378772032348),26,5,2,yes,x,5,x,0.5984678999957396,1,7,test2,2,0.599038100001053,-40.0
16,sj,f,20,r,1,(121.76378772032349, 121.76378772032349),22,7,3,yes,x,5,x,0.6093518999987282,1,8,test2,2,0.6099621999965166,-38.0
16,sj,f,20,r,1,(-3.163262682197613e-14, -172.20000000000002),27,25,4,no,m,6,m,1.0038862000001245,1,9,test2,2,1.0041214000011678,-38.0
16,sj,f,20,r,1,(-121.76378772032348, 121.76378772032349),24,25,4,yes,x,5,x,0.5519002999935765,1,10,test2,2,0.552187799999956,-20.0
16,sj,f,20,r,1,(-121.76378772032352, -121.76378772032348),26,-25,14,yes,x,5,x,0.4620811999993748,1,11,test2,2,0.4622036000000662,-70.0
16,sj,f,20,r,1,(-121.76378772032352, -121.76378772032348),26,3,1,yes,x,5,x,0.7050323000003118,1,12,test2,2,0.7051437999980408,-42.0
16,sj,f,20,r,1,(1.0544208940658713e-14, 172.20000000000002),23,25,4,yes,x,5,x,0.4218347999994876,1,13,test2,2,0.4222377999976743,-20.0
16,sj,f,20,r,1,(121.76378772032349, 121.76378772032349),22,-7,13,yes,x,5,x,0.4762817000009818,1,14,test2,2,0.47637699999904726,-52.0
16,sj,f,20,r,1,(-121.76378772032352, -121.76378772032348),26,-25,14,no,m,6,m,0.8372244999991381,1,15,test2,2,0.8373405999955139,-52.0
16,sj,f,20,r,1,(121.76378772032349, 121.76378772032349),22,3,1,yes,x,5,x,0.6662289000014425,1,16,test2,2,0.666528499998094,-42.0
16,sj,f,20,r,1,(-121.76378772032348, 121.76378772032349),24,-7,13,no,m,6,m,0.7537530999979936,1,17,test2,2,0.7538480000002892,-42.0
16,sj,f,20,r,1,(-121.76378772032352, -121.76378772032348),26,25,4,no,m,6,m,0.9300074999991921,1,18,test2,2,0.9302283999932115,-42.0
16,sj,f,20,r,1,(-121.76378772032352, -121.76378772032348),26,3,1,no,m,6,m,0.7528459999957704,1,19,test2,2,0.753519600002619,-42.0
16,sj,f,20,r,1,(121.76378772032349, 121.76378772032349),22,-7,13,yes,x,5,x,0.5302465999993728,1,20,test2,2,0.5305714999994962,-52.0
16,sj,f,20,r,1,(172.20000000000002, 0.0),21,3,1,no,m,6,x,1.1258904999995138,0,21,test2,2,1.1260164999985136,-52.0
16,sj,f,20,r,1,(121.76378772032346, -121.76378772032352),28,-5,12,yes,x,5,x,0.5875552999932552,1,22,test2,2,0.5880211999974563,-50.0
16,sj,f,20,r,1,(-121.76378772032348, 121.76378772032349),24,7,3,yes,x,5,x,0.43003950000274926,1,23,test2,2,0.43019310000090627,-38.0
16,sj,f,20,r,1,(121.76378772032349, 121.76378772032349),22,-25,14,no,m,6,m,0.9897952000028454,1,24,test2,2,0.9899889000007533,-38.0
16,sj,f,20,r,1,(121.76378772032346, -121.76378772032352),28,-3,11,no,m,6,m,0.8077813999989303,1,25,test2,2,0.807951899994805,-38.0
16,sj,f,20,r,1,(121.76378772032346, -121.76378772032352),28,5,2,yes,x,5,x,0.5842616999943857,1,26,test2,2,0.5847093999982462,-40.0
16,sj,f,20,r,1,(1.0544208940658713e-14, 172.20000000000002),23,-3,11,yes,x,5,x,0.577903299999889,1,27,test2,2,0.5780605000036303,-48.0
16,sj,f,20,r,1,(-172.20000000000002, 2.1088417881317425e-14),25,-5,12,yes,x,5,x,0.4383310999983223,1,28,test2,2,0.43841969999630237,-50.0
16,sj,f,20,r,1,(-3.163262682197613e-14, -172.20000000000002),27,3,1,yes,x,5,x,0.5464188000041759,1,29,test2,2,0.546731100002944,-42.0
16,sj,f,20,r,1,(121.76378772032346, -121.76378772032352),28,5,2,no,m,6,m,1.1919956999990973,1,30,test2,2,1.192113099998096,-42.0
16,sj,f,20,r,1,(121.76378772032346, -121.76378772032352),28,-25,14,no,m,6,m,1.2232317000016337,1,31,test2,2,1.2234583999961615,-42.0
16,sj,f,20,r,1,(172.20000000000002, 0.0),21,-5,12,no,m,6,m,0.917383100000734,1,32,test2,2,0.9176806999967084,-42.0
16,sj,f,20,r,1,(-3.163262682197613e-14, -172.20000000000002),27,-3,11,no,m,6,m,0.7795082999946317,1,33,test2,2,0.7803296999991289,-42.0
16,sj,f,20,r,1,(-172.20000000000002, 2.1088417881317425e-14),25,-25,14,no,m,6,m,0.8551842999950168,1,34,test2,2,0.85545319999801,-42.0
16,sj,f,20,r,1,(-172.20000000000002, 2.1088417881317425e-14),25,-25,14,yes,x,5,x,0.4880799000020488,1,35,test2,2,0.4882121999980882,-70.0
16,sj,f,20,r,1,(1.0544208940658713e-14, 172.20000000000002),23,-25,14,no,m,6,m,0.617584399995394,1,36,test2,2,0.6176740000009886,-70.0
16,sj,f,20,r,1,(-172.20000000000002, 2.1088417881317425e-14),25,-5,12,no,m,6,m,1.2396948000023258,1,37,test2,2,1.2398181999960798,-70.0
16,sj,f,20,r,1,(121.76378772032349, 121.76378772032349),22,-3,11,yes,x,5,x,0.6659471000020858,1,38,test2,2,0.6661232999977074,-48.0
16,sj,f,20,r,1,(172.20000000000002, 0.0),21,-5,12,yes,x,5,x,0.5506026000002748,1,39,test2,2,0.5509125999960816,-50.0
16,sj,f,20,r,1,(1.0544208940658713e-14, 172.20000000000002),23,-3,11,yes,x,5,x,0.8456539999970119,1,40,test2,2,0.8457800000032876,-48.0
16,sj,f,20,r,1,(121.76378772032349, 121.76378772032349),22,-5,12,yes,x,5,x,0.9081831000003149,1,41,test2,2,0.9085835000005318,-50.0
16,sj,f,20,r,1,(-172.20000000000002, 2.1088417881317425e-14),25,-3,11,yes,x,5,m,0.8211175000033109,0,42,test2,2,0.8212133000051836,-48.0
16,sj,f,20,r,1,(1.0544208940658713e-14, 172.20000000000002),23,-3,11,no,m,6,m,1.2255118000030052,1,43,test2,2,1.22574159999931,-48.0
16,sj,f,20,r,1,(121.76378772032346, -121.76378772032352),28,25,4,yes,x,5,x,0.4923350000026403,1,44,test2,2,0.49291420000372455,-20.0
16,sj,f,20,r,1,(-3.163262682197613e-14, -172.20000000000002),27,-7,13,yes,x,5,x,0.5349987999943551,1,45,test2,2,0.535097299994959,-52.0
16,sj,f,20,r,1,(-172.20000000000002, 2.1088417881317425e-14),25,25,4,yes,x,5,x,0.3897400000059861,1,46,test2,2,0.3899617999995826,-20.0
16,sj,f,20,r,1,(121.76378772032346, -121.76378772032352),28,-7,13,yes,x,5,x,0.4902296000000206,1,47,test2,2,0.4903864999942016,-52.0
16,sj,f,20,r,1,(1.0544208940658713e-14, 172.20000000000002),23,-7,13,yes,x,5,m,0.9402972000025329,0,48,test2,2,0.9404720000020461,-52.0
16,sj,f,20,r,1,(1.0544208940658713e-14, 172.20000000000002),23,-5,12,yes,x,5,x,0.44188040000153705,1,49,test2,2,0.4423137999983737,-50.0
16,sj,f,20,r,1,(-121.76378772032348, 121.76378772032349),24,-7,13,yes,x,5,x,0.43785829999978887,1,50,test2,2,0.43799890000082087,-52.0
16,sj,f,20,r,1,(-121.76378772032352, -121.76378772032348),26,7,3,no,m,6,m,1.6071458000005805,1,51,test2,2,1.6072367999950075,-52.0
16,sj,f,20,r,1,(-121.76378772032348, 121.76378772032349),24,-3,11,yes,x,5,x,0.4819262999953935,1,52,test2,2,0.4821153000011691,-48.0
16,sj,f,20,r,1,(121.76378772032346, -121.76378772032352),28,25,4,no,m,6,m,0.9704551999966498,1,53,test2,2,0.9706080999967526,-48.0
16,sj,f,20,r,1,(-3.163262682197613e-14, -172.20000000000002),27,-25,14,no,m,6,m,1.1736333999942872,1,54,test2,2,1.1737285999988671,-48.0
16,sj,f,20,r,1,(-172.20000000000002, 2.1088417881317425e-14),25,-7,13,yes,x,5,x,0.45276530000410276,1,55,test2,2,0.45288889999937965,-52.0
16,sj,f,20,r,1,(-121.76378772032348, 121.76378772032349),24,25,4,yes,x,5,x,0.4434051999996882,1,56,test2,2,0.44356609999522334,-20.0
16,sj,f,20,r,1,(-121.76378772032348, 121.76378772032349),24,-3,11,yes,x,5,x,1.327470899996115,1,57,test2,2,1.3275671000010334,-48.0
16,sj,f,20,r,1,(-3.163262682197613e-14, -172.20000000000002),27,25,4,yes,x,5,x,0.49750849999691127,1,58,test2,2,0.4979631000023801,-20.0
16,sj,f,20,r,1,(121.76378772032346, -121.76378772032352),28,-7,13,yes,x,5,x,0.6079884999999194,1,59,test2,2,0.6081899999990128,-52.0
16,sj,f,20,r,1,(-121.76378772032348, 121.76378772032349),24,-3,11,no,m,6,m,1.1520903999989969,1,60,test2,2,1.152318300002662,-52.0
16,sj,f,20,r,1,(172.20000000000002, 0.0),21,-25,14,yes,x,5,x,0.5359947999968426,1,61,test2,2,0.5362126000036369,-70.0
16,sj,f,20,r,1,(-172.20000000000002, 2.1088417881317425e-14),25,7,3,yes,x,5,x,0.7817823000004864,1,62,test2,2,0.7819221999961883,-38.0
16,sj,f,20,r,1,(1.0544208940658713e-14, 172.20000000000002),23,-5,12,no,m,6,m,0.8476470000023255,1,63,test2,2,0.8477424000011524,-38.0
16,sj,f,20,r,1,(172.20000000000002, 0.0),21,-3,11,yes,x,5,x,1.3897928000005777,1,64,test2,2,1.3906830999985687,-48.0
16,sj,f,20,r,1,(121.76378772032349, 121.76378772032349),22,-5,12,yes,x,5,x,0.6392156000001705,1,65,test2,2,0.6393565000034869,-50.0
16,sj,f,20,r,1,(172.20000000000002, 0.0),21,25,4,yes,x,5,x,0.5584280999973998,1,66,test2,2,0.5592618999944534,-20.0
16,sj,f,20,r,1,(121.76378772032349, 121.76378772032349),22,25,4,no,m,6,m,0.9695743999982369,1,67,test2,2,0.9698692999954801,-20.0
16,sj,f,20,r,1,(-121.76378772032352, -121.76378772032348),26,-7,13,yes,x,5,x,0.43303739999828395,1,68,test2,2,0.4332060999950045,-52.0
16,sj,f,20,r,1,(172.20000000000002, 0.0),21,-25,14,no,m,6,m,0.7813852000035695,1,69,test2,2,0.7814810999989277,-52.0
16,sj,f,20,r,1,(121.76378772032346, -121.76378772032352),28,-5,12,yes,x,5,x,0.579663000004075,1,70,test2,2,0.5798471000016434,-50.0
16,sj,f,20,r,1,(-3.163262682197613e-14, -172.20000000000002),27,-5,12,yes,x,5,x,0.5803030000024592,1,71,test2,2,0.5805339999933494,-50.0
16,sj,f,20,r,1,(-121.76378772032348, 121.76378772032349),24,7,3,yes,x,5,x,0.7234428000010666,1,72,test2,2,0.7237929000039003,-38.0
16,sj,f,20,r,1,(-121.76378772032352, -121.76378772032348),26,-25,14,yes,x,5,x,0.603864099997736,1,73,test2,2,0.6040065999986837,-70.0
16,sj,f,20,r,1,(121.76378772032346, -121.76378772032352),28,3,1,yes,x,5,x,1.340702200002852,1,74,test2,2,1.3408093999969424,-42.0
16,sj,f,20,r,1,(121.76378772032349, 121.76378772032349),22,5,2,yes,x,5,x,0.7010155999960261,1,75,test2,2,0.7012704000007943,-40.0
16,sj,f,20,r,1,(1.0544208940658713e-14, 172.20000000000002),23,-25,14,yes,x,5,x,0.4897586000006413,1,76,test2,2,0.4899493999982951,-70.0
16,sj,f,20,r,1,(121.76378772032349, 121.76378772032349),22,-5,12,no,m,6,m,1.1223572000017157,1,77,test2,2,1.122579199996835,-70.0
16,sj,f,20,r,1,(-121.76378772032348, 121.76378772032349),24,-5,12,yes,x,5,x,0.5901028999942355,1,78,test2,2,0.5901914999994915,-50.0
16,sj,f,20,r,1,(-121.76378772032352, -121.76378772032348),26,25,4,yes,x,5,x,0.48053609999624314,1,79,test2,2,0.48064940000040224,-20.0
16,sj,f,20,r,1,(121.76378772032349, 121.76378772032349),22,-25,14,yes,x,5,x,0.4849294000014197,1,80,test2,2,0.48505629999999655,-70.0
16,sj,f,20,r,1,(-121.76378772032348, 121.76378772032349),24,-25,14,yes,x,5,x,0.6396488000027603,1,81,test2,2,0.6398813000050723,-70.0
16,sj,f,20,r,1,(-121.76378772032352, -121.76378772032348),26,-5,12,no,m,6,m,0.7455204999932903,1,82,test2,2,0.7459291000050143,-70.0
16,sj,f,20,r,1,(-121.76378772032348, 121.76378772032349),24,5,2,yes,x,5,m,0.8439676999987569,0,83,test2,2,0.8446213999995962,-40.0
16,sj,f,20,r,1,(1.0544208940658713e-14, 172.20000000000002),23,25,4,no,m,6,m,1.0046559999973397,1,84,test2,2,1.0048547999977018,-40.0
16,sj,f,20,r,1,(-3.163262682197613e-14, -172.20000000000002),27,-5,12,yes,x,5,x,0.5036976999981562,1,85,test2,2,0.5038229999991017,-50.0
16,sj,f,20,r,1,(1.0544208940658713e-14, 172.20000000000002),23,3,1,yes,x,5,x,0.8333032999944407,1,86,test2,2,0.8334824999983539,-42.0
16,sj,f,20,r,1,(121.76378772032349, 121.76378772032349),22,25,4,yes,x,5,x,0.44559839999419637,1,87,test2,2,0.44596219999948516,-20.0
16,sj,f,20,r,1,(172.20000000000002, 0.0),21,25,4,no,m,6,m,0.9148583999995026,1,88,test2,2,0.9149858000018867,-20.0
16,sj,f,20,r,1,(-3.163262682197613e-14, -172.20000000000002),27,-25,14,yes,x,5,x,0.4838194999974803,1,89,test2,2,0.4839125999933458,-70.0
16,sj,f,20,r,1,(121.76378772032346, -121.76378772032352),28,7,3,no,m,6,m,0.8057274999955553,1,90,test2,2,0.8066304999956628,-70.0
16,sj,f,20,r,1,(1.0544208940658713e-14, 172.20000000000002),23,3,1,yes,x,5,x,0.9110711000030278,1,91,test2,2,0.911196299995936,-42.0
16,sj,f,20,r,1,(1.0544208940658713e-14, 172.20000000000002),23,5,2,yes,x,5,x,0.5001312000022153,1,92,test2,2,0.5002597999991849,-40.0
16,sj,f,20,r,1,(121.76378772032349, 121.76378772032349),22,-7,13,no,m,6,m,0.6477649000007659,1,93,test2,2,0.6481247999981861,-40.0
16,sj,f,20,r,1,(-172.20000000000002, 2.1088417881317425e-14),25,3,1,no,m,6,m,0.8120999999955529,1,94,test2,2,0.8125168999977177,-40.0
16,sj,f,20,r,1,(-3.163262682197613e-14, -172.20000000000002),27,25,4,yes,x,5,x,0.4895706999959657,1,95,test2,2,0.4899805999957607,-20.0
16,sj,f,20,r,1,(-121.76378772032352, -121.76378772032348),26,-5,12,yes,x,5,x,0.5664547000051243,1,96,test2,2,0.5665473000044585,-50.0
16,sj,f,20,r,1,(-121.76378772032348, 121.76378772032349),24,-25,14,yes,x,5,x,0.5649740000008023,1,1,test1,3,0.5650712999995449,-70.0
16,sj,f,20,r,1,(121.76378772032346, -121.76378772032352),28,-3,11,yes,x,5,x,1.5650901999979396,1,2,test1,3,1.5651999000037904,-48.0
16,sj,f,20,r,1,(-172.20000000000002, 2.1088417881317425e-14),25,-3,11,no,m,6,m,1.1293745000002673,1,3,test1,3,1.1296251000021584,-48.0
16,sj,f,20,r,1,(172.20000000000002, 0.0),21,5,2,yes,x,5,x,0.7121379000018351,1,4,test1,3,0.712564300003578,-40.0
16,sj,f,20,r,1,(-172.20000000000002, 2.1088417881317425e-14),25,5,2,yes,x,5,x,0.4935590000022785,1,5,test1,3,0.4937166999952751,-40.0
16,sj,f,20,r,1,(121.76378772032349, 121.76378772032349),22,5,2,yes,x,5,x,0.5117165999981808,1,6,test1,3,0.5119660999989719,-40.0
16,sj,f,20,r,1,(-172.20000000000002, 2.1088417881317425e-14),25,5,2,no,m,6,m,1.2009987000055844,1,7,test1,3,1.2011077999995905,-40.0
16,sj,f,20,r,1,(-121.76378772032348, 121.76378772032349),24,5,2,no,m,6,m,0.7560637999995379,1,8,test1,3,0.7561585000003106,-40.0
16,sj,f,20,r,1,(-121.76378772032348, 121.76378772032349),24,5,2,yes,x,5,x,0.46820840000145836,1,9,test1,3,0.46829670000443,-40.0
16,sj,f,20,r,1,(-3.163262682197613e-14, -172.20000000000002),27,7,3,yes,x,5,x,0.5721889000051306,1,10,test1,3,0.5722853999977815,-38.0
16,sj,f,20,r,1,(-172.20000000000002, 2.1088417881317425e-14),25,-7,13,yes,x,5,x,0.49788550000084797,1,11,test1,3,0.49800859999959357,-52.0
16,sj,f,20,r,1,(-3.163262682197613e-14, -172.20000000000002),27,-7,13,no,m,6,m,0.961301999996067,1,12,test1,3,0.9613945000019157,-52.0
16,sj,f,20,r,1,(-172.20000000000002, 2.1088417881317425e-14),25,5,2,yes,x,5,x,0.6478249000065261,1,13,test1,3,0.6480155999961426,-40.0
16,sj,f,20,r,1,(172.20000000000002, 0.0),21,25,4,yes,x,5,x,0.5612914000012097,1,14,test1,3,0.561392399999022,-20.0
16,sj,f,20,r,1,(121.76378772032349, 121.76378772032349),22,-25,14,yes,x,5,x,0.4391987000053632,1,15,test1,3,0.43931520000478486,-70.0
16,sj,f,20,r,1,(121.76378772032346, -121.76378772032352),28,-25,14,yes,x,5,x,0.42822829999931855,1,16,test1,3,0.4289123000053223,-70.0
16,sj,f,20,r,1,(1.0544208940658713e-14, 172.20000000000002),23,5,2,yes,x,5,x,0.565819499999634,1,17,test1,3,0.566034799994668,-40.0
16,sj,f,20,r,1,(121.76378772032346, -121.76378772032352),28,-5,12,no,m,6,m,0.708467099997506,1,18,test1,3,0.7086113999976078,-40.0
16,sj,f,20,r,1,(121.76378772032349, 121.76378772032349),22,5,2,no,m,6,m,0.7346801999956369,1,19,test1,3,0.7353465999985929,-40.0
16,sj,f,20,r,1,(172.20000000000002, 0.0),21,7,3,yes,x,5,x,0.6170796000005794,1,20,test1,3,0.617286000000604,-38.0
16,sj,f,20,r,1,(1.0544208940658713e-14, 172.20000000000002),23,3,1,no,m,6,m,0.7573335999986739,1,21,test1,3,0.7578322999979719,-38.0
16,sj,f,20,r,1,(-172.20000000000002, 2.1088417881317425e-14),25,7,3,no,m,6,m,0.9851868999976432,1,22,test1,3,0.985400400000799,-38.0
16,sj,f,20,r,1,(172.20000000000002, 0.0),21,5,2,no,m,6,m,1.096575399998983,1,23,test1,3,1.0968916999991052,-38.0
16,sj,f,20,r,1,(121.76378772032346, -121.76378772032352),28,25,4,yes,x,5,x,0.4598425000003772,1,24,test1,3,0.4600914999973611,-20.0
16,sj,f,20,r,1,(1.0544208940658713e-14, 172.20000000000002),23,25,4,yes,x,5,x,0.6504397000026074,1,25,test1,3,0.6506466999999247,-20.0
16,sj,f,20,r,1,(121.76378772032346, -121.76378772032352),28,5,2,yes,x,5,x,0.46850719999929424,1,26,test1,3,0.46882560000085505,-40.0
16,sj,f,20,r,1,(-172.20000000000002, 2.1088417881317425e-14),25,7,3,yes,x,5,x,0.5538912000047276,1,27,test1,3,0.5540003999994951,-38.0
16,sj,f,20,r,1,(-121.76378772032348, 121.76378772032349),24,3,1,yes,x,5,x,0.7834264999983134,1,28,test1,3,0.7836624999981723,-42.0
16,sj,f,20,r,1,(121.76378772032346, -121.76378772032352),28,-25,14,yes,x,5,x,0.4858014999990701,1,29,test1,3,0.48607909999554977,-70.0
16,sj,f,20,r,1,(-121.76378772032348, 121.76378772032349),24,7,3,no,m,6,m,0.5437280000041937,1,30,test1,3,0.5440057000014349,-70.0
16,sj,f,20,r,1,(-3.163262682197613e-14, -172.20000000000002),27,3,1,yes,x,5,x,0.6601336000021547,1,31,test1,3,0.6610240000009071,-42.0
16,sj,f,20,r,1,(-121.76378772032352, -121.76378772032348),26,-7,13,yes,x,5,x,0.5088489000045229,1,32,test1,3,0.5089445000048727,-52.0
16,sj,f,20,r,1,(121.76378772032349, 121.76378772032349),22,3,1,no,m,6,m,0.7022644999960903,1,33,test1,3,0.7024206999994931,-52.0
16,sj,f,20,r,1,(172.20000000000002, 0.0),21,-3,11,yes,x,5,m,0.7210278999991715,0,34,test1,3,0.721143700000539,-48.0
16,sj,f,20,r,1,(-121.76378772032352, -121.76378772032348),26,3,1,yes,x,5,x,0.619219799998973,1,35,test1,3,0.6193185999945854,-42.0
16,sj,f,20,r,1,(-172.20000000000002, 2.1088417881317425e-14),25,3,1,yes,x,5,x,0.5084650999997393,1,36,test1,3,0.5088198999947053,-42.0
16,sj,f,20,r,1,(-121.76378772032348, 121.76378772032349),24,-25,14,no,m,6,m,0.7289012999972329,1,37,test1,3,0.7290118999953847,-42.0
16,sj,f,20,r,1,(121.76378772032346, -121.76378772032352),28,3,1,yes,x,5,x,0.5922272000025259,1,38,test1,3,0.5924744000003557,-42.0
16,sj,f,20,r,1,(1.0544208940658713e-14, 172.20000000000002),23,5,2,no,m,6,x,1.1526677000001655,0,39,test1,3,1.153321900004812,-42.0
16,sj,f,20,r,1,(-172.20000000000002, 2.1088417881317425e-14),25,25,4,yes,x,5,x,0.6296722000042791,1,40,test1,3,0.6297723000025144,-20.0
16,sj,f,20,r,1,(121.76378772032349, 121.76378772032349),22,3,1,yes,x,5,x,1.031469699999434,1,41,test1,3,1.0315658999970765,-42.0
16,sj,f,20,r,1,(172.20000000000002, 0.0),21,3,1,yes,x,5,x,0.7215634000021964,1,42,test1,3,0.7217189999937546,-42.0
16,sj,f,20,r,1,(172.20000000000002, 0.0),21,7,3,yes,x,5,x,0.6259250999937649,1,43,test1,3,0.6264355999956024,-38.0
16,sj,f,20,r,1,(-3.163262682197613e-14, -172.20000000000002),27,5,2,no,m,6,x,0.8831669000064721,0,44,test1,3,0.8834962999972049,-38.0
16,sj,f,20,r,1,(-3.163262682197613e-14, -172.20000000000002),27,-25,14,yes,x,5,x,0.3858903000000282,1,45,test1,3,0.3865589999986696,-70.0
16,sj,f,20,r,1,(-3.163262682197613e-14, -172.20000000000002),27,3,1,no,m,6,m,0.7645533999966574,1,46,test1,3,0.7646833999970113,-70.0
16,sj,f,20,r,1,(-3.163262682197613e-14, -172.20000000000002),27,5,2,yes,x,5,x,0.6627455999987433,1,47,test1,3,0.6630253999974229,-40.0
16,sj,f,20,r,1,(-121.76378772032352, -121.76378772032348),26,-5,12,yes,x,5,x,0.4857401999979629,1,48,test1,3,0.4858359999998356,-50.0
16,sj,f,20,r,1,(-121.76378772032352, -121.76378772032348),26,5,2,no,m,6,m,1.2331986999997753,1,49,test1,3,1.2334115000048769,-50.0
16,sj,f,20,r,1,(121.76378772032346, -121.76378772032352),28,7,3,yes,x,5,x,0.8839614000025904,1,50,test1,3,0.8840915000037057,-38.0
16,sj,f,20,r,1,(121.76378772032349, 121.76378772032349),22,7,3,yes,x,5,x,0.524444599999697,1,51,test1,3,0.524537400000554,-38.0
16,sj,f,20,r,1,(-121.76378772032348, 121.76378772032349),24,-5,12,yes,x,5,x,0.5152692999981809,1,52,test1,3,0.5155779999986407,-50.0
16,sj,f,20,r,1,(-172.20000000000002, 2.1088417881317425e-14),25,25,4,no,m,6,x,0.7352581000013743,0,53,test1,3,0.7354905000029248,-50.0
16,sj,f,20,r,1,(-121.76378772032352, -121.76378772032348),26,-3,11,yes,x,5,x,0.6126335000008112,1,54,test1,3,0.6127428000036161,-48.0
16,sj,f,20,r,1,(-172.20000000000002, 2.1088417881317425e-14),25,-7,13,no,m,6,x,1.4302107999974396,0,55,test1,3,1.4303022000021883,-48.0
16,sj,f,20,r,1,(1.0544208940658713e-14, 172.20000000000002),23,-7,13,yes,x,5,x,0.7349874999999884,1,56,test1,3,0.7353536999944481,-52.0
16,sj,f,20,r,1,(-3.163262682197613e-14, -172.20000000000002),27,7,3,yes,x,5,x,0.5473811000047135,1,57,test1,3,0.5476799999960349,-38.0
16,sj,f,20,r,1,(-121.76378772032352, -121.76378772032348),26,-3,11,no,m,6,m,0.599571399994602,1,58,test1,3,0.5996659000011277,-38.0
16,sj,f,20,r,1,(-121.76378772032352, -121.76378772032348),26,-7,13,no,m,6,m,0.6811358999984805,1,59,test1,3,0.681294699999853,-38.0
16,sj,f,20,r,1,(-172.20000000000002, 2.1088417881317425e-14),25,-5,12,yes,x,5,x,0.6335087999977986,1,60,test1,3,0.6336014999978943,-50.0
16,sj,f,20,r,1,(172.20000000000002, 0.0),21,-3,11,no,m,6,m,1.4387225000027684,1,61,test1,3,1.4389634000035585,-50.0
16,sj,f,20,r,1,(-3.163262682197613e-14, -172.20000000000002),27,5,2,yes,x,5,x,0.76945490000071,1,62,test1,3,0.7697833999991417,-40.0
16,sj,f,20,r,1,(1.0544208940658713e-14, 172.20000000000002),23,-25,14,yes,x,5,x,0.4359712000004947,1,63,test1,3,0.43649610000284156,-70.0
16,sj,f,20,r,1,(-3.163262682197613e-14, -172.20000000000002),27,-3,11,yes,x,5,x,0.7661450999949011,1,64,test1,3,0.7663749999992433,-48.0
16,sj,f,20,r,1,(172.20000000000002, 0.0),21,3,1,yes,x,5,m,0.7365477999992436,0,65,test1,3,0.7366476999959559,-42.0
16,sj,f,20,r,1,(-121.76378772032352, -121.76378772032348),26,-3,11,yes,x,5,x,0.6445034999997006,1,66,test1,3,0.6446219999997993,-48.0
16,sj,f,20,r,1,(-3.163262682197613e-14, -172.20000000000002),27,-3,11,yes,x,5,x,0.4734641999966698,1,67,test1,3,0.47368559999449644,-48.0
16,sj,f,20,r,1,(121.76378772032346, -121.76378772032352),28,-7,13,no,m,6,m,1.0099403999993228,1,68,test1,3,1.0101773999995203,-48.0
16,sj,f,20,r,1,(-172.20000000000002, 2.1088417881317425e-14),25,3,1,yes,x,5,x,0.6051410000000033,1,69,test1,3,0.6052612999992562,-42.0
16,sj,f,20,r,1,(-172.20000000000002, 2.1088417881317425e-14),25,-25,14,yes,x,5,x,0.6635590999940177,1,70,test1,3,0.6639880000002449,-70.0
16,sj,f,20,r,1,(-121.76378772032348, 121.76378772032349),24,-5,12,no,m,6,m,0.943067100000917,1,71,test1,3,0.9435560999991139,-70.0
16,sj,f,20,r,1,(172.20000000000002, 0.0),21,-7,13,yes,x,5,x,0.7387836999987485,1,72,test1,3,0.739608900003077,-52.0
16,sj,f,20,r,1,(1.0544208940658713e-14, 172.20000000000002),23,7,3,no,m,6,x,0.7844403999988572,0,73,test1,3,0.7845551999998861,-52.0
16,sj,f,20,r,1,(121.76378772032346, -121.76378772032352),28,-3,11,yes,x,5,x,0.6941011999952025,1,74,test1,3,0.694211300004099,-48.0
16,sj,f,20,r,1,(121.76378772032349, 121.76378772032349),22,25,4,yes,x,5,x,0.4990248000030988,1,75,test1,3,0.4992571000038879,-20.0
16,sj,f,20,r,1,(-121.76378772032348, 121.76378772032349),24,3,1,yes,x,5,x,0.5929303999946569,1,76,test1,3,0.593219099995622,-42.0
16,sj,f,20,r,1,(1.0544208940658713e-14, 172.20000000000002),23,7,3,yes,x,5,x,0.5048659000021871,1,77,test1,3,0.5054799999998068,-38.0
16,sj,f,20,r,1,(172.20000000000002, 0.0),21,-7,13,yes,x,5,x,0.6149512999982107,1,78,test1,3,0.6151030000037281,-52.0
16,sj,f,20,r,1,(121.76378772032346, -121.76378772032352),28,3,1,no,m,6,m,0.9380996000036248,1,79,test1,3,0.9382111000013538,-52.0
16,sj,f,20,r,1,(1.0544208940658713e-14, 172.20000000000002),23,7,3,yes,x,5,x,0.4599037000007229,1,80,test1,3,0.460137100002612,-38.0
16,sj,f,20,r,1,(121.76378772032349, 121.76378772032349),22,7,3,no,m,6,m,0.7360955999974976,1,81,test1,3,0.7363475000020117,-38.0
16,sj,f,20,r,1,(1.0544208940658713e-14, 172.20000000000002),23,-7,13,no,m,6,m,0.7250229999990552,1,82,test1,3,0.725330400004168,-38.0
16,sj,f,20,r,1,(121.76378772032349, 121.76378772032349),22,-3,11,no,m,6,m,0.6974709999994957,1,83,test1,3,0.6976657999985036,-38.0
16,sj,f,20,r,1,(1.0544208940658713e-14, 172.20000000000002),23,-5,12,yes,x,5,x,0.4359799999947427,1,84,test1,3,0.43613319999712985,-50.0
16,sj,f,20,r,1,(-121.76378772032352, -121.76378772032348),26,5,2,yes,x,5,x,0.7027553000007174,1,85,test1,3,0.7028760000030161,-40.0
16,sj,f,20,r,1,(121.76378772032346, -121.76378772032352),28,7,3,yes,x,5,x,0.6906613000028301,1,86,test1,3,0.6907572999989497,-38.0
16,sj,f,20,r,1,(121.76378772032349, 121.76378772032349),22,-3,11,yes,x,5,m,0.80720769999607,0,87,test1,3,0.8074345999993966,-48.0
16,sj,f,20,r,1,(-3.163262682197613e-14, -172.20000000000002),27,-7,13,yes,x,5,x,0.45501810000132537,1,88,test1,3,0.45525939999788534,-52.0
16,sj,f,20,r,1,(-121.76378772032352, -121.76378772032348),26,25,4,yes,x,5,x,0.4943081000019447,1,89,test1,3,0.49456220000138273,-20.0
16,sj,f,20,r,1,(-3.163262682197613e-14, -172.20000000000002),27,-5,12,no,m,6,m,0.7394512000028044,1,90,test1,3,0.7396890000018175,-20.0
16,sj,f,20,r,1,(-121.76378772032348, 121.76378772032349),24,25,4,no,m,6,m,1.1525582000031136,1,91,test1,3,1.1533732000025338,-20.0
16,sj,f,20,r,1,(-121.76378772032348, 121.76378772032349),24,-7,13,yes,x,5,x,0.4798953999998048,1,92,test1,3,0.4799937999996473,-52.0
16,sj,f,20,r,1,(-172.20000000000002, 2.1088417881317425e-14),25,-3,11,yes,x,5,x,0.6350117999973008,1,93,test1,3,0.6352991000021575,-48.0
16,sj,f,20,r,1,(172.20000000000002, 0.0),21,-25,14,yes,x,5,x,0.47754880000138655,1,94,test1,3,0.47767900000326335,-70.0
16,sj,f,20,r,1,(172.20000000000002, 0.0),21,-5,12,yes,x,5,x,0.4789782000007108,1,95,test1,3,0.4792974000010872,-50.0
16,sj,f,20,r,1,(-121.76378772032348, 121.76378772032349),24,3,1,no,m,6,m,1.1938353000005009,1,96,test1,3,1.19415950000257,-50.0
16,sj,f,20,r,1,(172.20000000000002, 0.0),21,7,3,no,m,6,m,1.1253834000017378,1,1,test2,3,1.1255453999983729,-50.0
16,sj,f,20,r,1,(-121.76378772032352, -121.76378772032348),26,7,3,yes,x,5,x,0.4817564000040875,1,2,test2,3,0.4824695999996038,-38.0
16,sj,f,20,r,1,(172.20000000000002, 0.0),21,5,2,yes,x,5,x,0.5411607999994885,1,3,test2,3,0.5418067999999039,-40.0
16,sj,f,20,r,1,(-3.163262682197613e-14, -172.20000000000002),27,7,3,no,m,6,m,0.9467331999985618,1,4,test2,3,0.9469647000005352,-40.0
16,sj,f,20,r,1,(-121.76378772032352, -121.76378772032348),26,7,3,yes,x,5,x,0.48965929999394575,1,5,test2,3,0.4900178000025335,-38.0
16,sj,f,20,r,1,(172.20000000000002, 0.0),21,-7,13,no,m,6,m,0.8537136000013561,1,6,test2,3,0.8546046000046772,-38.0
16,sj,f,20,r,1,(-121.76378772032352, -121.76378772032348),26,5,2,yes,x,5,x,0.5625542999987374,1,7,test2,3,0.5627004999987548,-40.0
16,sj,f,20,r,1,(121.76378772032349, 121.76378772032349),22,7,3,yes,x,5,x,0.7461376999999629,1,8,test2,3,0.7462321999992128,-38.0
16,sj,f,20,r,1,(-3.163262682197613e-14, -172.20000000000002),27,25,4,no,m,6,m,1.1434243000039714,1,9,test2,3,1.1436766000042553,-38.0
16,sj,f,20,r,1,(-121.76378772032348, 121.76378772032349),24,25,4,yes,x,5,x,0.741633700003149,1,10,test2,3,0.7418050000051153,-20.0
16,sj,f,20,r,1,(-121.76378772032352, -121.76378772032348),26,-25,14,yes,x,5,x,0.48169030000281055,1,11,test2,3,0.4818373000016436,-70.0
16,sj,f,20,r,1,(-121.76378772032352, -121.76378772032348),26,3,1,yes,x,5,m,0.910573100001784,0,12,test2,3,0.9106799000001047,-42.0
16,sj,f,20,r,1,(1.0544208940658713e-14, 172.20000000000002),23,25,4,yes,x,5,x,0.384540899998683,1,13,test2,3,0.38469590000022436,-20.0
16,sj,f,20,r,1,(121.76378772032349, 121.76378772032349),22,-7,13,yes,x,5,x,0.5031458000012208,1,14,test2,3,0.5032573999997112,-52.0
16,sj,f,20,r,1,(-121.76378772032352, -121.76378772032348),26,-25,14,no,m,6,m,0.7348491000011563,1,15,test2,3,0.7350905000057537,-52.0
16,sj,f,20,r,1,(121.76378772032349, 121.76378772032349),22,3,1,yes,x,5,x,0.8365692000006675,1,16,test2,3,0.836663399997633,-42.0
16,sj,f,20,r,1,(-121.76378772032348, 121.76378772032349),24,-7,13,no,m,6,m,1.4657544999936363,1,17,test2,3,1.4661330000017188,-42.0
16,sj,f,20,r,1,(-121.76378772032352, -121.76378772032348),26,25,4,no,m,6,m,0.7763960000011139,1,18,test2,3,0.7765370999986771,-42.0
16,sj,f,20,r,1,(-121.76378772032352, -121.76378772032348),26,3,1,no,m,6,m,1.09572720000142,1,19,test2,3,1.0958422000039718,-42.0
16,sj,f,20,r,1,(121.76378772032349, 121.76378772032349),22,-7,13,yes,x,5,x,0.5519211999999243,1,20,test2,3,0.5522541000027559,-52.0
16,sj,f,20,r,1,(172.20000000000002, 0.0),21,3,1,no,m,6,m,0.6580193999980111,1,21,test2,3,0.6584502000041539,-52.0
16,sj,f,20,r,1,(121.76378772032346, -121.76378772032352),28,-5,12,yes,x,5,x,0.668573800001468,1,22,test2,3,0.6689574999982142,-50.0
16,sj,f,20,r,1,(-121.76378772032348, 121.76378772032349),24,7,3,yes,x,5,x,0.4372871999948984,1,23,test2,3,0.4374736000027042,-38.0
16,sj,f,20,r,1,(121.76378772032349, 121.76378772032349),22,-25,14,no,m,6,m,0.781757299999299,1,24,test2,3,0.7818843999993987,-38.0
16,sj,f,20,r,1,(121.76378772032346, -121.76378772032352),28,-3,11,no,m,6,m,0.9015631000002031,1,25,test2,3,0.9019456999958493,-38.0
16,sj,f,20,r,1,(121.76378772032346, -121.76378772032352),28,5,2,yes,x,5,x,0.5667322000008426,1,26,test2,3,0.5670248000024003,-40.0
16,sj,f,20,r,1,(1.0544208940658713e-14, 172.20000000000002),23,-3,11,yes,x,5,x,0.6587140999981784,1,27,test2,3,0.6590125000002445,-48.0
16,sj,f,20,r,1,(-172.20000000000002, 2.1088417881317425e-14),25,-5,12,yes,x,5,x,0.41944320000038715,1,28,test2,3,0.4197705999977188,-50.0
16,sj,f,20,r,1,(-3.163262682197613e-14, -172.20000000000002),27,3,1,yes,x,5,x,0.5646305000045686,1,29,test2,3,0.5647558999989997,-42.0
16,sj,f,20,r,1,(121.76378772032346, -121.76378772032352),28,5,2,no,m,6,m,0.7040272000012919,1,30,test2,3,0.7046967999995104,-42.0
16,sj,f,20,r,1,(121.76378772032346, -121.76378772032352),28,-25,14,no,m,6,m,0.7423099000006914,1,31,test2,3,0.742570499998692,-42.0
16,sj,f,20,r,1,(172.20000000000002, 0.0),21,-5,12,no,m,6,m,0.8177094999991823,1,32,test2,3,0.8180282999965129,-42.0
16,sj,f,20,r,1,(-3.163262682197613e-14, -172.20000000000002),27,-3,11,no,m,6,m,0.6730744000014965,1,33,test2,3,0.6732080999936443,-42.0
16,sj,f,20,r,1,(-172.20000000000002, 2.1088417881317425e-14),25,-25,14,no,m,6,x,0.9337124000012409,0,34,test2,3,0.9338554000059958,-42.0
16,sj,f,20,r,1,(-172.20000000000002, 2.1088417881317425e-14),25,-25,14,yes,x,5,x,0.43278770000324585,1,35,test2,3,0.43334959999629064,-70.0
16,sj,f,20,r,1,(1.0544208940658713e-14, 172.20000000000002),23,-25,14,no,m,6,m,0.7535147000016877,1,36,test2,3,0.7543026999992435,-70.0
16,sj,f,20,r,1,(-172.20000000000002, 2.1088417881317425e-14),25,-5,12,no,m,6,m,0.7428284999987227,1,37,test2,3,0.7430068999965442,-70.0
16,sj,f,20,r,1,(121.76378772032349, 121.76378772032349),22,-3,11,yes,x,5,x,0.5246332000024267,1,38,test2,3,0.5248776999942493,-48.0
16,sj,f,20,r,1,(172.20000000000002, 0.0),21,-5,12,yes,x,5,x,0.7593257000044105,1,39,test2,3,0.759522599997581,-50.0
16,sj,f,20,r,1,(1.0544208940658713e-14, 172.20000000000002),23,-3,11,yes,x,5,x,0.7593454999951064,1,40,test2,3,0.7604476999986218,-48.0
16,sj,f,20,r,1,(121.76378772032349, 121.76378772032349),22,-5,12,yes,x,5,x,0.4786224999988917,1,41,test2,3,0.47900359999766806,-50.0
16,sj,f,20,r,1,(-172.20000000000002, 2.1088417881317425e-14),25,-3,11,yes,x,5,x,0.9462485000040033,1,42,test2,3,0.9465452000004007,-48.0
16,sj,f,20,r,1,(1.0544208940658713e-14, 172.20000000000002),23,-3,11,no,m,6,m,1.0489502999989782,1,43,test2,3,1.0493849999984377,-48.0
16,sj,f,20,r,1,(121.76378772032346, -121.76378772032352),28,25,4,yes,x,5,x,0.5771793000021717,1,44,test2,3,0.57739930000389,-20.0
16,sj,f,20,r,1,(-3.163262682197613e-14, -172.20000000000002),27,-7,13,yes,x,5,x,0.5092551999987336,1,45,test2,3,0.5094485000008717,-52.0
16,sj,f,20,r,1,(-172.20000000000002, 2.1088417881317425e-14),25,25,4,yes,x,5,x,0.433721900000819,1,46,test2,3,0.43394610000541434,-20.0
16,sj,f,20,r,1,(121.76378772032346, -121.76378772032352),28,-7,13,yes,x,5,x,0.5242231000011088,1,47,test2,3,0.5243207999956212,-52.0
16,sj,f,20,r,1,(1.0544208940658713e-14, 172.20000000000002),23,-7,13,yes,x,5,x,0.4526817000005394,1,48,test2,3,0.45300940000015544,-52.0
16,sj,f,20,r,1,(1.0544208940658713e-14, 172.20000000000002),23,-5,12,yes,x,5,x,0.510102399995958,1,49,test2,3,0.5102263000007952,-50.0
16,sj,f,20,r,1,(-121.76378772032348, 121.76378772032349),24,-7,13,yes,x,5,x,0.47059969999827445,1,50,test2,3,0.4708396999994875,-52.0
16,sj,f,20,r,1,(-121.76378772032352, -121.76378772032348),26,7,3,no,m,6,m,0.7038634000055026,1,51,test2,3,0.7039780999984941,-52.0
16,sj,f,20,r,1,(-121.76378772032348, 121.76378772032349),24,-3,11,yes,x,5,x,0.6212023999978555,1,52,test2,3,0.6218671000024187,-48.0
16,sj,f,20,r,1,(121.76378772032346, -121.76378772032352),28,25,4,no,m,6,m,0.8760075000027427,1,53,test2,3,0.8761144999953103,-48.0
16,sj,f,20,r,1,(-3.163262682197613e-14, -172.20000000000002),27,-25,14,no,m,6,m,0.7084395999991102,1,54,test2,3,0.7085523999994621,-48.0
16,sj,f,20,r,1,(-172.20000000000002, 2.1088417881317425e-14),25,-7,13,yes,x,5,x,0.7089495999971405,1,55,test2,3,0.7091431000008015,-52.0
16,sj,f,20,r,1,(-121.76378772032348, 121.76378772032349),24,25,4,yes,x,5,x,0.42077229999995325,1,56,test2,3,0.42158670000208076,-20.0
16,sj,f,20,r,1,(-121.76378772032348, 121.76378772032349),24,-3,11,yes,x,5,x,1.2150057000035304,1,57,test2,3,1.2151409000070998,-48.0
16,sj,f,20,r,1,(-3.163262682197613e-14, -172.20000000000002),27,25,4,yes,x,5,x,0.5745648999945843,1,58,test2,3,0.5747350000019651,-20.0
16,sj,f,20,r,1,(121.76378772032346, -121.76378772032352),28,-7,13,yes,x,5,m,0.6736782000007224,0,59,test2,3,0.6740539000020362,-52.0
16,sj,f,20,r,1,(-121.76378772032348, 121.76378772032349),24,-3,11,no,m,6,m,1.0226507999977912,1,60,test2,3,1.0230298999958904,-52.0
16,sj,f,20,r,1,(172.20000000000002, 0.0),21,-25,14,yes,x,5,x,0.6113289999993867,1,61,test2,3,0.6115890000000945,-70.0
16,sj,f,20,r,1,(-172.20000000000002, 2.1088417881317425e-14),25,7,3,yes,x,5,x,0.5069730000031996,1,62,test2,3,0.5073389999961364,-38.0
16,sj,f,20,r,1,(1.0544208940658713e-14, 172.20000000000002),23,-5,12,no,m,6,m,0.5122988000002806,1,63,test2,3,0.5126249000022653,-38.0
16,sj,f,20,r,1,(172.20000000000002, 0.0),21,-3,11,yes,x,5,x,0.7513190999961807,1,64,test2,3,0.751504499996372,-48.0
16,sj,f,20,r,1,(121.76378772032349, 121.76378772032349),22,-5,12,yes,x,5,x,0.9853023999967263,1,65,test2,3,0.9854028999980073,-50.0
16,sj,f,20,r,1,(172.20000000000002, 0.0),21,25,4,yes,x,5,x,0.44397830000525573,1,66,test2,3,0.44407869999849936,-20.0
16,sj,f,20,r,1,(121.76378772032349, 121.76378772032349),22,25,4,no,m,6,m,0.8437593000053312,1,67,test2,3,0.8444544000012684,-20.0
16,sj,f,20,r,1,(-121.76378772032352, -121.76378772032348),26,-7,13,yes,x,5,x,0.6279162999999244,1,68,test2,3,0.6283977999992203,-52.0
16,sj,f,20,r,1,(172.20000000000002, 0.0),21,-25,14,no,m,6,m,0.8620091999982833,1,69,test2,3,0.8621566000001621,-52.0
16,sj,f,20,r,1,(121.76378772032346, -121.76378772032352),28,-5,12,yes,x,5,x,0.6253873999958159,1,70,test2,3,0.6256753999987268,-50.0
16,sj,f,20,r,1,(-3.163262682197613e-14, -172.20000000000002),27,-5,12,yes,x,5,x,0.4351916999949026,1,71,test2,3,0.4352900000012596,-50.0
16,sj,f,20,r,1,(-121.76378772032348, 121.76378772032349),24,7,3,yes,x,5,x,0.4961286999969161,1,72,test2,3,0.49627350000082515,-38.0
16,sj,f,20,r,1,(-121.76378772032352, -121.76378772032348),26,-25,14,yes,x,5,x,0.40843039999890607,1,73,test2,3,0.4085278999991715,-70.0
16,sj,f,20,r,1,(121.76378772032346, -121.76378772032352),28,3,1,yes,x,5,x,0.7596374999993714,1,74,test2,3,0.759800500003621,-42.0
16,sj,f,20,r,1,(121.76378772032349, 121.76378772032349),22,5,2,yes,x,5,x,0.9011994000029517,1,75,test2,3,0.901679199996579,-40.0
16,sj,f,20,r,1,(1.0544208940658713e-14, 172.20000000000002),23,-25,14,yes,x,5,x,0.530621500001871,1,76,test2,3,0.5307198000009521,-70.0
16,sj,f,20,r,1,(121.76378772032349, 121.76378772032349),22,-5,12,no,m,6,m,0.7718506999954116,1,77,test2,3,0.7719773999997415,-70.0
16,sj,f,20,r,1,(-121.76378772032348, 121.76378772032349),24,-5,12,yes,x,5,x,0.4044821999996202,1,78,test2,3,0.4050392999997712,-50.0
16,sj,f,20,r,1,(-121.76378772032352, -121.76378772032348),26,25,4,yes,x,5,x,0.5031626999989385,1,79,test2,3,0.5034701000040513,-20.0
16,sj,f,20,r,1,(121.76378772032349, 121.76378772032349),22,-25,14,yes,x,5,x,0.5095037999999477,1,80,test2,3,0.5096641999989515,-70.0
16,sj,f,20,r,1,(-121.76378772032348, 121.76378772032349),24,-25,14,yes,x,5,x,0.5988393999941763,1,81,test2,3,0.5989372999974876,-70.0
16,sj,f,20,r,1,(-121.76378772032352, -121.76378772032348),26,-5,12,no,m,6,m,0.6846175999962725,1,82,test2,3,0.6849340999979177,-70.0
16,sj,f,20,r,1,(-121.76378772032348, 121.76378772032349),24,5,2,yes,x,5,x,0.4607045000011567,1,83,test2,3,0.46093670000118436,-40.0
16,sj,f,20,r,1,(1.0544208940658713e-14, 172.20000000000002),23,25,4,no,m,6,m,0.7939299999998184,1,84,test2,3,0.7941560000035679,-40.0
16,sj,f,20,r,1,(-3.163262682197613e-14, -172.20000000000002),27,-5,12,yes,x,5,x,0.5195611999952234,1,85,test2,3,0.5200898999974015,-50.0
16,sj,f,20,r,1,(1.0544208940658713e-14, 172.20000000000002),23,3,1,yes,x,5,x,1.020315000001574,1,86,test2,3,1.020546599997033,-42.0
16,sj,f,20,r,1,(121.76378772032349, 121.76378772032349),22,25,4,yes,x,5,x,0.6182316000049468,1,87,test2,3,0.6184260999943945,-20.0
16,sj,f,20,r,1,(172.20000000000002, 0.0),21,25,4,no,m,6,m,1.0140117999981157,1,88,test2,3,1.0141349999976228,-20.0
16,sj,f,20,r,1,(-3.163262682197613e-14, -172.20000000000002),27,-25,14,yes,x,5,x,0.5291085999997449,1,89,test2,3,0.529412299998512,-70.0
16,sj,f,20,r,1,(121.76378772032346, -121.76378772032352),28,7,3,no,m,6,m,1.2077872000008938,1,90,test2,3,1.2078964000029373,-70.0
16,sj,f,20,r,1,(1.0544208940658713e-14, 172.20000000000002),23,3,1,yes,x,5,x,0.6551009000031627,1,91,test2,3,0.655231199998525,-42.0
16,sj,f,20,r,1,(1.0544208940658713e-14, 172.20000000000002),23,5,2,yes,x,5,x,0.6199074999967706,1,92,test2,3,0.6200404000046547,-40.0
16,sj,f,20,r,1,(121.76378772032349, 121.76378772032349),22,-7,13,no,m,6,x,1.35852259999956,0,93,test2,3,1.3586326000004192,-40.0
16,sj,f,20,r,1,(-172.20000000000002, 2.1088417881317425e-14),25,3,1,no,m,6,m,1.4825431999997818,1,94,test2,3,1.4829367999991518,-40.0
16,sj,f,20,r,1,(-3.163262682197613e-14, -172.20000000000002),27,25,4,yes,x,5,x,0.7693008999995072,1,95,test2,3,0.7697385999999824,-20.0
16,sj,f,20,r,1,(-121.76378772032352, -121.76378772032348),26,-5,12,yes,x,5,x,0.6656012000021292,1,96,test2,3,0.6658593000029214,-50.0
16,sj,f,20,r,1,(-121.76378772032348, 121.76378772032349),24,-25,14,yes,x,5,x,0.5245313999985228,1,1,test1,4,0.5246592999974382,-70.0
16,sj,f,20,r,1,(121.76378772032346, -121.76378772032352),28,-3,11,yes,x,5,m,1.183837600001425,0,2,test1,4,1.183994499995606,-48.0
16,sj,f,20,r,1,(-172.20000000000002, 2.1088417881317425e-14),25,-3,11,no,m,6,m,1.1735499999995227,1,3,test1,4,1.1741077000042424,-48.0
16,sj,f,20,r,1,(172.20000000000002, 0.0),21,5,2,yes,x,5,x,0.5625149000043166,1,4,test1,4,0.5626292000015383,-40.0
16,sj,f,20,r,1,(-172.20000000000002, 2.1088417881317425e-14),25,5,2,yes,x,5,x,0.5334698000006028,1,5,test1,4,0.5337807999967481,-40.0
16,sj,f,20,r,1,(121.76378772032349, 121.76378772032349),22,5,2,yes,x,5,x,0.5756995999981882,1,6,test1,4,0.5757968999969307,-40.0
16,sj,f,20,r,1,(-172.20000000000002, 2.1088417881317425e-14),25,5,2,no,m,6,m,0.8851305999996839,1,7,test1,4,0.8853951999990386,-40.0
16,sj,f,20,r,1,(-121.76378772032348, 121.76378772032349),24,5,2,no,m,6,m,1.1935895000060555,1,8,test1,4,1.194196100004774,-40.0
16,sj,f,20,r,1,(-121.76378772032348, 121.76378772032349),24,5,2,yes,x,5,x,0.5333672999986447,1,9,test1,4,0.5334757000018726,-40.0
16,sj,f,20,r,1,(-3.163262682197613e-14, -172.20000000000002),27,7,3,yes,x,5,x,0.7816700999974273,1,10,test1,4,0.7821286000034888,-38.0
16,sj,f,20,r,1,(-172.20000000000002, 2.1088417881317425e-14),25,-7,13,yes,x,5,x,0.5399180999957025,1,11,test1,4,0.540178700000979,-52.0
16,sj,f,20,r,1,(-3.163262682197613e-14, -172.20000000000002),27,-7,13,no,m,6,m,0.7651977999994415,1,12,test1,4,0.7655272999982117,-52.0
16,sj,f,20,r,1,(-172.20000000000002, 2.1088417881317425e-14),25,5,2,yes,x,5,x,0.72978680000233,1,13,test1,4,0.7299925000043004,-40.0
16,sj,f,20,r,1,(172.20000000000002, 0.0),21,25,4,yes,x,5,x,0.5335594999996829,1,14,test1,4,0.5336505000013858,-20.0
16,sj,f,20,r,1,(121.76378772032349, 121.76378772032349),22,-25,14,yes,x,5,x,0.6945091000015964,1,15,test1,4,0.6948191000046791,-70.0
16,sj,f,20,r,1,(121.76378772032346, -121.76378772032352),28,-25,14,yes,x,5,x,0.3844796000048518,1,16,test1,4,0.3846948999998858,-70.0
16,sj,f,20,r,1,(1.0544208940658713e-14, 172.20000000000002),23,5,2,yes,x,5,x,0.44934289999946486,1,17,test1,4,0.44973359999858076,-40.0
16,sj,f,20,r,1,(121.76378772032346, -121.76378772032352),28,-5,12,no,m,6,m,0.610967199994775,1,18,test1,4,0.6110679999983404,-40.0
16,sj,f,20,r,1,(121.76378772032349, 121.76378772032349),22,5,2,no,m,6,m,1.007330099993851,1,19,test1,4,1.0075515000062296,-40.0
16,sj,f,20,r,1,(172.20000000000002, 0.0),21,7,3,yes,x,5,x,0.5996675999995205,1,20,test1,4,0.5999111000055564,-38.0
16,sj,f,20,r,1,(1.0544208940658713e-14, 172.20000000000002),23,3,1,no,m,6,m,0.7282786999930977,1,21,test1,4,0.728638200002024,-38.0
16,sj,f,20,r,1,(-172.20000000000002, 2.1088417881317425e-14),25,7,3,no,m,6,m,0.8284837000028347,1,22,test1,4,0.8286384000020917,-38.0
16,sj,f,20,r,1,(172.20000000000002, 0.0),21,5,2,no,m,6,m,0.9786214999985532,1,23,test1,4,0.9787208999987342,-38.0
16,sj,f,20,r,1,(121.76378772032346, -121.76378772032352),28,25,4,yes,x,5,x,0.4857497999983025,1,24,test1,4,0.485879500003648,-20.0
16,sj,f,20,r,1,(1.0544208940658713e-14, 172.20000000000002),23,25,4,yes,x,5,x,0.4407065999985207,1,25,test1,4,0.44084440000006,-20.0
16,sj,f,20,r,1,(121.76378772032346, -121.76378772032352),28,5,2,yes,x,5,x,0.6231726000041817,1,26,test1,4,0.6232971000063117,-40.0
16,sj,f,20,r,1,(-172.20000000000002, 2.1088417881317425e-14),25,7,3,yes,x,5,x,0.5176804000002448,1,27,test1,4,0.517775200001779,-38.0
16,sj,f,20,r,1,(-121.76378772032348, 121.76378772032349),24,3,1,yes,x,5,x,1.2802173000018229,1,28,test1,4,1.2804292000000714,-42.0
16,sj,f,20,r,1,(121.76378772032346, -121.76378772032352),28,-25,14,yes,x,5,m,0.49921529999846825,0,29,test1,4,0.4994460000016261,-70.0
16,sj,f,20,r,1,(-121.76378772032348, 121.76378772032349),24,7,3,no,m,6,m,1.1442631000027177,1,30,test1,4,1.144380199999432,-70.0
16,sj,f,20,r,1,(-3.163262682197613e-14, -172.20000000000002),27,3,1,yes,x,5,x,0.633216900001571,1,31,test1,4,0.6333200000008219,-42.0
16,sj,f,20,r,1,(-121.76378772032352, -121.76378772032348),26,-7,13,yes,x,5,x,0.4826506000026711,1,32,test1,4,0.48292960000253515,-52.0
16,sj,f,20,r,1,(121.76378772032349, 121.76378772032349),22,3,1,no,m,6,m,1.7198627999969176,1,33,test1,4,1.7201630999988993,-52.0
16,sj,f,20,r,1,(172.20000000000002, 0.0),21,-3,11,yes,x,5,x,0.7142315000019153,1,34,test1,4,0.7145314000008511,-48.0
16,sj,f,20,r,1,(-121.76378772032352, -121.76378772032348),26,3,1,yes,x,5,m,0.8955868999983068,0,35,test1,4,0.8956846999935806,-42.0
16,sj,f,20,r,1,(-172.20000000000002, 2.1088417881317425e-14),25,3,1,yes,x,5,x,0.7220350999996299,1,36,test1,4,0.7222068999981275,-42.0
16,sj,f,20,r,1,(-121.76378772032348, 121.76378772032349),24,-25,14,no,m,6,m,1.2893381000030786,1,37,test1,4,1.289446599999792,-42.0
16,sj,f,20,r,1,(121.76378772032346, -121.76378772032352),28,3,1,yes,x,5,x,1.4147249999950873,1,38,test1,4,1.415079099999275,-42.0
16,sj,f,20,r,1,(1.0544208940658713e-14, 172.20000000000002),23,5,2,no,m,6,m,1.3602506000024732,1,39,test1,4,1.3604874999946333,-42.0
16,sj,f,20,r,1,(-172.20000000000002, 2.1088417881317425e-14),25,25,4,yes,x,5,x,0.5832503999990877,1,40,test1,4,0.5836003000003984,-20.0
16,sj,f,20,r,1,(121.76378772032349, 121.76378772032349),22,3,1,yes,x,5,m,1.1577734000020428,0,41,test1,4,1.1579397999958019,-42.0
16,sj,f,20,r,1,(172.20000000000002, 0.0),21,3,1,yes,x,5,x,0.6468445999998949,1,42,test1,4,0.6469408000048134,-42.0
16,sj,f,20,r,1,(172.20000000000002, 0.0),21,7,3,yes,x,5,x,0.5928624000007403,1,43,test1,4,0.5934302999958163,-38.0
16,sj,f,20,r,1,(-3.163262682197613e-14, -172.20000000000002),27,5,2,no,m,6,m,1.1320265000031213,1,44,test1,4,1.1321229999957723,-38.0
16,sj,f,20,r,1,(-3.163262682197613e-14, -172.20000000000002),27,-25,14,yes,x,5,x,0.4503452999997535,1,45,test1,4,0.45061330000316957,-70.0
16,sj,f,20,r,1,(-3.163262682197613e-14, -172.20000000000002),27,3,1,no,m,6,m,0.9167122999933781,1,46,test1,4,0.9168395000015153,-70.0
16,sj,f,20,r,1,(-3.163262682197613e-14, -172.20000000000002),27,5,2,yes,x,5,x,0.471918099996401,1,47,test1,4,0.47214769999845885,-40.0
16,sj,f,20,r,1,(-121.76378772032352, -121.76378772032348),26,-5,12,yes,x,5,x,0.5312997000000905,1,48,test1,4,0.5313954000012018,-50.0
16,sj,f,20,r,1,(-121.76378772032352, -121.76378772032348),26,5,2,no,m,6,m,1.2561102000036044,1,49,test1,4,1.2565634999991744,-50.0
16,sj,f,20,r,1,(121.76378772032346, -121.76378772032352),28,7,3,yes,x,5,x,0.6283285000026808,1,50,test1,4,0.6284692000044743,-38.0
16,sj,f,20,r,1,(121.76378772032349, 121.76378772032349),22,7,3,yes,x,5,x,0.8284761000031722,1,51,test1,4,0.8287211999995634,-38.0
16,sj,f,20,r,1,(-121.76378772032348, 121.76378772032349),24,-5,12,yes,x,5,x,0.5867916999995941,1,52,test1,4,0.5871385999998893,-50.0
16,sj,f,20,r,1,(-172.20000000000002, 2.1088417881317425e-14),25,25,4,no,m,6,m,1.007975799999258,1,53,test1,4,1.0083840999941458,-50.0
16,sj,f,20,r,1,(-121.76378772032352, -121.76378772032348),26,-3,11,yes,x,5,x,0.6339433999964967,1,54,test1,4,0.6340679999993881,-48.0
16,sj,f,20,r,1,(-172.20000000000002, 2.1088417881317425e-14),25,-7,13,no,m,6,m,0.7754596000013407,1,55,test1,4,0.775588800002879,-48.0
16,sj,f,20,r,1,(1.0544208940658713e-14, 172.20000000000002),23,-7,13,yes,x,5,x,0.6796822000032989,1,56,test1,4,0.6798460999998497,-52.0
16,sj,f,20,r,1,(-3.163262682197613e-14, -172.20000000000002),27,7,3,yes,x,5,x,0.5723817999969469,1,57,test1,4,0.5725586999978987,-38.0
16,sj,f,20,r,1,(-121.76378772032352, -121.76378772032348),26,-3,11,no,m,6,m,1.0619923999984167,1,58,test1,4,1.0621984000026714,-38.0
16,sj,f,20,r,1,(-121.76378772032352, -121.76378772032348),26,-7,13,no,m,6,x,0.614635999998427,0,59,test1,4,0.6149793000004138,-38.0
16,sj,f,20,r,1,(-172.20000000000002, 2.1088417881317425e-14),25,-5,12,yes,x,5,x,0.5677199000056135,1,60,test1,4,0.5678709999992861,-50.0
16,sj,f,20,r,1,(172.20000000000002, 0.0),21,-3,11,no,m,6,m,0.905802199995378,1,61,test1,4,0.9059236999964924,-50.0
16,sj,f,20,r,1,(-3.163262682197613e-14, -172.20000000000002),27,5,2,yes,x,5,x,0.6412587000013446,1,62,test1,4,0.6413523999945028,-40.0
16,sj,f,20,r,1,(1.0544208940658713e-14, 172.20000000000002),23,-25,14,yes,x,5,x,0.7173965000038152,1,63,test1,4,0.7175266000049305,-70.0
16,sj,f,20,r,1,(-3.163262682197613e-14, -172.20000000000002),27,-3,11,yes,x,5,x,1.1013600999940536,1,64,test1,4,1.1015570999952615,-48.0
16,sj,f,20,r,1,(172.20000000000002, 0.0),21,3,1,yes,x,5,m,1.4304579000017839,0,65,test1,4,1.430619700004172,-42.0
16,sj,f,20,r,1,(-121.76378772032352, -121.76378772032348),26,-3,11,yes,x,5,x,1.1225238999977591,1,66,test1,4,1.122762300001341,-48.0
16,sj,f,20,r,1,(-3.163262682197613e-14, -172.20000000000002),27,-3,11,yes,x,5,x,0.5905603999999585,1,67,test1,4,0.5906562999953167,-48.0
16,sj,f,20,r,1,(121.76378772032346, -121.76378772032352),28,-7,13,no,m,6,m,1.207233900000574,1,68,test1,4,1.207477200005087,-48.0
16,sj,f,20,r,1,(-172.20000000000002, 2.1088417881317425e-14),25,3,1,yes,x,5,x,0.7472612999990815,1,69,test1,4,0.7477150000049733,-42.0
16,sj,f,20,r,1,(-172.20000000000002, 2.1088417881317425e-14),25,-25,14,yes,x,5,x,0.5407276999976602,1,70,test1,4,0.5412971999976435,-70.0
16,sj,f,20,r,1,(-121.76378772032348, 121.76378772032349),24,-5,12,no,m,6,m,1.1535345000011148,1,71,test1,4,1.153732899998431,-70.0
16,sj,f,20,r,1,(172.20000000000002, 0.0),21,-7,13,yes,x,5,x,0.9885026999982074,1,72,test1,4,0.988735099999758,-52.0
16,sj,f,20,r,1,(1.0544208940658713e-14, 172.20000000000002),23,7,3,no,m,6,x,0.9021596000020509,0,73,test1,4,0.9024387000026763,-52.0
16,sj,f,20,r,1,(121.76378772032346, -121.76378772032352),28,-3,11,yes,x,5,m,0.9032705999998143,0,74,test1,4,0.9034897000019555,-48.0
16,sj,f,20,r,1,(121.76378772032349, 121.76378772032349),22,25,4,yes,x,5,x,0.7165938000034657,1,75,test1,4,0.7170488000047044,-20.0
16,sj,f,20,r,1,(-121.76378772032348, 121.76378772032349),24,3,1,yes,x,5,x,0.9486294999951497,1,76,test1,4,0.9489970999929938,-42.0
16,sj,f,20,r,1,(1.0544208940658713e-14, 172.20000000000002),23,7,3,yes,x,5,x,0.6240858000019216,1,77,test1,4,0.624181099999987,-38.0
16,sj,f,20,r,1,(172.20000000000002, 0.0),21,-7,13,yes,x,5,x,0.5733704000012949,1,78,test1,4,0.5735377000019071,-52.0
16,sj,f,20,r,1,(121.76378772032346, -121.76378772032352),28,3,1,no,m,6,m,1.8621270000003278,1,79,test1,4,1.8623481999966316,-52.0
16,sj,f,20,r,1,(1.0544208940658713e-14, 172.20000000000002),23,7,3,yes,x,5,x,0.639706699999806,1,80,test1,4,0.6398142000034568,-38.0
16,sj,f,20,r,1,(121.76378772032349, 121.76378772032349),22,7,3,no,m,6,m,1.1126681000023382,1,81,test1,4,1.112762400000065,-38.0
16,sj,f,20,r,1,(1.0544208940658713e-14, 172.20000000000002),23,-7,13,no,m,6,m,1.189673100001528,1,82,test1,4,1.1903222999972058,-38.0
16,sj,f,20,r,1,(121.76378772032349, 121.76378772032349),22,-3,11,no,m,6,m,1.1830836000008276,1,83,test1,4,1.1831844999978784,-38.0
16,sj,f,20,r,1,(1.0544208940658713e-14, 172.20000000000002),23,-5,12,yes,x,5,x,0.5794985000029556,1,84,test1,4,0.5797258999955375,-50.0
16,sj,f,20,r,1,(-121.76378772032352, -121.76378772032348),26,5,2,yes,x,5,x,0.5730406000002404,1,85,test1,4,0.5731604999964475,-40.0
16,sj,f,20,r,1,(121.76378772032346, -121.76378772032352),28,7,3,yes,x,5,x,0.846587099993485,1,86,test1,4,0.8467642000032356,-38.0
16,sj,f,20,r,1,(121.76378772032349, 121.76378772032349),22,-3,11,yes,x,5,x,0.6503186000045389,1,87,test1,4,0.6506064999994123,-48.0
16,sj,f,20,r,1,(-3.163262682197613e-14, -172.20000000000002),27,-7,13,yes,x,5,x,0.5426844999965397,1,88,test1,4,0.5428413000045111,-52.0
16,sj,f,20,r,1,(-121.76378772032352, -121.76378772032348),26,25,4,yes,x,5,x,0.4686929000017699,1,89,test1,4,0.46878560000186553,-20.0
16,sj,f,20,r,1,(-3.163262682197613e-14, -172.20000000000002),27,-5,12,no,m,6,m,0.744183000002522,1,90,test1,4,0.7448632000014186,-20.0
16,sj,f,20,r,1,(-121.76378772032348, 121.76378772032349),24,25,4,no,m,6,m,1.168222300002526,1,91,test1,4,1.168430999998236,-20.0
16,sj,f,20,r,1,(-121.76378772032348, 121.76378772032349),24,-7,13,yes,x,5,x,0.5250196999986656,1,92,test1,4,0.5255891000051633,-52.0
16,sj,f,20,r,1,(-172.20000000000002, 2.1088417881317425e-14),25,-3,11,yes,x,5,x,1.2148324999943725,1,93,test1,4,1.2149408999976004,-48.0
16,sj,f,20,r,1,(172.20000000000002, 0.0),21,-25,14,yes,x,5,x,0.6010447000007844,1,94,test1,4,0.6011627999978373,-70.0
16,sj,f,20,r,1,(172.20000000000002, 0.0),21,-5,12,yes,x,5,m,0.7847458999967785,0,95,test1,4,0.7851865000047837,-50.0
16,sj,f,20,r,1,(-121.76378772032348, 121.76378772032349),24,3,1,no,m,6,m,1.0796921999935876,1,96,test1,4,1.0800005000055535,-50.0
16,sj,f,20,r,1,(172.20000000000002, 0.0),21,7,3,no,m,6,x,1.321852699998999,0,1,test2,4,1.3226295999993454,-50.0
16,sj,f,20,r,1,(-121.76378772032352, -121.76378772032348),26,7,3,yes,x,5,x,0.4835406000056537,1,2,test2,4,0.4836334999999963,-38.0
16,sj,f,20,r,1,(172.20000000000002, 0.0),21,5,2,yes,x,5,x,0.6748618000056013,1,3,test2,4,0.6749732000025688,-40.0
16,sj,f,20,r,1,(-3.163262682197613e-14, -172.20000000000002),27,7,3,no,m,6,m,1.3083685000019614,1,4,test2,4,1.3085903000028338,-40.0
16,sj,f,20,r,1,(-121.76378772032352, -121.76378772032348),26,7,3,yes,x,5,x,0.521457199996803,1,5,test2,4,0.5219385000018519,-38.0
16,sj,f,20,r,1,(172.20000000000002, 0.0),21,-7,13,no,m,6,m,0.7098507999980939,1,6,test2,4,0.7102675999994972,-38.0
16,sj,f,20,r,1,(-121.76378772032352, -121.76378772032348),26,5,2,yes,x,5,x,0.4595517999987351,1,7,test2,4,0.46001650000107475,-40.0
16,sj,f,20,r,1,(121.76378772032349, 121.76378772032349),22,7,3,yes,x,5,x,0.5838489000016125,1,8,test2,4,0.5844023000026937,-38.0
16,sj,f,20,r,1,(-3.163262682197613e-14, -172.20000000000002),27,25,4,no,m,6,m,1.2352341000005254,1,9,test2,4,1.2355162000021664,-38.0
16,sj,f,20,r,1,(-121.76378772032348, 121.76378772032349),24,25,4,yes,x,5,x,0.4599945000009029,1,10,test2,4,0.4602117000031285,-20.0
16,sj,f,20,r,1,(-121.76378772032352, -121.76378772032348),26,-25,14,yes,x,5,x,0.42834530000254745,1,11,test2,4,0.4284546999988379,-70.0
16,sj,f,20,r,1,(-121.76378772032352, -121.76378772032348),26,3,1,yes,x,5,x,0.5370192999980645,1,12,test2,4,0.5371138999980758,-42.0
16,sj,f,20,r,1,(1.0544208940658713e-14, 172.20000000000002),23,25,4,yes,x,5,x,0.5103947000025073,1,13,test2,4,0.5113409000041429,-20.0
16,sj,f,20,r,1,(121.76378772032349, 121.76378772032349),22,-7,13,yes,x,5,x,0.4357199999940349,1,14,test2,4,0.4359505000029458,-52.0
16,sj,f,20,r,1,(-121.76378772032352, -121.76378772032348),26,-25,14,no,m,6,m,0.7197960999983479,1,15,test2,4,0.7199202999981935,-52.0
16,sj,f,20,r,1,(121.76378772032349, 121.76378772032349),22,3,1,yes,x,5,x,0.6118981999970856,1,16,test2,4,0.6120305000004009,-42.0
16,sj,f,20,r,1,(-121.76378772032348, 121.76378772032349),24,-7,13,no,m,6,m,0.8182588999989093,1,17,test2,4,0.818480299996736,-42.0
16,sj,f,20,r,1,(-121.76378772032352, -121.76378772032348),26,25,4,no,m,6,m,0.7127866000009817,1,18,test2,4,0.7134737000014866,-42.0
16,sj,f,20,r,1,(-121.76378772032352, -121.76378772032348),26,3,1,no,m,6,m,0.6813880000045174,1,19,test2,4,0.6815112999975099,-42.0
16,sj,f,20,r,1,(121.76378772032349, 121.76378772032349),22,-7,13,yes,x,5,x,0.6503456999998889,1,20,test2,4,0.6506289999961155,-52.0
16,sj,f,20,r,1,(172.20000000000002, 0.0),21,3,1,no,m,6,x,1.7865559000056237,0,21,test2,4,1.7866508000006434,-52.0
16,sj,f,20,r,1,(121.76378772032346, -121.76378772032352),28,-5,12,yes,x,5,x,0.6872135000012349,1,22,test2,4,0.687553099996876,-50.0
16,sj,f,20,r,1,(-121.76378772032348, 121.76378772032349),24,7,3,yes,x,5,x,0.48537869999563554,1,23,test2,4,0.4854760999951395,-38.0
16,sj,f,20,r,1,(121.76378772032349, 121.76378772032349),22,-25,14,no,m,6,m,1.0881813000014517,1,24,test2,4,1.0883268999969005,-38.0
16,sj,f,20,r,1,(121.76378772032346, -121.76378772032352),28,-3,11,no,m,6,x,1.9216813999955775,0,25,test2,4,1.921776700000919,-38.0
16,sj,f,20,r,1,(121.76378772032346, -121.76378772032352),28,5,2,yes,x,5,x,0.7961986000009347,1,26,test2,4,0.7963547999970615,-40.0
16,sj,f,20,r,1,(1.0544208940658713e-14, 172.20000000000002),23,-3,11,yes,x,5,x,0.7836393999969005,1,27,test2,4,0.7842498999962118,-48.0
16,sj,f,20,r,1,(-172.20000000000002, 2.1088417881317425e-14),25,-5,12,yes,x,5,x,0.5596578000040608,1,28,test2,4,0.5598253999996814,-50.0
16,sj,f,20,r,1,(-3.163262682197613e-14, -172.20000000000002),27,3,1,yes,x,5,x,0.671402300002228,1,29,test2,4,0.6714950999958091,-42.0
16,sj,f,20,r,1,(121.76378772032346, -121.76378772032352),28,5,2,no,m,6,m,1.1526588999986416,1,30,test2,4,1.1530588000023272,-42.0
16,sj,f,20,r,1,(121.76378772032346, -121.76378772032352),28,-25,14,no,m,6,m,0.9208354000002146,1,31,test2,4,0.9211690000011004,-42.0
16,sj,f,20,r,1,(172.20000000000002, 0.0),21,-5,12,no,m,6,m,0.6101975999990827,1,32,test2,4,0.6104190000041854,-42.0
16,sj,f,20,r,1,(-3.163262682197613e-14, -172.20000000000002),27,-3,11,no,m,6,m,0.7360521000009612,1,33,test2,4,0.7361793000018224,-42.0
16,sj,f,20,r,1,(-172.20000000000002, 2.1088417881317425e-14),25,-25,14,no,m,6,m,0.5462885000015376,1,34,test2,4,0.5463929000034113,-42.0
16,sj,f,20,r,1,(-172.20000000000002, 2.1088417881317425e-14),25,-25,14,yes,x,5,x,0.4056901999938418,1,35,test2,4,0.406004500000563,-70.0
16,sj,f,20,r,1,(1.0544208940658713e-14, 172.20000000000002),23,-25,14,no,m,6,m,0.6901666000048863,1,36,test2,4,0.6906005999990157,-70.0
16,sj,f,20,r,1,(-172.20000000000002, 2.1088417881317425e-14),25,-5,12,no,m,6,m,0.5834267000027467,1,37,test2,4,0.5837033999996493,-70.0
16,sj,f,20,r,1,(121.76378772032349, 121.76378772032349),22,-3,11,yes,x,5,x,0.9108200999980909,1,38,test2,4,0.9109113000013167,-48.0
16,sj,f,20,r,1,(172.20000000000002, 0.0),21,-5,12,yes,x,5,x,0.5679363999952329,1,39,test2,4,0.568153500003973,-50.0
16,sj,f,20,r,1,(1.0544208940658713e-14, 172.20000000000002),23,-3,11,yes,x,5,x,1.397212199997739,1,40,test2,4,1.3974374000026728,-48.0
16,sj,f,20,r,1,(121.76378772032349, 121.76378772032349),22,-5,12,yes,x,5,x,0.4883068999988609,1,41,test2,4,0.4885135000004084,-50.0
16,sj,f,20,r,1,(-172.20000000000002, 2.1088417881317425e-14),25,-3,11,yes,x,5,x,0.823155999998562,1,42,test2,4,0.8236139000000549,-48.0
16,sj,f,20,r,1,(1.0544208940658713e-14, 172.20000000000002),23,-3,11,no,m,6,m,1.2885435000061989,1,43,test2,4,1.2886945999998716,-48.0
16,sj,f,20,r,1,(121.76378772032346, -121.76378772032352),28,25,4,yes,x,5,x,0.5352312999966671,1,44,test2,4,0.5353880000038771,-20.0
16,sj,f,20,r,1,(-3.163262682197613e-14, -172.20000000000002),27,-7,13,yes,x,5,x,0.41411279999738326,1,45,test2,4,0.41430140000011306,-52.0
16,sj,f,20,r,1,(-172.20000000000002, 2.1088417881317425e-14),25,25,4,yes,x,5,x,0.5614353999990271,1,46,test2,4,0.5615923000004841,-20.0
16,sj,f,20,r,1,(121.76378772032346, -121.76378772032352),28,-7,13,yes,x,5,x,0.4760037999949418,1,47,test2,4,0.4761188000047696,-52.0
16,sj,f,20,r,1,(1.0544208940658713e-14, 172.20000000000002),23,-7,13,yes,x,5,x,0.45510019999346696,1,48,test2,4,0.45519579999381676,-52.0
16,sj,f,20,r,1,(1.0544208940658713e-14, 172.20000000000002),23,-5,12,yes,x,5,x,0.4484006999991834,1,49,test2,4,0.4487338999970234,-50.0
16,sj,f,20,r,1,(-121.76378772032348, 121.76378772032349),24,-7,13,yes,x,5,x,0.4426928000029875,1,50,test2,4,0.4428729999999632,-52.0
16,sj,f,20,r,1,(-121.76378772032352, -121.76378772032348),26,7,3,no,m,6,m,0.7958230000003823,1,51,test2,4,0.7960276000012527,-52.0
16,sj,f,20,r,1,(-121.76378772032348, 121.76378772032349),24,-3,11,yes,x,5,m,0.6466533999991952,0,52,test2,4,0.6467498999991221,-48.0
16,sj,f,20,r,1,(121.76378772032346, -121.76378772032352),28,25,4,no,m,6,m,0.8836357999971369,1,53,test2,4,0.8837644000013825,-48.0
16,sj,f,20,r,1,(-3.163262682197613e-14, -172.20000000000002),27,-25,14,no,m,6,m,0.692863700001908,1,54,test2,4,0.693070200002694,-48.0
16,sj,f,20,r,1,(-172.20000000000002, 2.1088417881317425e-14),25,-7,13,yes,x,5,x,0.4764136000012513,1,55,test2,4,0.47652450000168756,-52.0
16,sj,f,20,r,1,(-121.76378772032348, 121.76378772032349),24,25,4,yes,x,5,x,0.40497680000407854,1,56,test2,4,0.40509550000570016,-20.0
16,sj,f,20,r,1,(-121.76378772032348, 121.76378772032349),24,-3,11,yes,x,5,x,1.0312367999940761,1,57,test2,4,1.0313347999981488,-48.0
16,sj,f,20,r,1,(-3.163262682197613e-14, -172.20000000000002),27,25,4,yes,x,5,x,0.47029140000086045,1,58,test2,4,0.4704076999987592,-20.0
16,sj,f,20,r,1,(121.76378772032346, -121.76378772032352),28,-7,13,yes,x,5,x,0.47693209999852115,1,59,test2,4,0.4770506999993813,-52.0
16,sj,f,20,r,1,(-121.76378772032348, 121.76378772032349),24,-3,11,no,m,6,m,0.894057099998463,1,60,test2,4,0.8942604999974719,-52.0
16,sj,f,20,r,1,(172.20000000000002, 0.0),21,-25,14,yes,x,5,x,0.479858200000308,1,61,test2,4,0.48012139999627834,-70.0
16,sj,f,20,r,1,(-172.20000000000002, 2.1088417881317425e-14),25,7,3,yes,x,5,x,0.631709299996146,1,62,test2,4,0.6321637000000919,-38.0
16,sj,f,20,r,1,(1.0544208940658713e-14, 172.20000000000002),23,-5,12,no,m,6,m,1.2972173000016483,1,63,test2,4,1.297313099996245,-38.0
16,sj,f,20,r,1,(172.20000000000002, 0.0),21,-3,11,yes,x,5,m,1.5582218999988982,0,64,test2,4,1.5584447000001092,-48.0
