subj_id,subj_name,subj_gender ,subj_age,subj_handedness,subj_runNum,tar_l_x,tar_l_y,loc_code,tar_ori,tar_code,tar_pre ,cor_response,pre_code,subj_response,RT,correct,trial_num,type,bloc_num,dur, real_tar
16,sj,f,20,r,2,(-121.76378772032348, 121.76378772032349),24,-3,11,no,m,6,m,0.8563405000022613,1,1,test1,1,0.8568478000015602,0.0
16,sj,f,20,r,2,(121.76378772032346, -121.76378772032352),28,7,3,yes,x,5,x,0.5686746999999741,1,2,test1,1,0.5689960000017891,-38.0
16,sj,f,20,r,2,(121.76378772032349, 121.76378772032349),22,5,2,yes,x,5,x,0.538573500001803,1,3,test1,1,0.5386759000029997,-40.0
16,sj,f,20,r,2,(121.76378772032346, -121.76378772032352),28,25,4,yes,x,5,x,0.5970539000045392,1,4,test1,1,0.5971800999977859,-20.0
16,sj,f,20,r,2,(1.0544208940658713e-14, 172.20000000000002),23,-7,13,yes,x,5,x,0.5864641000007396,1,5,test1,1,0.5866268000027048,-52.0
16,sj,f,20,r,2,(121.76378772032346, -121.76378772032352),28,-5,12,yes,x,5,x,0.7339263999965624,1,6,test1,1,0.7343217999950866,-50.0
16,sj,f,20,r,2,(1.0544208940658713e-14, 172.20000000000002),23,-7,13,no,m,6,m,0.7299065999977756,1,7,test1,1,0.7301657000061823,-50.0
16,sj,f,20,r,2,(121.76378772032349, 121.76378772032349),22,25,4,yes,x,5,x,0.5730925999960164,1,8,test1,1,0.5736712000070838,-20.0
16,sj,f,20,r,2,(172.20000000000002, 0.0),21,3,1,yes,x,5,x,0.9806743000008282,1,9,test1,1,0.9807940999962739,-42.0
16,sj,f,20,r,2,(121.76378772032349, 121.76378772032349),22,25,4,no,m,6,m,0.8169836000015493,1,10,test1,1,0.8170822999964003,-42.0
16,sj,f,20,r,2,(121.76378772032349, 121.76378772032349),22,3,1,no,m,6,m,1.109641199996986,1,11,test1,1,1.1097700999962399,-42.0
16,sj,f,20,r,2,(1.0544208940658713e-14, 172.20000000000002),23,-3,11,yes,x,5,x,0.8049501999994391,1,12,test1,1,0.8051543999972637,-48.0
16,sj,f,20,r,2,(-121.76378772032352, -121.76378772032348),26,3,1,yes,x,5,m,0.8024115000007441,0,13,test1,1,0.8025063000022783,-42.0
16,sj,f,20,r,2,(121.76378772032349, 121.76378772032349),22,-3,11,no,m,6,m,1.0545633000001544,1,14,test1,1,1.0547041000027093,-42.0
16,sj,f,20,r,2,(-3.163262682197613e-14, -172.20000000000002),27,5,2,no,m,6,m,1.129089499998372,1,15,test1,1,1.1293224999972153,-42.0
16,sj,f,20,r,2,(121.76378772032346, -121.76378772032352),28,-3,11,no,m,6,m,1.3295998999965377,1,16,test1,1,1.3298443000021507,-42.0
16,sj,f,20,r,2,(-121.76378772032348, 121.76378772032349),24,7,3,yes,x,5,x,0.5112702999977046,1,17,test1,1,0.5115033999973093,-38.0
16,sj,f,20,r,2,(-3.163262682197613e-14, -172.20000000000002),27,-5,12,yes,x,5,x,0.5354230000011739,1,18,test1,1,0.5359623000040301,-50.0
16,sj,f,20,r,2,(121.76378772032349, 121.76378772032349),22,7,3,no,m,6,m,0.9289505999986432,1,19,test1,1,0.9291704999996,-50.0
16,sj,f,20,r,2,(-121.76378772032352, -121.76378772032348),26,25,4,yes,x,5,x,0.4953583000024082,1,20,test1,1,0.4954615000024205,-20.0
16,sj,f,20,r,2,(1.0544208940658713e-14, 172.20000000000002),23,3,1,yes,x,5,x,0.707466599997133,1,21,test1,1,0.7076010000018869,-42.0
16,sj,f,20,r,2,(121.76378772032346, -121.76378772032352),28,-7,13,no,m,6,m,0.887899200002721,1,22,test1,1,0.888022600003751,-42.0
16,sj,f,20,r,2,(1.0544208940658713e-14, 172.20000000000002),23,-5,12,yes,x,5,x,0.5167127999957302,1,23,test1,1,0.516925000003539,-50.0
16,sj,f,20,r,2,(-121.76378772032352, -121.76378772032348),26,5,2,yes,x,5,x,1.1682526999939,1,24,test1,1,1.168426999996882,-40.0
16,sj,f,20,r,2,(172.20000000000002, 0.0),21,5,2,yes,x,5,x,0.5442290000064531,1,25,test1,1,0.5444776999938767,-40.0
16,sj,f,20,r,2,(172.20000000000002, 0.0),21,7,3,yes,x,5,x,0.5647529999987455,1,26,test1,1,0.564878500001214,-38.0
16,sj,f,20,r,2,(-121.76378772032348, 121.76378772032349),24,3,1,yes,x,5,x,0.8345595999999205,1,27,test1,1,0.8347920999949565,-42.0
16,sj,f,20,r,2,(-121.76378772032348, 121.76378772032349),24,5,2,yes,x,5,x,0.4576736000017263,1,28,test1,1,0.45779939999920316,-40.0
16,sj,f,20,r,2,(1.0544208940658713e-14, 172.20000000000002),23,25,4,yes,x,5,x,0.44873899999947753,1,29,test1,1,0.44896719999815105,-20.0
16,sj,f,20,r,2,(121.76378772032346, -121.76378772032352),28,25,4,yes,x,5,x,0.4630078999980469,1,30,test1,1,0.4631509999962873,-20.0
16,sj,f,20,r,2,(121.76378772032346, -121.76378772032352),28,5,2,no,m,6,m,1.1693906000000425,1,31,test1,1,1.1695503999944776,-20.0
16,sj,f,20,r,2,(1.0544208940658713e-14, 172.20000000000002),23,5,2,no,m,6,m,1.0615991999948164,1,32,test1,1,1.0617543999978807,-20.0
16,sj,f,20,r,2,(-3.163262682197613e-14, -172.20000000000002),27,3,1,no,m,6,m,1.2287903999967966,1,33,test1,1,1.2290740000025835,-20.0
16,sj,f,20,r,2,(-121.76378772032348, 121.76378772032349),24,-5,12,no,m,6,m,1.272380999995221,1,34,test1,1,1.2725887000051443,-20.0
16,sj,f,20,r,2,(172.20000000000002, 0.0),21,25,4,yes,x,5,x,0.5475203000023612,1,35,test1,1,0.5477638000011211,-20.0
16,sj,f,20,r,2,(121.76378772032349, 121.76378772032349),22,-7,13,yes,x,5,x,0.6390914000003249,1,36,test1,1,0.6394132999994326,-52.0
16,sj,f,20,r,2,(-121.76378772032352, -121.76378772032348),26,3,1,no,m,6,m,1.1558351999992738,1,37,test1,1,1.1559821999981068,-52.0
16,sj,f,20,r,2,(121.76378772032346, -121.76378772032352),28,5,2,yes,x,5,x,0.6912553000001935,1,38,test1,1,0.6915731999979471,-40.0
16,sj,f,20,r,2,(172.20000000000002, 0.0),21,-5,12,yes,x,5,x,0.4888569000031566,1,39,test1,1,0.4890704999997979,-50.0
16,sj,f,20,r,2,(-3.163262682197613e-14, -172.20000000000002),27,-25,14,no,m,6,m,0.9501823000027798,1,40,test1,1,0.9502839000051608,-50.0
16,sj,f,20,r,2,(-172.20000000000002, 2.1088417881317425e-14),25,25,4,yes,x,5,x,0.46221159999549855,1,41,test1,1,0.4624850000036531,-20.0
16,sj,f,20,r,2,(172.20000000000002, 0.0),21,-3,11,yes,x,5,x,0.8865442000023904,1,42,test1,1,0.8870314999949187,-48.0
16,sj,f,20,r,2,(1.0544208940658713e-14, 172.20000000000002),23,-25,14,no,m,6,m,0.8553515000021434,1,43,test1,1,0.8556026000005659,-48.0
16,sj,f,20,r,2,(-172.20000000000002, 2.1088417881317425e-14),25,-25,14,no,m,6,m,0.8801783000017167,1,44,test1,1,0.8807350999995833,-48.0
16,sj,f,20,r,2,(-121.76378772032348, 121.76378772032349),24,-5,12,yes,x,5,x,0.9279573999956483,1,45,test1,1,0.9284307999987504,-50.0
16,sj,f,20,r,2,(-121.76378772032348, 121.76378772032349),24,7,3,no,m,6,m,0.9237814000007347,1,46,test1,1,0.9241372000033152,-50.0
16,sj,f,20,r,2,(1.0544208940658713e-14, 172.20000000000002),23,-5,12,yes,x,5,x,0.6483130999986315,1,47,test1,1,0.6484790000031353,-50.0
16,sj,f,20,r,2,(1.0544208940658713e-14, 172.20000000000002),23,7,3,no,m,6,m,1.0708153000014136,1,48,test1,1,1.0709243000019342,-50.0
16,sj,f,20,r,2,(121.76378772032346, -121.76378772032352),28,3,1,yes,x,5,x,1.0785044000003836,1,49,test1,1,1.0786647999993875,-42.0
16,sj,f,20,r,2,(121.76378772032349, 121.76378772032349),22,-5,12,yes,x,5,x,0.6546220000018366,1,50,test1,1,0.6548543000026257,-50.0
16,sj,f,20,r,2,(-3.163262682197613e-14, -172.20000000000002),27,7,3,no,m,6,m,1.0464936999997008,1,51,test1,1,1.0466038000013214,-50.0
16,sj,f,20,r,2,(-172.20000000000002, 2.1088417881317425e-14),25,25,4,yes,x,5,x,0.4795841999948607,1,52,test1,1,0.4797125999975833,-20.0
16,sj,f,20,r,2,(-3.163262682197613e-14, -172.20000000000002),27,-5,12,yes,x,5,x,0.6240029999971739,1,53,test1,1,0.6241341999993892,-50.0
16,sj,f,20,r,2,(-172.20000000000002, 2.1088417881317425e-14),25,-5,12,no,m,6,m,0.7771735999995144,1,54,test1,1,0.7774024999962421,-50.0
16,sj,f,20,r,2,(-121.76378772032348, 121.76378772032349),24,-3,11,yes,x,5,x,0.7704472999976133,1,55,test1,1,0.7705457000047318,-48.0
16,sj,f,20,r,2,(-121.76378772032352, -121.76378772032348),26,3,1,yes,x,5,x,1.0131499999988591,1,56,test1,1,1.013275600002089,-42.0
16,sj,f,20,r,2,(-121.76378772032352, -121.76378772032348),26,-5,12,no,m,6,m,1.1157712000058382,1,57,test1,1,1.1159417000017129,-42.0
16,sj,f,20,r,2,(121.76378772032349, 121.76378772032349),22,-5,12,no,m,6,m,1.2373265999995056,1,58,test1,1,1.2374406999952043,-42.0
16,sj,f,20,r,2,(-121.76378772032352, -121.76378772032348),26,7,3,yes,x,5,x,0.4851510000007693,1,59,test1,1,0.4852783000023919,-38.0
16,sj,f,20,r,2,(-121.76378772032348, 121.76378772032349),24,-3,11,yes,x,5,x,0.618422699997609,1,60,test1,1,0.6185356999994838,-48.0
16,sj,f,20,r,2,(-121.76378772032348, 121.76378772032349),24,5,2,yes,x,5,x,0.4482999999963795,1,61,test1,1,0.44841480000468437,-40.0
16,sj,f,20,r,2,(121.76378772032346, -121.76378772032352),28,3,1,yes,x,5,x,0.9679342999952496,1,62,test1,1,0.9680355999953463,-42.0
16,sj,f,20,r,2,(121.76378772032349, 121.76378772032349),22,7,3,yes,x,5,x,0.5287341000002925,1,63,test1,1,0.529028400000243,-38.0
16,sj,f,20,r,2,(-3.163262682197613e-14, -172.20000000000002),27,-3,11,no,m,6,m,1.000783200004662,1,64,test1,1,1.0009145000003628,-38.0
16,sj,f,20,r,2,(-121.76378772032352, -121.76378772032348),26,-3,11,yes,x,5,x,0.6493088999995962,1,65,test1,1,0.6494961999997031,-48.0
16,sj,f,20,r,2,(121.76378772032349, 121.76378772032349),22,5,2,yes,x,5,x,0.49977770000259625,1,66,test1,1,0.49995960000524065,-40.0
16,sj,f,20,r,2,(-3.163262682197613e-14, -172.20000000000002),27,7,3,yes,x,5,x,0.5099313000027905,1,67,test1,1,0.5100367999984883,-38.0
16,sj,f,20,r,2,(-121.76378772032348, 121.76378772032349),24,3,1,yes,x,5,x,0.5817006000070251,1,68,test1,1,0.5819695000027423,-42.0
16,sj,f,20,r,2,(-121.76378772032348, 121.76378772032349),24,-7,13,yes,x,5,x,0.40454809999937424,1,69,test1,1,0.4047560999970301,-52.0
16,sj,f,20,r,2,(121.76378772032346, -121.76378772032352),28,-5,12,no,m,6,m,1.1759754000013345,1,70,test1,1,1.176134599998477,-52.0
16,sj,f,20,r,2,(-121.76378772032352, -121.76378772032348),26,25,4,yes,x,5,x,0.5063866999989841,1,71,test1,1,0.5066217999992659,-20.0
16,sj,f,20,r,2,(1.0544208940658713e-14, 172.20000000000002),23,5,2,yes,x,5,x,0.5835659000003943,1,72,test1,1,0.5837993000022834,-40.0
16,sj,f,20,r,2,(-3.163262682197613e-14, -172.20000000000002),27,-3,11,yes,x,5,x,0.7915924999979325,1,73,test1,1,0.7918166000017663,-48.0
16,sj,f,20,r,2,(-172.20000000000002, 2.1088417881317425e-14),25,-3,11,yes,x,5,x,0.9168496999991476,1,74,test1,1,0.917042399996717,-48.0
16,sj,f,20,r,2,(-121.76378772032348, 121.76378772032349),24,-7,13,yes,x,5,x,0.49234720000094967,1,75,test1,1,0.4925803999940399,-52.0
16,sj,f,20,r,2,(-3.163262682197613e-14, -172.20000000000002),27,25,4,yes,x,5,x,0.4132095000022673,1,76,test1,1,0.4134520000006887,-20.0
16,sj,f,20,r,2,(-172.20000000000002, 2.1088417881317425e-14),25,-7,13,no,m,6,m,0.8758462999976473,1,77,test1,1,0.8763887000022805,-20.0
16,sj,f,20,r,2,(121.76378772032349, 121.76378772032349),22,-25,14,yes,x,5,x,0.47183310000400525,1,78,test1,1,0.4720398999997997,-70.0
16,sj,f,20,r,2,(172.20000000000002, 0.0),21,-25,14,yes,x,5,x,1.1217415999999503,1,79,test1,1,1.1219545999992988,-70.0
16,sj,f,20,r,2,(-121.76378772032352, -121.76378772032348),26,5,2,yes,x,5,x,0.7801453000065521,1,80,test1,1,0.7803776999935508,-40.0
16,sj,f,20,r,2,(172.20000000000002, 0.0),21,-25,14,no,m,6,m,1.1697270999939064,1,81,test1,1,1.1703718999997363,-40.0
16,sj,f,20,r,2,(-172.20000000000002, 2.1088417881317425e-14),25,7,3,yes,x,5,x,0.45231519999651937,1,82,test1,1,0.4529869000034523,-38.0
16,sj,f,20,r,2,(121.76378772032349, 121.76378772032349),22,3,1,yes,x,5,x,1.0387157999939518,1,83,test1,1,1.0389038000066648,-42.0
16,sj,f,20,r,2,(172.20000000000002, 0.0),21,-3,11,no,m,6,m,1.0177387000003364,1,84,test1,1,1.017970900000364,-42.0
16,sj,f,20,r,2,(-3.163262682197613e-14, -172.20000000000002),27,-7,13,yes,x,5,x,0.6008303999988129,1,85,test1,1,0.6009985999990022,-52.0
16,sj,f,20,r,2,(121.76378772032349, 121.76378772032349),22,-25,14,no,m,6,m,0.7967078999936348,1,86,test1,1,0.7968631999974605,-52.0
16,sj,f,20,r,2,(-172.20000000000002, 2.1088417881317425e-14),25,-5,12,yes,x,5,x,0.6982020000068587,1,87,test1,1,0.6983321000006981,-50.0
16,sj,f,20,r,2,(121.76378772032349, 121.76378772032349),22,-7,13,yes,x,5,x,0.5480105000024196,1,88,test1,1,0.5481090000030235,-52.0
16,sj,f,20,r,2,(-121.76378772032352, -121.76378772032348),26,-3,11,yes,x,5,x,0.6747363999966183,1,89,test1,1,0.6749180999977398,-48.0
16,sj,f,20,r,2,(172.20000000000002, 0.0),21,3,1,yes,x,5,x,0.5898209000006318,1,90,test1,1,0.5900620999964303,-42.0
16,sj,f,20,r,2,(-121.76378772032348, 121.76378772032349),24,-25,14,no,m,6,m,1.2214858999941498,1,91,test1,1,1.2215875999972923,-42.0
16,sj,f,20,r,2,(-3.163262682197613e-14, -172.20000000000002),27,5,2,yes,x,5,x,0.4716078999990714,1,92,test1,1,0.4717116999963764,-40.0
16,sj,f,20,r,2,(121.76378772032346, -121.76378772032352),28,-25,14,no,m,6,m,0.7571113000012701,1,93,test1,1,0.7574501000053715,-40.0
16,sj,f,20,r,2,(1.0544208940658713e-14, 172.20000000000002),23,25,4,no,m,6,m,0.6943632000038633,1,94,test1,1,0.6944654000035371,-40.0
16,sj,f,20,r,2,(1.0544208940658713e-14, 172.20000000000002),23,7,3,yes,x,5,x,0.49593860000459244,1,95,test1,1,0.4960404000012204,-38.0
16,sj,f,20,r,2,(121.76378772032346, -121.76378772032352),28,7,3,yes,x,5,x,0.4651811000003363,1,96,test1,1,0.4652926999988267,-38.0
16,sj,f,20,r,2,(1.0544208940658713e-14, 172.20000000000002),23,3,1,no,m,6,m,1.0033667999960016,1,1,test2,1,1.0035783999992418,-38.0
16,sj,f,20,r,2,(-121.76378772032352, -121.76378772032348),26,-7,13,yes,x,5,x,0.6198247000065749,1,2,test2,1,0.6201011000011931,-52.0
16,sj,f,20,r,2,(-172.20000000000002, 2.1088417881317425e-14),25,-25,14,yes,x,5,x,0.5746717000001809,1,3,test2,1,0.575080299997353,-70.0
16,sj,f,20,r,2,(121.76378772032346, -121.76378772032352),28,-7,13,yes,x,5,x,0.632411200000206,1,4,test2,1,0.6330388999995193,-52.0
16,sj,f,20,r,2,(-172.20000000000002, 2.1088417881317425e-14),25,-7,13,yes,x,5,x,0.5087031000002753,1,5,test2,1,0.5089487000004738,-52.0
16,sj,f,20,r,2,(-121.76378772032348, 121.76378772032349),24,25,4,no,m,6,m,1.026388099999167,1,6,test2,1,1.0268525999999838,-52.0
16,sj,f,20,r,2,(172.20000000000002, 0.0),21,7,3,no,m,6,m,0.7981758000023547,1,7,test2,1,0.798289800004568,-52.0
16,sj,f,20,r,2,(-121.76378772032352, -121.76378772032348),26,7,3,no,m,6,x,1.3554755000004661,0,8,test2,1,1.3555778000009013,-52.0
16,sj,f,20,r,2,(1.0544208940658713e-14, 172.20000000000002),23,3,1,yes,x,5,x,0.8187315000031958,1,9,test2,1,0.8188345000016852,-42.0
16,sj,f,20,r,2,(121.76378772032349, 121.76378772032349),22,3,1,yes,x,5,x,0.7394588999959524,1,10,test2,1,0.7398140000004787,-42.0
16,sj,f,20,r,2,(1.0544208940658713e-14, 172.20000000000002),23,-5,12,no,m,6,m,0.7437064999976428,1,11,test2,1,0.743886800002656,-42.0
16,sj,f,20,r,2,(1.0544208940658713e-14, 172.20000000000002),23,-7,13,yes,x,5,x,0.4927884999997332,1,12,test2,1,0.49301659999764524,-52.0
16,sj,f,20,r,2,(-121.76378772032348, 121.76378772032349),24,25,4,yes,x,5,x,0.4111780000021099,1,13,test2,1,0.41160219999437686,-20.0
16,sj,f,20,r,2,(121.76378772032349, 121.76378772032349),22,-3,11,yes,x,5,x,0.5650061999986065,1,14,test2,1,0.5652904999951716,-48.0
16,sj,f,20,r,2,(-172.20000000000002, 2.1088417881317425e-14),25,3,1,yes,x,5,x,0.4962297999954899,1,15,test2,1,0.49647230000118725,-42.0
16,sj,f,20,r,2,(-121.76378772032352, -121.76378772032348),26,-7,13,no,m,6,m,0.9526191000040853,1,16,test2,1,0.9528123999989475,-42.0
16,sj,f,20,r,2,(121.76378772032346, -121.76378772032352),28,-7,13,yes,x,5,x,0.6156555000052322,1,17,test2,1,0.6157514000005904,-52.0
16,sj,f,20,r,2,(1.0544208940658713e-14, 172.20000000000002),23,-3,11,yes,x,5,x,0.5842623999997159,1,18,test2,1,0.5843716000017594,-48.0
16,sj,f,20,r,2,(172.20000000000002, 0.0),21,5,2,yes,x,5,x,0.6184875999970245,1,19,test2,1,0.6186507999955211,-40.0
16,sj,f,20,r,2,(-3.163262682197613e-14, -172.20000000000002),27,-7,13,yes,x,5,x,0.5862969999943743,1,20,test2,1,0.5867319000026328,-52.0
16,sj,f,20,r,2,(172.20000000000002, 0.0),21,-25,14,yes,x,5,x,0.4354258999956073,1,21,test2,1,0.4356666000021505,-70.0
16,sj,f,20,r,2,(-172.20000000000002, 2.1088417881317425e-14),25,5,2,yes,x,5,x,0.45158980000269366,1,22,test2,1,0.45174910000059754,-40.0
16,sj,f,20,r,2,(-172.20000000000002, 2.1088417881317425e-14),25,3,1,no,m,6,m,1.0306225000022096,1,23,test2,1,1.0307216000001063,-40.0
16,sj,f,20,r,2,(-172.20000000000002, 2.1088417881317425e-14),25,-3,11,no,m,6,m,0.9570657000003848,1,24,test2,1,0.9574032000018633,-40.0
16,sj,f,20,r,2,(-121.76378772032348, 121.76378772032349),24,-25,14,yes,x,5,x,0.38621349999448285,1,25,test2,1,0.3863134999992326,-70.0
16,sj,f,20,r,2,(121.76378772032346, -121.76378772032352),28,3,1,no,m,6,m,0.9769226999997045,1,26,test2,1,0.9770837999967625,-70.0
16,sj,f,20,r,2,(-121.76378772032352, -121.76378772032348),26,-5,12,yes,x,5,x,0.40868769999360666,1,27,test2,1,0.4090044999975362,-50.0
16,sj,f,20,r,2,(1.0544208940658713e-14, 172.20000000000002),23,25,4,yes,x,5,x,0.44866840000031516,1,28,test2,1,0.44876900000235764,-20.0
16,sj,f,20,r,2,(121.76378772032346, -121.76378772032352),28,5,2,yes,x,5,x,0.6479273000004468,1,29,test2,1,0.6482431000040378,-40.0
16,sj,f,20,r,2,(-3.163262682197613e-14, -172.20000000000002),27,25,4,no,m,6,m,0.6756199000010383,1,30,test2,1,0.6757978999958141,-40.0
16,sj,f,20,r,2,(1.0544208940658713e-14, 172.20000000000002),23,7,3,yes,x,5,x,0.5266212999995332,1,31,test2,1,0.5267239000022528,-38.0
16,sj,f,20,r,2,(121.76378772032346, -121.76378772032352),28,-5,12,yes,x,5,x,0.7592459000006784,1,32,test2,1,0.7594030999971437,-50.0
16,sj,f,20,r,2,(172.20000000000002, 0.0),21,-5,12,no,m,6,m,0.8439142999995966,1,33,test2,1,0.8441260999970837,-50.0
16,sj,f,20,r,2,(-121.76378772032352, -121.76378772032348),26,5,2,no,m,6,m,0.9834909000055632,1,34,test2,1,0.983704400001443,-50.0
16,sj,f,20,r,2,(-172.20000000000002, 2.1088417881317425e-14),25,7,3,yes,x,5,x,0.5072806999960449,1,35,test2,1,0.5079105999975582,-38.0
16,sj,f,20,r,2,(-3.163262682197613e-14, -172.20000000000002),27,5,2,yes,x,5,x,0.5072979999968084,1,36,test2,1,0.5074028000017279,-40.0
16,sj,f,20,r,2,(172.20000000000002, 0.0),21,25,4,yes,x,5,x,0.482414099999005,1,37,test2,1,0.48265160000300966,-20.0
16,sj,f,20,r,2,(-172.20000000000002, 2.1088417881317425e-14),25,-25,14,yes,x,5,x,0.387143300002208,1,38,test2,1,0.38724500000535045,-70.0
16,sj,f,20,r,2,(-172.20000000000002, 2.1088417881317425e-14),25,25,4,no,m,6,m,0.7319971000033547,1,39,test2,1,0.7321039000016754,-70.0
16,sj,f,20,r,2,(-121.76378772032348, 121.76378772032349),24,7,3,yes,x,5,x,0.40505230000417214,1,40,test2,1,0.4053568000017549,-38.0
16,sj,f,20,r,2,(121.76378772032346, -121.76378772032352),28,-25,14,yes,x,5,x,0.6382325000013225,1,41,test2,1,0.6386491000012029,-70.0
16,sj,f,20,r,2,(121.76378772032346, -121.76378772032352),28,-3,11,yes,x,5,x,0.9784522999980254,1,42,test2,1,0.9786746000027051,-48.0
16,sj,f,20,r,2,(-172.20000000000002, 2.1088417881317425e-14),25,-3,11,yes,x,5,x,0.9569055000029039,1,43,test2,1,0.9570492999991984,-48.0
16,sj,f,20,r,2,(-121.76378772032348, 121.76378772032349),24,-7,13,no,m,6,m,1.4225612000009278,1,44,test2,1,1.4227819000007003,-48.0
16,sj,f,20,r,2,(121.76378772032349, 121.76378772032349),22,25,4,yes,x,5,x,0.6024458000028972,1,45,test2,1,0.6025584000017261,-20.0
16,sj,f,20,r,2,(-172.20000000000002, 2.1088417881317425e-14),25,7,3,no,m,6,m,0.6384514000019408,1,46,test2,1,0.6385811999934958,-20.0
16,sj,f,20,r,2,(-121.76378772032352, -121.76378772032348),26,-25,14,no,m,6,m,1.0954965999990236,1,47,test2,1,1.0961061999987578,-20.0
16,sj,f,20,r,2,(1.0544208940658713e-14, 172.20000000000002),23,-25,14,yes,x,5,x,0.6158390000055078,1,48,test2,1,0.6163219000009121,-70.0
16,sj,f,20,r,2,(121.76378772032346, -121.76378772032352),28,-3,11,yes,x,5,x,0.769862799999828,1,49,test2,1,0.7704622999954154,-48.0
16,sj,f,20,r,2,(121.76378772032349, 121.76378772032349),22,-3,11,yes,x,5,x,0.5662703999987571,1,50,test2,1,0.5666277999989688,-48.0
16,sj,f,20,r,2,(121.76378772032346, -121.76378772032352),28,-25,14,yes,x,5,x,0.4259407999998075,1,51,test2,1,0.42605579999508336,-70.0
16,sj,f,20,r,2,(-172.20000000000002, 2.1088417881317425e-14),25,-7,13,yes,x,5,x,0.5003278000003775,1,52,test2,1,0.5004404999999679,-52.0
16,sj,f,20,r,2,(1.0544208940658713e-14, 172.20000000000002),23,-3,11,no,m,6,m,0.6898023999965517,1,53,test2,1,0.6901957999943988,-52.0
16,sj,f,20,r,2,(-121.76378772032352, -121.76378772032348),26,-3,11,no,m,6,m,0.7234641000031843,1,54,test2,1,0.7236314000037964,-52.0
16,sj,f,20,r,2,(-121.76378772032348, 121.76378772032349),24,5,2,no,m,6,m,0.6667315000013332,1,55,test2,1,0.6668324999991455,-52.0
16,sj,f,20,r,2,(172.20000000000002, 0.0),21,-5,12,yes,x,5,x,0.5490511000025435,1,56,test2,1,0.5492866999993566,-50.0
16,sj,f,20,r,2,(-121.76378772032352, -121.76378772032348),26,-5,12,yes,x,5,x,0.4942536000016844,1,57,test2,1,0.49443349999637576,-50.0
16,sj,f,20,r,2,(172.20000000000002, 0.0),21,3,1,no,m,6,m,0.8169694999960484,1,58,test2,1,0.8171841000003042,-50.0
16,sj,f,20,r,2,(-172.20000000000002, 2.1088417881317425e-14),25,5,2,yes,x,5,x,0.7702776000005542,1,59,test2,1,0.7703807999932906,-40.0
16,sj,f,20,r,2,(-3.163262682197613e-14, -172.20000000000002),27,3,1,yes,x,5,x,1.2236718000058318,1,60,test2,1,1.2245274000015343,-42.0
16,sj,f,20,r,2,(-121.76378772032352, -121.76378772032348),26,-25,14,yes,x,5,x,0.5006960999962757,1,61,test2,1,0.5008205999984057,-70.0
16,sj,f,20,r,2,(-121.76378772032348, 121.76378772032349),24,25,4,yes,x,5,x,0.5907632999951602,1,62,test2,1,0.5911116999996011,-20.0
16,sj,f,20,r,2,(-121.76378772032352, -121.76378772032348),26,-7,13,yes,x,5,x,1.150506599995424,1,63,test2,1,1.1508277999964776,-52.0
16,sj,f,20,r,2,(-3.163262682197613e-14, -172.20000000000002),27,-3,11,yes,x,5,x,0.47865740000270307,1,64,test2,1,0.47930900000210386,-48.0
16,sj,f,20,r,2,(-3.163262682197613e-14, -172.20000000000002),27,-5,12,no,m,6,m,1.0529976999969222,1,65,test2,1,1.0533665000039036,-48.0
16,sj,f,20,r,2,(121.76378772032349, 121.76378772032349),22,-25,14,yes,x,5,x,0.5736707000032766,1,66,test2,1,0.573825699997542,-70.0
16,sj,f,20,r,2,(172.20000000000002, 0.0),21,5,2,no,m,6,m,0.8671887000018614,1,67,test2,1,0.8673774999988382,-70.0
16,sj,f,20,r,2,(121.76378772032349, 121.76378772032349),22,5,2,no,m,6,m,1.0602088000014191,1,68,test2,1,1.060505400004331,-70.0
16,sj,f,20,r,2,(-3.163262682197613e-14, -172.20000000000002),27,-7,13,no,m,6,m,0.6217114000028232,1,69,test2,1,0.6218125999948825,-70.0
16,sj,f,20,r,2,(-3.163262682197613e-14, -172.20000000000002),27,-25,14,yes,x,5,x,0.3895641999988584,1,70,test2,1,0.3896935999946436,-70.0
16,sj,f,20,r,2,(-121.76378772032352, -121.76378772032348),26,25,4,no,m,6,m,0.6544447999986005,1,71,test2,1,0.6545763999965857,-70.0
16,sj,f,20,r,2,(-3.163262682197613e-14, -172.20000000000002),27,3,1,yes,x,5,x,0.5433173999990686,1,72,test2,1,0.5442064000017126,-42.0
16,sj,f,20,r,2,(-3.163262682197613e-14, -172.20000000000002),27,-25,14,yes,x,5,x,0.5037599999996019,1,73,test2,1,0.5039517999975942,-70.0
16,sj,f,20,r,2,(-121.76378772032352, -121.76378772032348),26,7,3,yes,x,5,x,0.46247029999358347,1,74,test2,1,0.462572899996303,-38.0
16,sj,f,20,r,2,(172.20000000000002, 0.0),21,7,3,yes,x,5,x,0.4891277000060654,1,75,test2,1,0.4892254000005778,-38.0
16,sj,f,20,r,2,(-172.20000000000002, 2.1088417881317425e-14),25,3,1,yes,x,5,x,0.4714232999976957,1,76,test2,1,0.4715234000032069,-42.0
16,sj,f,20,r,2,(172.20000000000002, 0.0),21,-7,13,no,m,6,m,0.6791365000026417,1,77,test2,1,0.6792943999971612,-42.0
16,sj,f,20,r,2,(-172.20000000000002, 2.1088417881317425e-14),25,-5,12,yes,x,5,x,0.45066879999649245,1,78,test2,1,0.4513544000001275,-50.0
16,sj,f,20,r,2,(172.20000000000002, 0.0),21,-7,13,yes,x,5,x,0.41671380000479985,1,79,test2,1,0.4168456000043079,-52.0
16,sj,f,20,r,2,(1.0544208940658713e-14, 172.20000000000002),23,-25,14,yes,x,5,x,0.4708924000005936,1,80,test2,1,0.4711221999968984,-70.0
16,sj,f,20,r,2,(172.20000000000002, 0.0),21,25,4,no,m,6,m,0.608800699999847,1,81,test2,1,0.6089133999994374,-70.0
16,sj,f,20,r,2,(-121.76378772032348, 121.76378772032349),24,-25,14,yes,x,5,x,0.5243704000022262,1,82,test2,1,0.5245869999998831,-70.0
16,sj,f,20,r,2,(121.76378772032349, 121.76378772032349),22,-7,13,no,m,6,m,0.6875422000011895,1,83,test2,1,0.6877632000032463,-70.0
16,sj,f,20,r,2,(-3.163262682197613e-14, -172.20000000000002),27,7,3,yes,x,5,x,0.47392019999824697,1,84,test2,1,0.47418330000073183,-38.0
16,sj,f,20,r,2,(-121.76378772032348, 121.76378772032349),24,3,1,no,m,6,m,0.5981723000004422,1,85,test2,1,0.5984750000061467,-38.0
16,sj,f,20,r,2,(1.0544208940658713e-14, 172.20000000000002),23,5,2,yes,x,5,x,0.6611888000043109,1,86,test2,1,0.6613938999944367,-40.0
16,sj,f,20,r,2,(172.20000000000002, 0.0),21,-7,13,yes,x,5,x,0.49821289999817964,1,87,test2,1,0.4984448999966844,-52.0
16,sj,f,20,r,2,(121.76378772032349, 121.76378772032349),22,-5,12,yes,x,5,x,0.4889495999959763,1,88,test2,1,0.48915000000124564,-50.0
16,sj,f,20,r,2,(-121.76378772032352, -121.76378772032348),26,-25,14,yes,x,5,x,0.3960408999992069,1,89,test2,1,0.396154200003366,-70.0
16,sj,f,20,r,2,(121.76378772032349, 121.76378772032349),22,7,3,yes,x,5,x,0.5699107000036747,1,90,test2,1,0.5700508000008995,-38.0
16,sj,f,20,r,2,(121.76378772032346, -121.76378772032352),28,7,3,no,m,6,m,0.6760295999993104,1,91,test2,1,0.6761285999964457,-38.0
16,sj,f,20,r,2,(-3.163262682197613e-14, -172.20000000000002),27,25,4,yes,x,5,x,0.472012199999881,1,92,test2,1,0.4722044000009191,-20.0
16,sj,f,20,r,2,(121.76378772032346, -121.76378772032352),28,25,4,no,m,6,m,0.9465474000026006,1,93,test2,1,0.9467891000022064,-20.0
16,sj,f,20,r,2,(-172.20000000000002, 2.1088417881317425e-14),25,5,2,no,m,6,m,0.4805123000041931,1,94,test2,1,0.48129229999904055,-20.0
16,sj,f,20,r,2,(-121.76378772032348, 121.76378772032349),24,-5,12,yes,x,5,x,0.5743840999930399,1,95,test2,1,0.5745117000042228,-50.0
16,sj,f,20,r,2,(172.20000000000002, 0.0),21,-3,11,yes,x,5,x,0.8089386999999988,1,96,test2,1,0.8090413000027183,-48.0
16,sj,f,20,r,2,(-121.76378772032348, 121.76378772032349),24,-3,11,no,m,6,m,0.8008201999982703,1,1,test1,2,0.8009653999979491,-48.0
16,sj,f,20,r,2,(121.76378772032346, -121.76378772032352),28,7,3,yes,x,5,x,0.4932096999982605,1,2,test1,2,0.49348399999871617,-38.0
16,sj,f,20,r,2,(121.76378772032349, 121.76378772032349),22,5,2,yes,x,5,x,0.5650861999965855,1,3,test1,2,0.5653744000010192,-40.0
16,sj,f,20,r,2,(121.76378772032346, -121.76378772032352),28,25,4,yes,x,5,x,0.4713555999987875,1,4,test1,2,0.4717915000001085,-20.0
16,sj,f,20,r,2,(1.0544208940658713e-14, 172.20000000000002),23,-7,13,yes,x,5,x,0.42735470000479836,1,5,test1,2,0.42747070000041276,-52.0
16,sj,f,20,r,2,(121.76378772032346, -121.76378772032352),28,-5,12,yes,x,5,x,0.8108186999961617,1,6,test1,2,0.8110526000018581,-50.0
16,sj,f,20,r,2,(1.0544208940658713e-14, 172.20000000000002),23,-7,13,no,m,6,m,0.744817900005728,1,7,test1,2,0.7449178000024403,-50.0
16,sj,f,20,r,2,(121.76378772032349, 121.76378772032349),22,25,4,yes,x,5,x,0.5571477999983472,1,8,test1,2,0.557559200002288,-20.0
16,sj,f,20,r,2,(172.20000000000002, 0.0),21,3,1,yes,x,5,x,1.0369537999940803,1,9,test1,2,1.0371216000057757,-42.0
16,sj,f,20,r,2,(121.76378772032349, 121.76378772032349),22,25,4,no,m,6,m,0.5682497999951011,1,10,test1,2,0.5688502999983029,-42.0
16,sj,f,20,r,2,(121.76378772032349, 121.76378772032349),22,3,1,no,m,6,m,1.1066081000026315,1,11,test1,2,1.106710899999598,-42.0
16,sj,f,20,r,2,(1.0544208940658713e-14, 172.20000000000002),23,-3,11,yes,x,5,x,0.5738167000017711,1,12,test1,2,0.5739436000003479,-48.0
16,sj,f,20,r,2,(-121.76378772032352, -121.76378772032348),26,3,1,yes,x,5,m,0.7239110999944387,0,13,test1,2,0.7240334999951301,-42.0
16,sj,f,20,r,2,(121.76378772032349, 121.76378772032349),22,-3,11,no,m,6,m,1.1758881999994628,1,14,test1,2,1.1761251999996603,-42.0
16,sj,f,20,r,2,(-3.163262682197613e-14, -172.20000000000002),27,5,2,no,m,6,m,0.9600071000022581,1,15,test1,2,0.9604544000030728,-42.0
16,sj,f,20,r,2,(121.76378772032346, -121.76378772032352),28,-3,11,no,m,6,m,1.1565678999977536,1,16,test1,2,1.1568513000020175,-42.0
16,sj,f,20,r,2,(-121.76378772032348, 121.76378772032349),24,7,3,yes,x,5,x,0.505272899994452,1,17,test1,2,0.5056268999978784,-38.0
16,sj,f,20,r,2,(-3.163262682197613e-14, -172.20000000000002),27,-5,12,yes,x,5,x,0.6751593000008143,1,18,test1,2,0.6752942000020994,-50.0
16,sj,f,20,r,2,(121.76378772032349, 121.76378772032349),22,7,3,no,m,6,m,0.7582659000036074,1,19,test1,2,0.7585044000006747,-50.0
16,sj,f,20,r,2,(-121.76378772032352, -121.76378772032348),26,25,4,yes,x,5,x,0.4802974999984144,1,20,test1,2,0.48081960000126855,-20.0
16,sj,f,20,r,2,(1.0544208940658713e-14, 172.20000000000002),23,3,1,yes,x,5,x,0.7179636000000755,1,21,test1,2,0.7182787999990978,-42.0
16,sj,f,20,r,2,(121.76378772032346, -121.76378772032352),28,-7,13,no,m,6,m,0.6883416999990004,1,22,test1,2,0.6887489000000642,-42.0
16,sj,f,20,r,2,(1.0544208940658713e-14, 172.20000000000002),23,-5,12,yes,x,5,x,0.4983055000047898,1,23,test1,2,0.4985649000009289,-50.0
16,sj,f,20,r,2,(-121.76378772032352, -121.76378772032348),26,5,2,yes,x,5,x,1.38150389999646,1,24,test1,2,1.3816382000004523,-40.0
16,sj,f,20,r,2,(172.20000000000002, 0.0),21,5,2,yes,x,5,x,0.6286623000050895,1,25,test1,2,0.6288454999958049,-40.0
16,sj,f,20,r,2,(172.20000000000002, 0.0),21,7,3,yes,x,5,x,0.4632504000037443,1,26,test1,2,0.4636174999977811,-38.0
16,sj,f,20,r,2,(-121.76378772032348, 121.76378772032349),24,3,1,yes,x,5,x,0.6127300000007381,1,27,test1,2,0.6128656000000774,-42.0
16,sj,f,20,r,2,(-121.76378772032348, 121.76378772032349),24,5,2,yes,x,5,x,0.6537974000020768,1,28,test1,2,0.6539685000025202,-40.0
16,sj,f,20,r,2,(1.0544208940658713e-14, 172.20000000000002),23,25,4,yes,x,5,x,0.5246048000044539,1,29,test1,2,0.5247008000005735,-20.0
16,sj,f,20,r,2,(121.76378772032346, -121.76378772032352),28,25,4,yes,x,5,x,0.4976948999974411,1,30,test1,2,0.4980938000007882,-20.0
16,sj,f,20,r,2,(121.76378772032346, -121.76378772032352),28,5,2,no,m,6,m,1.396493799999007,1,31,test1,2,1.3967671999998856,-20.0
16,sj,f,20,r,2,(1.0544208940658713e-14, 172.20000000000002),23,5,2,no,m,6,m,1.174995300003502,1,32,test1,2,1.1751782999999705,-20.0
16,sj,f,20,r,2,(-3.163262682197613e-14, -172.20000000000002),27,3,1,no,m,6,m,0.9983477999994648,1,33,test1,2,0.9985770999992383,-20.0
16,sj,f,20,r,2,(-121.76378772032348, 121.76378772032349),24,-5,12,no,m,6,m,0.9642848000003141,1,34,test1,2,0.9644991000022856,-20.0
16,sj,f,20,r,2,(172.20000000000002, 0.0),21,25,4,yes,x,5,x,0.5811151000016253,1,35,test1,2,0.5817411000025459,-20.0
16,sj,f,20,r,2,(121.76378772032349, 121.76378772032349),22,-7,13,yes,x,5,x,0.4791856000010739,1,36,test1,2,0.47930920000362676,-52.0
16,sj,f,20,r,2,(-121.76378772032352, -121.76378772032348),26,3,1,no,m,6,m,0.9542046999995364,1,37,test1,2,0.9544062999993912,-52.0
16,sj,f,20,r,2,(121.76378772032346, -121.76378772032352),28,5,2,yes,x,5,x,0.7099390000003041,1,38,test1,2,0.7100514000048861,-40.0
16,sj,f,20,r,2,(172.20000000000002, 0.0),21,-5,12,yes,x,5,x,0.5803298000028008,1,39,test1,2,0.5804529000015464,-50.0
16,sj,f,20,r,2,(-3.163262682197613e-14, -172.20000000000002),27,-25,14,no,m,6,m,1.1320403999998234,1,40,test1,2,1.1321616000059294,-50.0
16,sj,f,20,r,2,(-172.20000000000002, 2.1088417881317425e-14),25,25,4,yes,x,5,x,0.526760100001411,1,41,test1,2,0.526986199998646,-20.0
16,sj,f,20,r,2,(172.20000000000002, 0.0),21,-3,11,yes,x,5,x,0.8998938000004273,1,42,test1,2,0.9001253000024008,-48.0
16,sj,f,20,r,2,(1.0544208940658713e-14, 172.20000000000002),23,-25,14,no,m,6,m,0.8954749000040465,1,43,test1,2,0.895634099993913,-48.0
16,sj,f,20,r,2,(-172.20000000000002, 2.1088417881317425e-14),25,-25,14,no,m,6,m,0.8428195000014966,1,44,test1,2,0.843210300001374,-48.0
16,sj,f,20,r,2,(-121.76378772032348, 121.76378772032349),24,-5,12,yes,x,5,x,0.5869781999936095,1,45,test1,2,0.5871847999951569,-50.0
16,sj,f,20,r,2,(-121.76378772032348, 121.76378772032349),24,7,3,no,m,6,m,1.066644599995925,1,46,test1,2,1.066760299996531,-50.0
16,sj,f,20,r,2,(1.0544208940658713e-14, 172.20000000000002),23,-5,12,yes,x,5,x,0.5329809999966528,1,47,test1,2,0.533089899996412,-50.0
16,sj,f,20,r,2,(1.0544208940658713e-14, 172.20000000000002),23,7,3,no,m,6,m,1.4153172000005725,1,48,test1,2,1.415732699999353,-50.0
16,sj,f,20,r,2,(121.76378772032346, -121.76378772032352),28,3,1,yes,x,5,x,1.0809422000020277,1,49,test1,2,1.0815001000009943,-42.0
16,sj,f,20,r,2,(121.76378772032349, 121.76378772032349),22,-5,12,yes,x,5,x,0.8952372000057949,1,50,test1,2,0.8953436000010697,-50.0
16,sj,f,20,r,2,(-3.163262682197613e-14, -172.20000000000002),27,7,3,no,m,6,m,1.2699689000000944,1,51,test1,2,1.2700710999997682,-50.0
16,sj,f,20,r,2,(-172.20000000000002, 2.1088417881317425e-14),25,25,4,yes,x,5,x,0.5916252999959397,1,52,test1,2,0.5917442999998457,-20.0
16,sj,f,20,r,2,(-3.163262682197613e-14, -172.20000000000002),27,-5,12,yes,x,5,x,0.5357480000020587,1,53,test1,2,0.5363719999950263,-50.0
16,sj,f,20,r,2,(-172.20000000000002, 2.1088417881317425e-14),25,-5,12,no,m,6,m,1.0766805000021122,1,54,test1,2,1.0768356999979005,-50.0
16,sj,f,20,r,2,(-121.76378772032348, 121.76378772032349),24,-3,11,yes,x,5,x,1.1100947999948403,1,55,test1,2,1.1102200000023004,-48.0
16,sj,f,20,r,2,(-121.76378772032352, -121.76378772032348),26,3,1,yes,x,5,x,1.200709700002335,1,56,test1,2,1.2009608000007574,-42.0
16,sj,f,20,r,2,(-121.76378772032352, -121.76378772032348),26,-5,12,no,m,6,m,1.2183570999986841,1,57,test1,2,1.2184596000006422,-42.0
16,sj,f,20,r,2,(121.76378772032349, 121.76378772032349),22,-5,12,no,m,6,m,1.0949932000003173,1,58,test1,2,1.095112599999993,-42.0
16,sj,f,20,r,2,(-121.76378772032352, -121.76378772032348),26,7,3,yes,x,5,x,0.5560451999990619,1,59,test1,2,0.5561447000000044,-38.0
16,sj,f,20,r,2,(-121.76378772032348, 121.76378772032349),24,-3,11,yes,x,5,x,0.9035273999979836,1,60,test1,2,0.9039976999993087,-48.0
16,sj,f,20,r,2,(-121.76378772032348, 121.76378772032349),24,5,2,yes,x,5,x,0.754007300005469,1,61,test1,2,0.7541504999971949,-40.0
16,sj,f,20,r,2,(121.76378772032346, -121.76378772032352),28,3,1,yes,x,5,x,0.9846257000026526,1,62,test1,2,0.9847478999945452,-42.0
16,sj,f,20,r,2,(121.76378772032349, 121.76378772032349),22,7,3,yes,x,5,x,0.4677475999997114,1,63,test1,2,0.46794779999618186,-38.0
16,sj,f,20,r,2,(-3.163262682197613e-14, -172.20000000000002),27,-3,11,no,m,6,m,1.4968649000002188,1,64,test1,2,1.4976649999953224,-38.0
16,sj,f,20,r,2,(-121.76378772032352, -121.76378772032348),26,-3,11,yes,x,5,x,0.721522299994831,1,65,test1,2,0.7216442999997525,-48.0
16,sj,f,20,r,2,(121.76378772032349, 121.76378772032349),22,5,2,yes,x,5,x,0.8910914000007324,1,66,test1,2,0.8913328999988153,-40.0
16,sj,f,20,r,2,(-3.163262682197613e-14, -172.20000000000002),27,7,3,yes,x,5,x,0.48129530000005616,1,67,test1,2,0.4816620999990846,-38.0
16,sj,f,20,r,2,(-121.76378772032348, 121.76378772032349),24,3,1,yes,x,5,x,1.454727999996976,1,68,test1,2,1.454944199998863,-42.0
16,sj,f,20,r,2,(-121.76378772032348, 121.76378772032349),24,-7,13,yes,x,5,x,0.8410986000017147,1,69,test1,2,0.8412240000034217,-52.0
16,sj,f,20,r,2,(121.76378772032346, -121.76378772032352),28,-5,12,no,m,6,m,1.3927409000025364,1,70,test1,2,1.3929176999954507,-52.0
16,sj,f,20,r,2,(-121.76378772032352, -121.76378772032348),26,25,4,yes,x,5,x,0.9402319000000716,1,71,test1,2,0.9404816999958712,-20.0
16,sj,f,20,r,2,(1.0544208940658713e-14, 172.20000000000002),23,5,2,yes,x,5,x,0.4422599999961676,1,72,test1,2,0.4426413999972283,-40.0
16,sj,f,20,r,2,(-3.163262682197613e-14, -172.20000000000002),27,-3,11,yes,x,5,x,0.6206968999977107,1,73,test1,2,0.6207960999963689,-48.0
16,sj,f,20,r,2,(-172.20000000000002, 2.1088417881317425e-14),25,-3,11,yes,x,5,x,1.0652861000053235,1,74,test1,2,1.065386899994337,-48.0
16,sj,f,20,r,2,(-121.76378772032348, 121.76378772032349),24,-7,13,yes,x,5,x,0.4796215999958804,1,75,test1,2,0.47986800000217045,-52.0
16,sj,f,20,r,2,(-3.163262682197613e-14, -172.20000000000002),27,25,4,yes,x,5,x,0.5265596000026562,1,76,test1,2,0.526725700001407,-20.0
16,sj,f,20,r,2,(-172.20000000000002, 2.1088417881317425e-14),25,-7,13,no,m,6,m,1.0166033000059542,1,77,test1,2,1.0167823000010685,-20.0
16,sj,f,20,r,2,(121.76378772032349, 121.76378772032349),22,-25,14,yes,x,5,x,0.6301708000028157,1,78,test1,2,0.6304162000014912,-70.0
16,sj,f,20,r,2,(172.20000000000002, 0.0),21,-25,14,yes,x,5,x,0.4132240000035381,1,79,test1,2,0.4133381999999983,-70.0
16,sj,f,20,r,2,(-121.76378772032352, -121.76378772032348),26,5,2,yes,x,5,x,0.5604764999952749,1,80,test1,2,0.5607902000047034,-40.0
16,sj,f,20,r,2,(172.20000000000002, 0.0),21,-25,14,no,m,6,m,0.9672892000016873,1,81,test1,2,0.9674035999996704,-40.0
16,sj,f,20,r,2,(-172.20000000000002, 2.1088417881317425e-14),25,7,3,yes,x,5,x,0.6216623000000254,1,82,test1,2,0.6217624999990221,-38.0
16,sj,f,20,r,2,(121.76378772032349, 121.76378772032349),22,3,1,yes,x,5,x,0.5583532000018749,1,83,test1,2,0.5584683999986737,-42.0
16,sj,f,20,r,2,(172.20000000000002, 0.0),21,-3,11,no,m,6,m,1.479976099995838,1,84,test1,2,1.4801594000018667,-42.0
16,sj,f,20,r,2,(-3.163262682197613e-14, -172.20000000000002),27,-7,13,yes,x,5,x,0.600577199998952,1,85,test1,2,0.60073939999711,-52.0
16,sj,f,20,r,2,(121.76378772032349, 121.76378772032349),22,-25,14,no,m,6,m,0.7893656999949599,1,86,test1,2,0.7894806000040262,-52.0
16,sj,f,20,r,2,(-172.20000000000002, 2.1088417881317425e-14),25,-5,12,yes,x,5,x,0.7178628999972716,1,87,test1,2,0.7179617000001599,-50.0
16,sj,f,20,r,2,(121.76378772032349, 121.76378772032349),22,-7,13,yes,x,5,x,0.469424999995681,1,88,test1,2,0.4697738000031677,-52.0
16,sj,f,20,r,2,(-121.76378772032352, -121.76378772032348),26,-3,11,yes,x,5,x,0.5323339999958989,1,89,test1,2,0.5325573000009172,-48.0
16,sj,f,20,r,2,(172.20000000000002, 0.0),21,3,1,yes,x,5,x,1.3406905999945593,1,90,test1,2,1.340864199999487,-42.0
16,sj,f,20,r,2,(-121.76378772032348, 121.76378772032349),24,-25,14,no,m,6,m,1.4407204000017373,1,91,test1,2,1.4409346000029473,-42.0
16,sj,f,20,r,2,(-3.163262682197613e-14, -172.20000000000002),27,5,2,yes,x,5,x,0.9392195999971591,1,92,test1,2,0.9398241999952006,-40.0
16,sj,f,20,r,2,(121.76378772032346, -121.76378772032352),28,-25,14,no,m,6,m,1.4421416999975918,1,93,test1,2,1.4424301000035484,-40.0
16,sj,f,20,r,2,(1.0544208940658713e-14, 172.20000000000002),23,25,4,no,m,6,m,1.1557657999946969,1,94,test1,2,1.1561794000008376,-40.0
16,sj,f,20,r,2,(1.0544208940658713e-14, 172.20000000000002),23,7,3,yes,x,5,x,0.5083030999958282,1,95,test1,2,0.5084163999999873,-38.0
16,sj,f,20,r,2,(121.76378772032346, -121.76378772032352),28,7,3,yes,x,5,x,0.5094880000033299,1,96,test1,2,0.5096938999995473,-38.0
16,sj,f,20,r,2,(1.0544208940658713e-14, 172.20000000000002),23,3,1,no,m,6,m,1.0781840000054217,1,1,test2,2,1.0785332000014023,-38.0
16,sj,f,20,r,2,(-121.76378772032352, -121.76378772032348),26,-7,13,yes,x,5,x,0.4562835999968229,1,2,test2,2,0.4565038000000641,-52.0
16,sj,f,20,r,2,(-172.20000000000002, 2.1088417881317425e-14),25,-25,14,yes,x,5,x,0.46970880000299076,1,3,test2,2,0.4700942000054056,-70.0
16,sj,f,20,r,2,(121.76378772032346, -121.76378772032352),28,-7,13,yes,x,5,x,0.6005134000006365,1,4,test2,2,0.6006122000035248,-52.0
16,sj,f,20,r,2,(-172.20000000000002, 2.1088417881317425e-14),25,-7,13,yes,x,5,x,0.5248858999984805,1,5,test2,2,0.5249818999946001,-52.0
16,sj,f,20,r,2,(-121.76378772032348, 121.76378772032349),24,25,4,no,m,6,m,1.165586200004327,1,6,test2,2,1.1658708000031766,-52.0
16,sj,f,20,r,2,(172.20000000000002, 0.0),21,7,3,no,m,6,x,0.7933609999963664,0,7,test2,2,0.7936955999975908,-52.0
16,sj,f,20,r,2,(-121.76378772032352, -121.76378772032348),26,7,3,no,m,6,m,1.1107572999972035,1,8,test2,2,1.110859899999923,-52.0
16,sj,f,20,r,2,(1.0544208940658713e-14, 172.20000000000002),23,3,1,yes,x,5,x,0.9566620999976294,1,9,test2,2,0.9569771999958903,-42.0
16,sj,f,20,r,2,(121.76378772032349, 121.76378772032349),22,3,1,yes,x,5,x,1.1501240999932634,1,10,test2,2,1.1502541000008932,-42.0
16,sj,f,20,r,2,(1.0544208940658713e-14, 172.20000000000002),23,-5,12,no,m,6,m,1.357484400003159,1,11,test2,2,1.357732999997097,-42.0
16,sj,f,20,r,2,(1.0544208940658713e-14, 172.20000000000002),23,-7,13,yes,x,5,x,0.4668468000018038,1,12,test2,2,0.46754220000002533,-52.0
16,sj,f,20,r,2,(-121.76378772032348, 121.76378772032349),24,25,4,yes,x,5,x,0.5185989000019617,1,13,test2,2,0.518802799997502,-20.0
16,sj,f,20,r,2,(121.76378772032349, 121.76378772032349),22,-3,11,yes,x,5,x,0.576505700002599,1,14,test2,2,0.5771778000053018,-48.0
16,sj,f,20,r,2,(-172.20000000000002, 2.1088417881317425e-14),25,3,1,yes,x,5,x,1.174399400006223,1,15,test2,2,1.1747028000027058,-42.0
16,sj,f,20,r,2,(-121.76378772032352, -121.76378772032348),26,-7,13,no,m,6,m,1.036355200005346,1,16,test2,2,1.0366474999973434,-42.0
16,sj,f,20,r,2,(121.76378772032346, -121.76378772032352),28,-7,13,yes,x,5,x,0.902828700003738,1,17,test2,2,0.902929399999266,-52.0
16,sj,f,20,r,2,(1.0544208940658713e-14, 172.20000000000002),23,-3,11,yes,x,5,x,0.9124508000022615,1,18,test2,2,0.9125874000019394,-48.0
16,sj,f,20,r,2,(172.20000000000002, 0.0),21,5,2,yes,x,5,x,0.8324920000013663,1,19,test2,2,0.8329253000047174,-40.0
16,sj,f,20,r,2,(-3.163262682197613e-14, -172.20000000000002),27,-7,13,yes,x,5,x,0.46070850000251085,1,20,test2,2,0.4609809000030509,-52.0
16,sj,f,20,r,2,(172.20000000000002, 0.0),21,-25,14,yes,x,5,x,0.5007473999939975,1,21,test2,2,0.5008654999983264,-70.0
16,sj,f,20,r,2,(-172.20000000000002, 2.1088417881317425e-14),25,5,2,yes,x,5,x,0.5963514999966719,1,22,test2,2,0.5966492000006838,-40.0
16,sj,f,20,r,2,(-172.20000000000002, 2.1088417881317425e-14),25,3,1,no,m,6,x,1.5099924000023748,0,23,test2,2,1.5103255000067293,-40.0
16,sj,f,20,r,2,(-172.20000000000002, 2.1088417881317425e-14),25,-3,11,no,m,6,m,0.9658669999989797,1,24,test2,2,0.9659937999967951,-40.0
16,sj,f,20,r,2,(-121.76378772032348, 121.76378772032349),24,-25,14,yes,x,5,x,0.4747010999999475,1,25,test2,2,0.47493120000581257,-70.0
16,sj,f,20,r,2,(121.76378772032346, -121.76378772032352),28,3,1,no,m,6,m,0.8778657000002568,1,26,test2,2,0.8780681999996887,-70.0
16,sj,f,20,r,2,(-121.76378772032352, -121.76378772032348),26,-5,12,yes,x,5,x,0.5105325999975321,1,27,test2,2,0.5109093999999459,-50.0
16,sj,f,20,r,2,(1.0544208940658713e-14, 172.20000000000002),23,25,4,yes,x,5,x,0.46476519999851007,1,28,test2,2,0.4649864000020898,-20.0
16,sj,f,20,r,2,(121.76378772032346, -121.76378772032352),28,5,2,yes,x,5,x,0.7078926999965915,1,29,test2,2,0.7081353000030504,-40.0
16,sj,f,20,r,2,(-3.163262682197613e-14, -172.20000000000002),27,25,4,no,m,6,m,1.868623000002117,1,30,test2,2,1.8689080999974976,-40.0
16,sj,f,20,r,2,(1.0544208940658713e-14, 172.20000000000002),23,7,3,yes,x,5,x,0.3841160000010859,1,31,test2,2,0.3843524999974761,-38.0
16,sj,f,20,r,2,(121.76378772032346, -121.76378772032352),28,-5,12,yes,x,5,x,0.7914497000019765,1,32,test2,2,0.7915921000021626,-50.0
16,sj,f,20,r,2,(172.20000000000002, 0.0),21,-5,12,no,m,6,m,1.5339642000035383,1,33,test2,2,1.534264499998244,-50.0
16,sj,f,20,r,2,(-121.76378772032352, -121.76378772032348),26,5,2,no,m,6,m,1.1522304999962216,1,34,test2,2,1.1523468000013963,-50.0
16,sj,f,20,r,2,(-172.20000000000002, 2.1088417881317425e-14),25,7,3,yes,x,5,x,0.7906847999984166,1,35,test2,2,0.7908165999979246,-38.0
16,sj,f,20,r,2,(-3.163262682197613e-14, -172.20000000000002),27,5,2,yes,x,5,x,0.7339502999966498,1,36,test2,2,0.7342327000005753,-40.0
16,sj,f,20,r,2,(172.20000000000002, 0.0),21,25,4,yes,x,5,x,0.7373121000055107,1,37,test2,2,0.7375116999974125,-20.0
16,sj,f,20,r,2,(-172.20000000000002, 2.1088417881317425e-14),25,-25,14,yes,x,5,x,0.6252105999956257,1,38,test2,2,0.625430400003097,-70.0
16,sj,f,20,r,2,(-172.20000000000002, 2.1088417881317425e-14),25,25,4,no,m,6,m,0.9373295999976108,1,39,test2,2,0.9374868999948376,-70.0
16,sj,f,20,r,2,(-121.76378772032348, 121.76378772032349),24,7,3,yes,x,5,x,1.1237083000014536,1,40,test2,2,1.1238412000020617,-38.0
16,sj,f,20,r,2,(121.76378772032346, -121.76378772032352),28,-25,14,yes,x,5,x,0.6610696999996435,1,41,test2,2,0.6612181999953464,-70.0
16,sj,f,20,r,2,(121.76378772032346, -121.76378772032352),28,-3,11,yes,x,5,m,1.3002663999941433,0,42,test2,2,1.3003667999946629,-48.0
16,sj,f,20,r,2,(-172.20000000000002, 2.1088417881317425e-14),25,-3,11,yes,x,5,x,1.047938099996827,1,43,test2,2,1.048110000003362,-48.0
16,sj,f,20,r,2,(-121.76378772032348, 121.76378772032349),24,-7,13,no,m,6,m,1.162325299999793,1,44,test2,2,1.162638900001184,-48.0
16,sj,f,20,r,2,(121.76378772032349, 121.76378772032349),22,25,4,yes,x,5,x,0.5577931000007084,1,45,test2,2,0.5579681000017445,-20.0
16,sj,f,20,r,2,(-172.20000000000002, 2.1088417881317425e-14),25,7,3,no,m,6,m,1.1036680999968667,1,46,test2,2,1.1039667000004556,-20.0
16,sj,f,20,r,2,(-121.76378772032352, -121.76378772032348),26,-25,14,no,m,6,m,1.6559363000051235,1,47,test2,2,1.6563565000033122,-20.0
16,sj,f,20,r,2,(1.0544208940658713e-14, 172.20000000000002),23,-25,14,yes,x,5,x,0.5422226000009687,1,48,test2,2,0.5424152999985381,-70.0
16,sj,f,20,r,2,(121.76378772032346, -121.76378772032352),28,-3,11,yes,x,5,x,0.7731446000034339,1,49,test2,2,0.7733571999997366,-48.0
16,sj,f,20,r,2,(121.76378772032349, 121.76378772032349),22,-3,11,yes,x,5,x,0.9031812000030186,1,50,test2,2,0.9033138999948278,-48.0
16,sj,f,20,r,2,(121.76378772032346, -121.76378772032352),28,-25,14,yes,x,5,x,0.6079824000044027,1,51,test2,2,0.6080832000006922,-70.0
16,sj,f,20,r,2,(-172.20000000000002, 2.1088417881317425e-14),25,-7,13,yes,x,5,x,0.5693166999990353,1,52,test2,2,0.5695321000021067,-52.0
16,sj,f,20,r,2,(1.0544208940658713e-14, 172.20000000000002),23,-3,11,no,m,6,m,1.351645800001279,1,53,test2,2,1.3517822999929194,-52.0
16,sj,f,20,r,2,(-121.76378772032352, -121.76378772032348),26,-3,11,no,m,6,m,1.1848080000054324,1,54,test2,2,1.185169099997438,-52.0
16,sj,f,20,r,2,(-121.76378772032348, 121.76378772032349),24,5,2,no,m,6,m,1.1511920000048121,1,55,test2,2,1.1512917000000016,-52.0
16,sj,f,20,r,2,(172.20000000000002, 0.0),21,-5,12,yes,x,5,x,0.8565842000025441,1,56,test2,2,0.8568985000019893,-50.0
16,sj,f,20,r,2,(-121.76378772032352, -121.76378772032348),26,-5,12,yes,x,5,x,1.0650411999959033,1,57,test2,2,1.0651437999986229,-50.0
16,sj,f,20,r,2,(172.20000000000002, 0.0),21,3,1,no,m,6,m,1.0261181000023498,1,58,test2,2,1.0262414000026183,-50.0
16,sj,f,20,r,2,(-172.20000000000002, 2.1088417881317425e-14),25,5,2,yes,x,5,x,1.1292795999979717,1,59,test2,2,1.1295157999993535,-40.0
16,sj,f,20,r,2,(-3.163262682197613e-14, -172.20000000000002),27,3,1,yes,x,5,x,0.9153662999960943,1,60,test2,2,0.9156741999977385,-42.0
16,sj,f,20,r,2,(-121.76378772032352, -121.76378772032348),26,-25,14,yes,x,5,x,0.6416252999988501,1,61,test2,2,0.6417234999971697,-70.0
16,sj,f,20,r,2,(-121.76378772032348, 121.76378772032349),24,25,4,yes,x,5,x,0.5459783999976935,1,62,test2,2,0.5463156999976491,-20.0
16,sj,f,20,r,2,(-121.76378772032352, -121.76378772032348),26,-7,13,yes,x,5,x,0.4453300999957719,1,63,test2,2,0.4454340999945998,-52.0
16,sj,f,20,r,2,(-3.163262682197613e-14, -172.20000000000002),27,-3,11,yes,x,5,x,0.6381886000017403,1,64,test2,2,0.6384762000016053,-48.0
16,sj,f,20,r,2,(-3.163262682197613e-14, -172.20000000000002),27,-5,12,no,m,6,m,1.6531348999997135,1,65,test2,2,1.6532714999993914,-48.0
16,sj,f,20,r,2,(121.76378772032349, 121.76378772032349),22,-25,14,yes,x,5,x,0.7768480000013369,1,66,test2,2,0.7769711000000825,-70.0
16,sj,f,20,r,2,(172.20000000000002, 0.0),21,5,2,no,m,6,m,1.2199913000004017,1,67,test2,2,1.2201293999969494,-70.0
16,sj,f,20,r,2,(121.76378772032349, 121.76378772032349),22,5,2,no,m,6,m,0.8135279000052833,1,68,test2,2,0.8138490999990609,-70.0
16,sj,f,20,r,2,(-3.163262682197613e-14, -172.20000000000002),27,-7,13,no,m,6,m,0.9923657000035746,1,69,test2,2,0.9924661999975797,-70.0
16,sj,f,20,r,2,(-3.163262682197613e-14, -172.20000000000002),27,-25,14,yes,x,5,x,0.5473469999997178,1,70,test2,2,0.5475791999997455,-70.0
16,sj,f,20,r,2,(-121.76378772032352, -121.76378772032348),26,25,4,no,m,6,m,0.6481891000003088,1,71,test2,2,0.6483968999964418,-70.0
16,sj,f,20,r,2,(-3.163262682197613e-14, -172.20000000000002),27,3,1,yes,x,5,x,1.1129839999994147,1,72,test2,2,1.1132856999975047,-42.0
16,sj,f,20,r,2,(-3.163262682197613e-14, -172.20000000000002),27,-25,14,yes,x,5,x,0.4365862999984529,1,73,test2,2,0.436998199998925,-70.0
16,sj,f,20,r,2,(-121.76378772032352, -121.76378772032348),26,7,3,yes,x,5,x,0.4180342000036035,1,74,test2,2,0.4182717000003322,-38.0
16,sj,f,20,r,2,(172.20000000000002, 0.0),21,7,3,yes,x,5,x,0.4497715000034077,1,75,test2,2,0.4499991000047885,-38.0
16,sj,f,20,r,2,(-172.20000000000002, 2.1088417881317425e-14),25,3,1,yes,x,5,x,1.2692116999969585,1,76,test2,2,1.2694260999996914,-42.0
16,sj,f,20,r,2,(172.20000000000002, 0.0),21,-7,13,no,m,6,m,1.150835200001893,1,77,test2,2,1.1510552999970969,-42.0
16,sj,f,20,r,2,(-172.20000000000002, 2.1088417881317425e-14),25,-5,12,yes,x,5,x,0.6739577000043937,1,78,test2,2,0.6742681000032462,-50.0
16,sj,f,20,r,2,(172.20000000000002, 0.0),21,-7,13,yes,x,5,x,0.6217637000008835,1,79,test2,2,0.6220938999977079,-52.0
16,sj,f,20,r,2,(1.0544208940658713e-14, 172.20000000000002),23,-25,14,yes,x,5,x,0.49614199999632547,1,80,test2,2,0.4962353000009898,-70.0
16,sj,f,20,r,2,(172.20000000000002, 0.0),21,25,4,no,m,6,m,1.2608871999982512,1,81,test2,2,1.2612951999981306,-70.0
16,sj,f,20,r,2,(-121.76378772032348, 121.76378772032349),24,-25,14,yes,x,5,x,0.4482328000012785,1,82,test2,2,0.44840950000070734,-70.0
16,sj,f,20,r,2,(121.76378772032349, 121.76378772032349),22,-7,13,no,m,6,m,1.0220202999989851,1,83,test2,2,1.0223067000042647,-70.0
16,sj,f,20,r,2,(-3.163262682197613e-14, -172.20000000000002),27,7,3,yes,x,5,x,0.6215034999986528,1,84,test2,2,0.6218081999977585,-38.0
16,sj,f,20,r,2,(-121.76378772032348, 121.76378772032349),24,3,1,no,m,6,m,0.8420870999980252,1,85,test2,2,0.8422014000025229,-38.0
16,sj,f,20,r,2,(1.0544208940658713e-14, 172.20000000000002),23,5,2,yes,x,5,x,0.6215289000028861,1,86,test2,2,0.6217176999998628,-40.0
16,sj,f,20,r,2,(172.20000000000002, 0.0),21,-7,13,yes,x,5,x,0.616437999997288,1,87,test2,2,0.6165930000061053,-52.0
16,sj,f,20,r,2,(121.76378772032349, 121.76378772032349),22,-5,12,yes,x,5,m,1.0056489999988116,0,88,test2,2,1.005985800002236,-50.0
16,sj,f,20,r,2,(-121.76378772032352, -121.76378772032348),26,-25,14,yes,x,5,x,0.4124828999993042,1,89,test2,2,0.41290390000358457,-70.0
16,sj,f,20,r,2,(121.76378772032349, 121.76378772032349),22,7,3,yes,x,5,x,0.6053396999996039,1,90,test2,2,0.605654399994819,-38.0
16,sj,f,20,r,2,(121.76378772032346, -121.76378772032352),28,7,3,no,m,6,m,1.207565099997737,1,91,test2,2,1.2077081999959773,-38.0
16,sj,f,20,r,2,(-3.163262682197613e-14, -172.20000000000002),27,25,4,yes,x,5,x,0.5092656000051647,1,92,test2,2,0.509808000002522,-20.0
16,sj,f,20,r,2,(121.76378772032346, -121.76378772032352),28,25,4,no,m,6,m,0.7877976000017952,1,93,test2,2,0.7881518000067445,-20.0
16,sj,f,20,r,2,(-172.20000000000002, 2.1088417881317425e-14),25,5,2,no,m,6,m,1.0639589999991586,1,94,test2,2,1.064211200005957,-20.0
16,sj,f,20,r,2,(-121.76378772032348, 121.76378772032349),24,-5,12,yes,x,5,x,0.5140331000002334,1,95,test2,2,0.5151352000029874,-50.0
16,sj,f,20,r,2,(172.20000000000002, 0.0),21,-3,11,yes,x,5,x,1.0672077999988687,1,96,test2,2,1.0677974999998696,-48.0
16,sj,f,20,r,2,(-121.76378772032348, 121.76378772032349),24,-3,11,no,m,6,m,0.9959515999944415,1,1,test1,3,0.9960856000034255,-48.0
16,sj,f,20,r,2,(121.76378772032346, -121.76378772032352),28,7,3,yes,x,5,x,0.48867169999721227,1,2,test1,3,0.48885219999647234,-38.0
16,sj,f,20,r,2,(121.76378772032349, 121.76378772032349),22,5,2,yes,x,5,x,0.5459972000026028,1,3,test1,3,0.5461323999988963,-40.0
16,sj,f,20,r,2,(121.76378772032346, -121.76378772032352),28,25,4,yes,x,5,x,0.45417719999386463,1,4,test1,3,0.45435070000530686,-20.0
16,sj,f,20,r,2,(1.0544208940658713e-14, 172.20000000000002),23,-7,13,yes,x,5,x,0.684873800004425,1,5,test1,3,0.6853341999958502,-52.0
16,sj,f,20,r,2,(121.76378772032346, -121.76378772032352),28,-5,12,yes,x,5,x,0.4999076000021887,1,6,test1,3,0.5000217999986489,-50.0
16,sj,f,20,r,2,(1.0544208940658713e-14, 172.20000000000002),23,-7,13,no,m,6,m,1.339939299999969,1,7,test1,3,1.3404272999978275,-50.0
16,sj,f,20,r,2,(121.76378772032349, 121.76378772032349),22,25,4,yes,x,5,x,0.4245022000031895,1,8,test1,3,0.42462589999922784,-20.0
16,sj,f,20,r,2,(172.20000000000002, 0.0),21,3,1,yes,x,5,x,0.4921916999956011,1,9,test1,3,0.492486099996313,-42.0
16,sj,f,20,r,2,(121.76378772032349, 121.76378772032349),22,25,4,no,m,6,m,0.8769240000037826,1,10,test1,3,0.8772373999963747,-42.0
16,sj,f,20,r,2,(121.76378772032349, 121.76378772032349),22,3,1,no,m,6,m,0.9393723999965005,1,11,test1,3,0.9396152999979677,-42.0
16,sj,f,20,r,2,(1.0544208940658713e-14, 172.20000000000002),23,-3,11,yes,x,5,x,0.49071839999669464,1,12,test1,3,0.491341699998884,-48.0
16,sj,f,20,r,2,(-121.76378772032352, -121.76378772032348),26,3,1,yes,x,5,x,0.8727352999994764,1,13,test1,3,0.8729731999992509,-42.0
16,sj,f,20,r,2,(121.76378772032349, 121.76378772032349),22,-3,11,no,m,6,m,0.975613800001156,1,14,test1,3,0.9758122999992338,-42.0
16,sj,f,20,r,2,(-3.163262682197613e-14, -172.20000000000002),27,5,2,no,m,6,m,0.9741087000002153,1,15,test1,3,0.9744019999998272,-42.0
16,sj,f,20,r,2,(121.76378772032346, -121.76378772032352),28,-3,11,no,m,6,m,0.8094147999945562,1,16,test1,3,0.8095399000012549,-42.0
16,sj,f,20,r,2,(-121.76378772032348, 121.76378772032349),24,7,3,yes,x,5,x,0.42012309999699937,1,17,test1,3,0.4202447999996366,-38.0
16,sj,f,20,r,2,(-3.163262682197613e-14, -172.20000000000002),27,-5,12,yes,x,5,x,0.6574035000012373,1,18,test1,3,0.6576323000044795,-50.0
16,sj,f,20,r,2,(121.76378772032349, 121.76378772032349),22,7,3,no,m,6,m,0.787713799996709,1,19,test1,3,0.7879286999959731,-50.0
16,sj,f,20,r,2,(-121.76378772032352, -121.76378772032348),26,25,4,yes,x,5,x,0.4380221999963396,1,20,test1,3,0.4382921000069473,-20.0
16,sj,f,20,r,2,(1.0544208940658713e-14, 172.20000000000002),23,3,1,yes,x,5,x,0.7869531000033021,1,21,test1,3,0.7874415000042063,-42.0
16,sj,f,20,r,2,(121.76378772032346, -121.76378772032352),28,-7,13,no,m,6,m,0.5831640999967931,1,22,test1,3,0.583296299999347,-42.0
16,sj,f,20,r,2,(1.0544208940658713e-14, 172.20000000000002),23,-5,12,yes,x,5,x,0.386438100002124,1,23,test1,3,0.38673470000503585,-50.0
16,sj,f,20,r,2,(-121.76378772032352, -121.76378772032348),26,5,2,yes,x,5,x,0.4087056999997003,1,24,test1,3,0.4088311000014073,-40.0
16,sj,f,20,r,2,(172.20000000000002, 0.0),21,5,2,yes,x,5,x,0.5359607000063988,1,25,test1,3,0.5361814999996568,-40.0
16,sj,f,20,r,2,(172.20000000000002, 0.0),21,7,3,yes,x,5,x,0.5813706999979331,1,26,test1,3,0.5814880999969319,-38.0
16,sj,f,20,r,2,(-121.76378772032348, 121.76378772032349),24,3,1,yes,x,5,x,0.5519310000017867,1,27,test1,3,0.5520264000006136,-42.0
16,sj,f,20,r,2,(-121.76378772032348, 121.76378772032349),24,5,2,yes,x,5,x,1.4315423000007286,1,28,test1,3,1.4318396999951801,-40.0
16,sj,f,20,r,2,(1.0544208940658713e-14, 172.20000000000002),23,25,4,yes,x,5,x,0.5393617000008817,1,29,test1,3,0.5395435999962501,-20.0
16,sj,f,20,r,2,(121.76378772032346, -121.76378772032352),28,25,4,yes,x,5,x,0.4287043000003905,1,30,test1,3,0.42894340000202646,-20.0
16,sj,f,20,r,2,(121.76378772032346, -121.76378772032352),28,5,2,no,m,6,m,0.7438101000007009,1,31,test1,3,0.744050099994638,-20.0
16,sj,f,20,r,2,(1.0544208940658713e-14, 172.20000000000002),23,5,2,no,m,6,m,0.5753378999943379,1,32,test1,3,0.5757945000004838,-20.0
16,sj,f,20,r,2,(-3.163262682197613e-14, -172.20000000000002),27,3,1,no,m,6,m,0.6874435999998241,1,33,test1,3,0.6877612000025692,-20.0
16,sj,f,20,r,2,(-121.76378772032348, 121.76378772032349),24,-5,12,no,m,6,m,0.6700997000007192,1,34,test1,3,0.6702173999947263,-20.0
16,sj,f,20,r,2,(172.20000000000002, 0.0),21,25,4,yes,x,5,x,0.3711598999943817,1,35,test1,3,0.3713729000010062,-20.0
16,sj,f,20,r,2,(121.76378772032349, 121.76378772032349),22,-7,13,yes,x,5,x,0.41987369999696966,1,36,test1,3,0.4199750999978278,-52.0
16,sj,f,20,r,2,(-121.76378772032352, -121.76378772032348),26,3,1,no,m,6,m,0.5590335999950184,1,37,test1,3,0.5593305000002147,-52.0
16,sj,f,20,r,2,(121.76378772032346, -121.76378772032352),28,5,2,yes,x,5,x,0.4688813999964623,1,38,test1,3,0.46910529999877326,-40.0
16,sj,f,20,r,2,(172.20000000000002, 0.0),21,-5,12,yes,x,5,x,0.5140109000058146,1,39,test1,3,0.5142206000018632,-50.0
16,sj,f,20,r,2,(-3.163262682197613e-14, -172.20000000000002),27,-25,14,no,m,6,m,0.6241194000031101,1,40,test1,3,0.624352099999669,-50.0
16,sj,f,20,r,2,(-172.20000000000002, 2.1088417881317425e-14),25,25,4,yes,x,5,x,0.38731969999935245,1,41,test1,3,0.38761910000175703,-20.0
16,sj,f,20,r,2,(172.20000000000002, 0.0),21,-3,11,yes,x,5,x,0.43721930000174325,1,42,test1,3,0.43742980000388343,-48.0
16,sj,f,20,r,2,(1.0544208940658713e-14, 172.20000000000002),23,-25,14,no,m,6,m,0.7365998000022955,1,43,test1,3,0.7368950999953086,-48.0
16,sj,f,20,r,2,(-172.20000000000002, 2.1088417881317425e-14),25,-25,14,no,m,6,m,0.7973257999983616,1,44,test1,3,0.7974267000026884,-48.0
16,sj,f,20,r,2,(-121.76378772032348, 121.76378772032349),24,-5,12,yes,x,5,x,0.4430288000003202,1,45,test1,3,0.4431313999957638,-50.0
16,sj,f,20,r,2,(-121.76378772032348, 121.76378772032349),24,7,3,no,m,6,m,0.6883547999968869,1,46,test1,3,0.6884535000062897,-50.0
16,sj,f,20,r,2,(1.0544208940658713e-14, 172.20000000000002),23,-5,12,yes,x,5,x,0.40574309999647085,1,47,test1,3,0.40590460000385065,-50.0
16,sj,f,20,r,2,(1.0544208940658713e-14, 172.20000000000002),23,7,3,no,m,6,m,0.5123887000008835,1,48,test1,3,0.512510000000475,-50.0
16,sj,f,20,r,2,(121.76378772032346, -121.76378772032352),28,3,1,yes,x,5,x,0.649341700001969,1,49,test1,3,0.6494636000061291,-42.0
16,sj,f,20,r,2,(121.76378772032349, 121.76378772032349),22,-5,12,yes,x,5,x,0.48935599999822443,1,50,test1,3,0.4896145000020624,-50.0
16,sj,f,20,r,2,(-3.163262682197613e-14, -172.20000000000002),27,7,3,no,m,6,m,0.6853771000023698,1,51,test1,3,0.685687199998938,-50.0
16,sj,f,20,r,2,(-172.20000000000002, 2.1088417881317425e-14),25,25,4,yes,x,5,x,0.3962461999981315,1,52,test1,3,0.39634680000017397,-20.0
16,sj,f,20,r,2,(-3.163262682197613e-14, -172.20000000000002),27,-5,12,yes,x,5,x,0.418488499999512,1,53,test1,3,0.41890799999964656,-50.0
16,sj,f,20,r,2,(-172.20000000000002, 2.1088417881317425e-14),25,-5,12,no,m,6,m,0.7130948999983957,1,54,test1,3,0.7133952000003774,-50.0
16,sj,f,20,r,2,(-121.76378772032348, 121.76378772032349),24,-3,11,yes,x,5,x,0.4429091999991215,1,55,test1,3,0.44324829999823123,-48.0
16,sj,f,20,r,2,(-121.76378772032352, -121.76378772032348),26,3,1,yes,x,5,x,0.5453895999962697,1,56,test1,3,0.5455025999981444,-42.0
16,sj,f,20,r,2,(-121.76378772032352, -121.76378772032348),26,-5,12,no,m,6,m,1.3431039999995846,1,57,test1,3,1.3433937999943737,-42.0
16,sj,f,20,r,2,(121.76378772032349, 121.76378772032349),22,-5,12,no,m,6,m,0.8845444000035059,1,58,test1,3,0.8846392999985255,-42.0
16,sj,f,20,r,2,(-121.76378772032352, -121.76378772032348),26,7,3,yes,x,5,x,0.45111509999696864,1,59,test1,3,0.4515153999964241,-38.0
16,sj,f,20,r,2,(-121.76378772032348, 121.76378772032349),24,-3,11,yes,x,5,x,0.5621331000002101,1,60,test1,3,0.5622959999964223,-48.0
16,sj,f,20,r,2,(-121.76378772032348, 121.76378772032349),24,5,2,yes,x,5,x,0.4114268000048469,1,61,test1,3,0.4115574000024935,-40.0
16,sj,f,20,r,2,(121.76378772032346, -121.76378772032352),28,3,1,yes,x,5,x,0.6759426999997231,1,62,test1,3,0.6760412000003271,-42.0
16,sj,f,20,r,2,(121.76378772032349, 121.76378772032349),22,7,3,yes,x,5,x,0.5084314999985509,1,63,test1,3,0.5088582999960636,-38.0
16,sj,f,20,r,2,(-3.163262682197613e-14, -172.20000000000002),27,-3,11,no,m,6,m,1.4168067999999039,1,64,test1,3,1.416927799997211,-38.0
16,sj,f,20,r,2,(-121.76378772032352, -121.76378772032348),26,-3,11,yes,x,5,x,0.3808582999990904,1,65,test1,3,0.3814468999989913,-48.0
16,sj,f,20,r,2,(121.76378772032349, 121.76378772032349),22,5,2,yes,x,5,x,0.5336758999983431,1,66,test1,3,0.5337760999973398,-40.0
16,sj,f,20,r,2,(-3.163262682197613e-14, -172.20000000000002),27,7,3,yes,x,5,x,0.5316651999964961,1,67,test1,3,0.5317849999992177,-38.0
16,sj,f,20,r,2,(-121.76378772032348, 121.76378772032349),24,3,1,yes,x,5,x,0.6626765999972122,1,68,test1,3,0.6631206000020029,-42.0
16,sj,f,20,r,2,(-121.76378772032348, 121.76378772032349),24,-7,13,yes,x,5,x,0.3940033000035328,1,69,test1,3,0.39434089999849675,-52.0
16,sj,f,20,r,2,(121.76378772032346, -121.76378772032352),28,-5,12,no,m,6,x,0.5499914000029094,0,70,test1,3,0.5500925999949686,-52.0
16,sj,f,20,r,2,(-121.76378772032352, -121.76378772032348),26,25,4,yes,x,5,x,0.3689262999978382,1,71,test1,3,0.3690437999975984,-20.0
16,sj,f,20,r,2,(1.0544208940658713e-14, 172.20000000000002),23,5,2,yes,x,5,x,0.4781024000039906,1,72,test1,3,0.478349299999536,-40.0
16,sj,f,20,r,2,(-3.163262682197613e-14, -172.20000000000002),27,-3,11,yes,x,5,x,0.5783211999951163,1,73,test1,3,0.5785294999950565,-48.0
16,sj,f,20,r,2,(-172.20000000000002, 2.1088417881317425e-14),25,-3,11,yes,x,5,x,0.6919867999968119,1,74,test1,3,0.6922365999998874,-48.0
16,sj,f,20,r,2,(-121.76378772032348, 121.76378772032349),24,-7,13,yes,x,5,x,0.42993610000121407,1,75,test1,3,0.4300604000018211,-52.0
16,sj,f,20,r,2,(-3.163262682197613e-14, -172.20000000000002),27,25,4,yes,x,5,x,0.42063420000340557,1,76,test1,3,0.42073289999825647,-20.0
16,sj,f,20,r,2,(-172.20000000000002, 2.1088417881317425e-14),25,-7,13,no,m,6,m,0.7877757000023848,1,77,test1,3,0.7880009000000427,-20.0
16,sj,f,20,r,2,(121.76378772032349, 121.76378772032349),22,-25,14,yes,x,5,x,0.4029054999991786,1,78,test1,3,0.4037097999971593,-70.0
16,sj,f,20,r,2,(172.20000000000002, 0.0),21,-25,14,yes,x,5,x,0.5895618999929866,1,79,test1,3,0.5897966000047745,-70.0
16,sj,f,20,r,2,(-121.76378772032352, -121.76378772032348),26,5,2,yes,x,5,x,0.5963859999974375,1,80,test1,3,0.5966295000034734,-40.0
16,sj,f,20,r,2,(172.20000000000002, 0.0),21,-25,14,no,m,6,m,0.7789647999961744,1,81,test1,3,0.7790959999983897,-40.0
16,sj,f,20,r,2,(-172.20000000000002, 2.1088417881317425e-14),25,7,3,yes,x,5,x,0.3842048000005889,1,82,test1,3,0.38443330000154674,-38.0
16,sj,f,20,r,2,(121.76378772032349, 121.76378772032349),22,3,1,yes,x,5,x,0.9001398000036716,1,83,test1,3,0.9002456000016537,-42.0
16,sj,f,20,r,2,(172.20000000000002, 0.0),21,-3,11,no,m,6,m,0.8831102999974973,1,84,test1,3,0.883626999995613,-42.0
16,sj,f,20,r,2,(-3.163262682197613e-14, -172.20000000000002),27,-7,13,yes,x,5,x,0.6576688999994076,1,85,test1,3,0.6579012000001967,-52.0
16,sj,f,20,r,2,(121.76378772032349, 121.76378772032349),22,-25,14,no,m,6,m,0.9755302999983542,1,86,test1,3,0.9756634000004851,-52.0
16,sj,f,20,r,2,(-172.20000000000002, 2.1088417881317425e-14),25,-5,12,yes,x,5,x,0.5247998999984702,1,87,test1,3,0.5250229000012041,-50.0
16,sj,f,20,r,2,(121.76378772032349, 121.76378772032349),22,-7,13,yes,x,5,x,0.49448620000475785,1,88,test1,3,0.49480319999565836,-52.0
16,sj,f,20,r,2,(-121.76378772032352, -121.76378772032348),26,-3,11,yes,x,5,x,0.6527709000001778,1,89,test1,3,0.653078800001822,-48.0
16,sj,f,20,r,2,(172.20000000000002, 0.0),21,3,1,yes,x,5,x,0.6545955000037793,1,90,test1,3,0.6547022000013385,-42.0
16,sj,f,20,r,2,(-121.76378772032348, 121.76378772032349),24,-25,14,no,m,6,m,0.8670010999994702,1,91,test1,3,0.8671341000008397,-42.0
16,sj,f,20,r,2,(-3.163262682197613e-14, -172.20000000000002),27,5,2,yes,x,5,x,0.4598801000029198,1,92,test1,3,0.4600392000065767,-40.0
16,sj,f,20,r,2,(121.76378772032346, -121.76378772032352),28,-25,14,no,m,6,m,0.7505268000022625,1,93,test1,3,0.7509191999997711,-40.0
16,sj,f,20,r,2,(1.0544208940658713e-14, 172.20000000000002),23,25,4,no,m,6,m,0.8509498999992502,1,94,test1,3,0.8513468000019202,-40.0
16,sj,f,20,r,2,(1.0544208940658713e-14, 172.20000000000002),23,7,3,yes,x,5,x,0.5343270000012126,1,95,test1,3,0.5345903999987058,-38.0
16,sj,f,20,r,2,(121.76378772032346, -121.76378772032352),28,7,3,yes,x,5,x,0.5061969000016688,1,96,test1,3,0.5062996999986353,-38.0
16,sj,f,20,r,2,(1.0544208940658713e-14, 172.20000000000002),23,3,1,no,m,6,m,0.9295593999995617,1,1,test2,3,0.9296579000001657,-38.0
16,sj,f,20,r,2,(-121.76378772032352, -121.76378772032348),26,-7,13,yes,x,5,x,0.5502487000048859,1,2,test2,3,0.5505551999958698,-52.0
16,sj,f,20,r,2,(-172.20000000000002, 2.1088417881317425e-14),25,-25,14,yes,x,5,x,0.4996434999993653,1,3,test2,3,0.4998578000013367,-70.0
16,sj,f,20,r,2,(121.76378772032346, -121.76378772032352),28,-7,13,yes,x,5,x,0.5914647999961744,1,4,test2,3,0.5918191000018851,-52.0
16,sj,f,20,r,2,(-172.20000000000002, 2.1088417881317425e-14),25,-7,13,yes,x,5,x,0.44885680000152206,1,5,test2,3,0.4492510999989463,-52.0
16,sj,f,20,r,2,(-121.76378772032348, 121.76378772032349),24,25,4,no,m,6,m,0.9344184000001405,1,6,test2,3,0.9346020000011777,-52.0
16,sj,f,20,r,2,(172.20000000000002, 0.0),21,7,3,no,m,6,m,0.7134704999989481,1,7,test2,3,0.7136383000033675,-52.0
16,sj,f,20,r,2,(-121.76378772032352, -121.76378772032348),26,7,3,no,m,6,m,0.7833968000049936,1,8,test2,3,0.783517000003485,-52.0
16,sj,f,20,r,2,(1.0544208940658713e-14, 172.20000000000002),23,3,1,yes,x,5,x,1.0769029000002774,1,9,test2,3,1.0770928999991156,-42.0
16,sj,f,20,r,2,(121.76378772032349, 121.76378772032349),22,3,1,yes,x,5,x,0.9001473000025726,1,10,test2,3,0.9002629999959026,-42.0
16,sj,f,20,r,2,(1.0544208940658713e-14, 172.20000000000002),23,-5,12,no,m,6,m,1.168531900002563,1,11,test2,3,1.1687077000024146,-42.0
16,sj,f,20,r,2,(1.0544208940658713e-14, 172.20000000000002),23,-7,13,yes,x,5,x,0.5402078999977675,1,12,test2,3,0.5405497000028845,-52.0
16,sj,f,20,r,2,(-121.76378772032348, 121.76378772032349),24,25,4,yes,x,5,x,0.7893077000044286,1,13,test2,3,0.7894126000028336,-20.0
16,sj,f,20,r,2,(121.76378772032349, 121.76378772032349),22,-3,11,yes,x,5,x,0.7200732000055723,1,14,test2,3,0.720460099997581,-48.0
16,sj,f,20,r,2,(-172.20000000000002, 2.1088417881317425e-14),25,3,1,yes,x,5,x,0.5304214999996475,1,15,test2,3,0.5307992999951239,-42.0
16,sj,f,20,r,2,(-121.76378772032352, -121.76378772032348),26,-7,13,no,m,6,m,1.0849006999997073,1,16,test2,3,1.0851184999992256,-42.0
16,sj,f,20,r,2,(121.76378772032346, -121.76378772032352),28,-7,13,yes,x,5,x,0.5513856999968993,1,17,test2,3,0.5516274000037811,-52.0
16,sj,f,20,r,2,(1.0544208940658713e-14, 172.20000000000002),23,-3,11,yes,x,5,x,0.7636761000030674,1,18,test2,3,0.7637756999974954,-48.0
16,sj,f,20,r,2,(172.20000000000002, 0.0),21,5,2,yes,x,5,x,0.7981198000052245,1,19,test2,3,0.7983324000015273,-40.0
16,sj,f,20,r,2,(-3.163262682197613e-14, -172.20000000000002),27,-7,13,yes,x,5,x,0.45471350000298116,1,20,test2,3,0.45520079999550944,-52.0
16,sj,f,20,r,2,(172.20000000000002, 0.0),21,-25,14,yes,x,5,x,0.4098881999962032,1,21,test2,3,0.4101255999994464,-70.0
16,sj,f,20,r,2,(-172.20000000000002, 2.1088417881317425e-14),25,5,2,yes,x,5,x,0.4122962999972515,1,22,test2,3,0.41242439999768976,-40.0
16,sj,f,20,r,2,(-172.20000000000002, 2.1088417881317425e-14),25,3,1,no,m,6,m,1.244404699995357,1,23,test2,3,1.2445642000020598,-40.0
16,sj,f,20,r,2,(-172.20000000000002, 2.1088417881317425e-14),25,-3,11,no,m,6,m,1.3658719999948516,1,24,test2,3,1.366126200002327,-40.0
16,sj,f,20,r,2,(-121.76378772032348, 121.76378772032349),24,-25,14,yes,x,5,x,0.3940950999967754,1,25,test2,3,0.39430300000094576,-70.0
16,sj,f,20,r,2,(121.76378772032346, -121.76378772032352),28,3,1,no,m,6,m,0.7060203000000911,1,26,test2,3,0.7061237000016263,-70.0
16,sj,f,20,r,2,(-121.76378772032352, -121.76378772032348),26,-5,12,yes,x,5,x,0.4261259999984759,1,27,test2,3,0.42629630000010366,-50.0
16,sj,f,20,r,2,(1.0544208940658713e-14, 172.20000000000002),23,25,4,yes,x,5,x,0.6436829000012949,1,28,test2,3,0.6439933000001474,-20.0
16,sj,f,20,r,2,(121.76378772032346, -121.76378772032352),28,5,2,yes,x,5,x,0.8474682000014582,1,29,test2,3,0.8477363999991212,-40.0
16,sj,f,20,r,2,(-3.163262682197613e-14, -172.20000000000002),27,25,4,no,m,6,m,1.1757861000005505,1,30,test2,3,1.176699000003282,-40.0
16,sj,f,20,r,2,(1.0544208940658713e-14, 172.20000000000002),23,7,3,yes,x,5,x,0.4655382999990252,1,31,test2,3,0.4656983000022592,-38.0
16,sj,f,20,r,2,(121.76378772032346, -121.76378772032352),28,-5,12,yes,x,5,x,0.5770222999999532,1,32,test2,3,0.5771672999981092,-50.0
16,sj,f,20,r,2,(172.20000000000002, 0.0),21,-5,12,no,m,6,m,0.7860123999998905,1,33,test2,3,0.7862553000013577,-50.0
16,sj,f,20,r,2,(-121.76378772032352, -121.76378772032348),26,5,2,no,m,6,m,0.7802167999980156,1,34,test2,3,0.7804389000011724,-50.0
16,sj,f,20,r,2,(-172.20000000000002, 2.1088417881317425e-14),25,7,3,yes,x,5,x,0.46488930000487017,1,35,test2,3,0.4650982000021031,-38.0
16,sj,f,20,r,2,(-3.163262682197613e-14, -172.20000000000002),27,5,2,yes,x,5,x,0.5914878999974462,1,36,test2,3,0.5919600999986869,-40.0
16,sj,f,20,r,2,(172.20000000000002, 0.0),21,25,4,yes,x,5,x,0.42816450000100303,1,37,test2,3,0.4283318999951007,-20.0
16,sj,f,20,r,2,(-172.20000000000002, 2.1088417881317425e-14),25,-25,14,yes,x,5,x,0.6093608000010136,1,38,test2,3,0.6095637999969767,-70.0
16,sj,f,20,r,2,(-172.20000000000002, 2.1088417881317425e-14),25,25,4,no,m,6,m,0.8050562999997055,1,39,test2,3,0.8051780000023427,-70.0
16,sj,f,20,r,2,(-121.76378772032348, 121.76378772032349),24,7,3,yes,x,5,x,0.5747799000018858,1,40,test2,3,0.5750230999983614,-38.0
16,sj,f,20,r,2,(121.76378772032346, -121.76378772032352),28,-25,14,yes,x,5,x,0.43996080000215443,1,41,test2,3,0.4401833000010811,-70.0
16,sj,f,20,r,2,(121.76378772032346, -121.76378772032352),28,-3,11,yes,x,5,m,0.8201100999940536,0,42,test2,3,0.8204151000027196,-48.0
16,sj,f,20,r,2,(-172.20000000000002, 2.1088417881317425e-14),25,-3,11,yes,x,5,x,0.6328075999990688,1,43,test2,3,0.6331014999959734,-48.0
16,sj,f,20,r,2,(-121.76378772032348, 121.76378772032349),24,-7,13,no,m,6,m,0.8561608999953023,1,44,test2,3,0.8564818000013474,-48.0
16,sj,f,20,r,2,(121.76378772032349, 121.76378772032349),22,25,4,yes,x,5,x,0.5560391999970307,1,45,test2,3,0.5563605000061216,-20.0
16,sj,f,20,r,2,(-172.20000000000002, 2.1088417881317425e-14),25,7,3,no,m,6,m,1.3079020000004675,1,46,test2,3,1.308022000004712,-20.0
16,sj,f,20,r,2,(-121.76378772032352, -121.76378772032348),26,-25,14,no,m,6,m,0.5798100999963935,1,47,test2,3,0.5800961999993888,-20.0
16,sj,f,20,r,2,(1.0544208940658713e-14, 172.20000000000002),23,-25,14,yes,x,5,x,0.4565117999954964,1,48,test2,3,0.456940999996732,-70.0
16,sj,f,20,r,2,(121.76378772032346, -121.76378772032352),28,-3,11,yes,x,5,x,0.7015038999961689,1,49,test2,3,0.7016098000021884,-48.0
16,sj,f,20,r,2,(121.76378772032349, 121.76378772032349),22,-3,11,yes,x,5,x,0.7297156000058749,1,50,test2,3,0.7299420999988797,-48.0
16,sj,f,20,r,2,(121.76378772032346, -121.76378772032352),28,-25,14,yes,x,5,x,0.4512216999937664,1,51,test2,3,0.4516241000019363,-70.0
16,sj,f,20,r,2,(-172.20000000000002, 2.1088417881317425e-14),25,-7,13,yes,x,5,x,0.4251488000008976,1,52,test2,3,0.42525239999667974,-52.0
16,sj,f,20,r,2,(1.0544208940658713e-14, 172.20000000000002),23,-3,11,no,m,6,m,0.7655099000039627,1,53,test2,3,0.7660462999992887,-52.0
16,sj,f,20,r,2,(-121.76378772032352, -121.76378772032348),26,-3,11,no,m,6,m,0.7328006999960053,1,54,test2,3,0.73309860000154,-52.0
16,sj,f,20,r,2,(-121.76378772032348, 121.76378772032349),24,5,2,no,m,6,m,0.7819460000027902,1,55,test2,3,0.7820959000018775,-52.0
16,sj,f,20,r,2,(172.20000000000002, 0.0),21,-5,12,yes,x,5,x,0.4982460999963223,1,56,test2,3,0.4984983000031207,-50.0
16,sj,f,20,r,2,(-121.76378772032352, -121.76378772032348),26,-5,12,yes,x,5,x,0.5344799000013154,1,57,test2,3,0.5347789000006742,-50.0
16,sj,f,20,r,2,(172.20000000000002, 0.0),21,3,1,no,m,6,m,0.7042915000056382,1,58,test2,3,0.7044081000058213,-50.0
16,sj,f,20,r,2,(-172.20000000000002, 2.1088417881317425e-14),25,5,2,yes,x,5,x,0.5125541999950656,1,59,test2,3,0.5126948000033735,-40.0
16,sj,f,20,r,2,(-3.163262682197613e-14, -172.20000000000002),27,3,1,yes,x,5,x,1.070948699998553,1,60,test2,3,1.0711612000013702,-42.0
16,sj,f,20,r,2,(-121.76378772032352, -121.76378772032348),26,-25,14,yes,x,5,x,0.496802800000296,1,61,test2,3,0.4969058999995468,-70.0
16,sj,f,20,r,2,(-121.76378772032348, 121.76378772032349),24,25,4,yes,x,5,x,0.40241619999869727,1,62,test2,3,0.40265309999813326,-20.0
16,sj,f,20,r,2,(-121.76378772032352, -121.76378772032348),26,-7,13,yes,x,5,x,0.49692370000411756,1,63,test2,3,0.4970543999952497,-52.0
16,sj,f,20,r,2,(-3.163262682197613e-14, -172.20000000000002),27,-3,11,yes,x,5,x,1.0308068999947864,1,64,test2,3,1.030905800005712,-48.0
16,sj,f,20,r,2,(-3.163262682197613e-14, -172.20000000000002),27,-5,12,no,m,6,m,0.7738068000035128,1,65,test2,3,0.7741163000027882,-48.0
16,sj,f,20,r,2,(121.76378772032349, 121.76378772032349),22,-25,14,yes,x,5,x,0.54982139999629,1,66,test2,3,0.5499559999952908,-70.0
16,sj,f,20,r,2,(172.20000000000002, 0.0),21,5,2,no,m,6,m,0.7579991999955382,1,67,test2,3,0.7587893000018084,-70.0
16,sj,f,20,r,2,(121.76378772032349, 121.76378772032349),22,5,2,no,m,6,m,0.7070002000036766,1,68,test2,3,0.7072224000003189,-70.0
16,sj,f,20,r,2,(-3.163262682197613e-14, -172.20000000000002),27,-7,13,no,m,6,m,0.7174593999952776,1,69,test2,3,0.7176432000051136,-70.0
16,sj,f,20,r,2,(-3.163262682197613e-14, -172.20000000000002),27,-25,14,yes,x,5,x,0.49835880000318866,1,70,test2,3,0.4987955999968108,-70.0
16,sj,f,20,r,2,(-121.76378772032352, -121.76378772032348),26,25,4,no,m,6,m,0.580997800003388,1,71,test2,3,0.5815556000015931,-70.0
16,sj,f,20,r,2,(-3.163262682197613e-14, -172.20000000000002),27,3,1,yes,x,5,x,0.8359942999959458,1,72,test2,3,0.8361214000033215,-42.0
16,sj,f,20,r,2,(-3.163262682197613e-14, -172.20000000000002),27,-25,14,yes,x,5,x,0.5811888999960502,1,73,test2,3,0.5814038000025903,-70.0
16,sj,f,20,r,2,(-121.76378772032352, -121.76378772032348),26,7,3,yes,x,5,x,0.44190729999536416,1,74,test2,3,0.44200950000231387,-38.0
16,sj,f,20,r,2,(172.20000000000002, 0.0),21,7,3,yes,x,5,x,0.4511915000039153,1,75,test2,3,0.4512909999975818,-38.0
16,sj,f,20,r,2,(-172.20000000000002, 2.1088417881317425e-14),25,3,1,yes,x,5,x,0.4762246000027517,1,76,test2,3,0.47643349999998463,-42.0
16,sj,f,20,r,2,(172.20000000000002, 0.0),21,-7,13,no,m,6,m,0.9940008999983547,1,77,test2,3,0.9941172000035294,-42.0
16,sj,f,20,r,2,(-172.20000000000002, 2.1088417881317425e-14),25,-5,12,yes,x,5,x,0.4815170000001672,1,78,test2,3,0.48177090000535827,-50.0
16,sj,f,20,r,2,(172.20000000000002, 0.0),21,-7,13,yes,x,5,x,0.4247280999989016,1,79,test2,3,0.4248553999932483,-52.0
16,sj,f,20,r,2,(1.0544208940658713e-14, 172.20000000000002),23,-25,14,yes,x,5,x,0.41209779999917373,1,80,test2,3,0.4121949000036693,-70.0
16,sj,f,20,r,2,(172.20000000000002, 0.0),21,25,4,no,m,6,m,0.8199573999954737,1,81,test2,3,0.820354799994675,-70.0
16,sj,f,20,r,2,(-121.76378772032348, 121.76378772032349),24,-25,14,yes,x,5,x,0.3954916000002413,1,82,test2,3,0.39560659999551717,-70.0
16,sj,f,20,r,2,(121.76378772032349, 121.76378772032349),22,-7,13,no,m,6,m,0.8029466000007233,1,83,test2,3,0.8030508000010741,-70.0
16,sj,f,20,r,2,(-3.163262682197613e-14, -172.20000000000002),27,7,3,yes,x,5,x,0.6864495999980136,1,84,test2,3,0.6866765000013402,-38.0
16,sj,f,20,r,2,(-121.76378772032348, 121.76378772032349),24,3,1,no,m,6,m,0.6912623999960488,1,85,test2,3,0.6916595999937272,-38.0
16,sj,f,20,r,2,(1.0544208940658713e-14, 172.20000000000002),23,5,2,yes,x,5,x,0.618381699998281,1,86,test2,3,0.6188526000041747,-40.0
16,sj,f,20,r,2,(172.20000000000002, 0.0),21,-7,13,yes,x,5,x,0.828357499995036,1,87,test2,3,0.828707000000577,-52.0
16,sj,f,20,r,2,(121.76378772032349, 121.76378772032349),22,-5,12,yes,x,5,x,0.5639890000020387,1,88,test2,3,0.5642135000016424,-50.0
16,sj,f,20,r,2,(-121.76378772032352, -121.76378772032348),26,-25,14,yes,x,5,x,0.5440872000035597,1,89,test2,3,0.5441855999961263,-70.0
16,sj,f,20,r,2,(121.76378772032349, 121.76378772032349),22,7,3,yes,x,5,x,0.6567689000003156,1,90,test2,3,0.6571763000029023,-38.0
16,sj,f,20,r,2,(121.76378772032346, -121.76378772032352),28,7,3,no,m,6,m,1.5359374999970896,1,91,test2,3,1.5364958999998635,-38.0
16,sj,f,20,r,2,(-3.163262682197613e-14, -172.20000000000002),27,25,4,yes,x,5,x,0.43739450000430224,1,92,test2,3,0.43768390000332147,-20.0
16,sj,f,20,r,2,(121.76378772032346, -121.76378772032352),28,25,4,no,m,6,m,0.9021315999998478,1,93,test2,3,0.9023472999979276,-20.0
16,sj,f,20,r,2,(-172.20000000000002, 2.1088417881317425e-14),25,5,2,no,m,6,m,0.75094430000172,1,94,test2,3,0.7510439999969094,-20.0
16,sj,f,20,r,2,(-121.76378772032348, 121.76378772032349),24,-5,12,yes,x,5,x,0.576659500002279,1,95,test2,3,0.5768967999974848,-50.0
16,sj,f,20,r,2,(172.20000000000002, 0.0),21,-3,11,yes,x,5,x,0.9065903000009712,1,96,test2,3,0.906724899999972,-48.0
16,sj,f,20,r,2,(-121.76378772032348, 121.76378772032349),24,-3,11,no,m,6,m,0.8631561000001966,1,1,test1,4,0.8634452999976929,-48.0
16,sj,f,20,r,2,(121.76378772032346, -121.76378772032352),28,7,3,yes,x,5,x,0.5775455999973929,1,2,test1,4,0.577880600001663,-38.0
16,sj,f,20,r,2,(121.76378772032349, 121.76378772032349),22,5,2,yes,x,5,x,0.6143573000008473,1,3,test1,4,0.6144788999954471,-40.0
16,sj,f,20,r,2,(121.76378772032346, -121.76378772032352),28,25,4,yes,x,5,x,0.5309762000033516,1,4,test1,4,0.5312615000002552,-20.0
16,sj,f,20,r,2,(1.0544208940658713e-14, 172.20000000000002),23,-7,13,yes,x,5,x,0.4992966999998316,1,5,test1,4,0.49980540000251494,-52.0
16,sj,f,20,r,2,(121.76378772032346, -121.76378772032352),28,-5,12,yes,x,5,x,0.5265595000018948,1,6,test1,4,0.5268447999987984,-50.0
16,sj,f,20,r,2,(1.0544208940658713e-14, 172.20000000000002),23,-7,13,no,m,6,m,1.4301536999992095,1,7,test1,4,1.430543000002217,-50.0
16,sj,f,20,r,2,(121.76378772032349, 121.76378772032349),22,25,4,yes,x,5,x,0.5112970999980462,1,8,test1,4,0.5114752999943448,-20.0
16,sj,f,20,r,2,(172.20000000000002, 0.0),21,3,1,yes,x,5,x,0.6520478000020375,1,9,test1,4,0.6521791999984998,-42.0
16,sj,f,20,r,2,(121.76378772032349, 121.76378772032349),22,25,4,no,m,6,m,0.7184678999983589,1,10,test1,4,0.719020399999863,-42.0
16,sj,f,20,r,2,(121.76378772032349, 121.76378772032349),22,3,1,no,m,6,m,0.9136336999945343,1,11,test1,4,0.9137353999976767,-42.0
16,sj,f,20,r,2,(1.0544208940658713e-14, 172.20000000000002),23,-3,11,yes,x,5,x,0.5915763999946648,1,12,test1,4,0.591758700000355,-48.0
16,sj,f,20,r,2,(-121.76378772032352, -121.76378772032348),26,3,1,yes,x,5,x,0.8916485000008834,1,13,test1,4,0.891893699998036,-42.0
16,sj,f,20,r,2,(121.76378772032349, 121.76378772032349),22,-3,11,no,m,6,m,0.9247350000005099,1,14,test1,4,0.925101499997254,-42.0
16,sj,f,20,r,2,(-3.163262682197613e-14, -172.20000000000002),27,5,2,no,m,6,m,1.1795359999960056,1,15,test1,4,1.1796982000014395,-42.0
16,sj,f,20,r,2,(121.76378772032346, -121.76378772032352),28,-3,11,no,m,6,m,1.4450165000016568,1,16,test1,4,1.445141700001841,-42.0
16,sj,f,20,r,2,(-121.76378772032348, 121.76378772032349),24,7,3,yes,x,5,x,0.49978160000318894,1,17,test1,4,0.5000912999967113,-38.0
16,sj,f,20,r,2,(-3.163262682197613e-14, -172.20000000000002),27,-5,12,yes,x,5,x,0.5249660999979824,1,18,test1,4,0.5253861000019242,-50.0
16,sj,f,20,r,2,(121.76378772032349, 121.76378772032349),22,7,3,no,m,6,m,1.2698296999951708,1,19,test1,4,1.2700623999990057,-50.0
16,sj,f,20,r,2,(-121.76378772032352, -121.76378772032348),26,25,4,yes,x,5,x,0.6490967999998247,1,20,test1,4,0.6492109000027995,-20.0
16,sj,f,20,r,2,(1.0544208940658713e-14, 172.20000000000002),23,3,1,yes,x,5,x,0.7898439000055077,1,21,test1,4,0.7900427999993553,-42.0
16,sj,f,20,r,2,(121.76378772032346, -121.76378772032352),28,-7,13,no,m,6,m,0.854179900001327,1,22,test1,4,0.8544069999989006,-42.0
16,sj,f,20,r,2,(1.0544208940658713e-14, 172.20000000000002),23,-5,12,yes,x,5,x,0.5261618000004091,1,23,test1,4,0.5263909000059357,-50.0
16,sj,f,20,r,2,(-121.76378772032352, -121.76378772032348),26,5,2,yes,x,5,x,0.9100938000046881,1,24,test1,4,0.910213000002841,-40.0
16,sj,f,20,r,2,(172.20000000000002, 0.0),21,5,2,yes,x,5,x,0.5123894999996992,1,25,test1,4,0.512516399998276,-40.0
16,sj,f,20,r,2,(172.20000000000002, 0.0),21,7,3,yes,x,5,x,0.44498799999564653,1,26,test1,4,0.4450836000032723,-38.0
16,sj,f,20,r,2,(-121.76378772032348, 121.76378772032349),24,3,1,yes,x,5,x,0.6007418999943184,1,27,test1,4,0.6009543000036501,-42.0
16,sj,f,20,r,2,(-121.76378772032348, 121.76378772032349),24,5,2,yes,x,5,x,0.41225280000071507,1,28,test1,4,0.41235439999582013,-40.0
16,sj,f,20,r,2,(1.0544208940658713e-14, 172.20000000000002),23,25,4,yes,x,5,x,0.3822606999965501,1,29,test1,4,0.3825814000010723,-20.0
16,sj,f,20,r,2,(121.76378772032346, -121.76378772032352),28,25,4,yes,x,5,x,0.36291309999796795,1,30,test1,4,0.36301490000187187,-20.0
16,sj,f,20,r,2,(121.76378772032346, -121.76378772032352),28,5,2,no,m,6,m,1.288971499998297,1,31,test1,4,1.289829400004237,-20.0
16,sj,f,20,r,2,(1.0544208940658713e-14, 172.20000000000002),23,5,2,no,m,6,m,0.980225999999675,1,32,test1,4,0.9803380000012112,-20.0
16,sj,f,20,r,2,(-3.163262682197613e-14, -172.20000000000002),27,3,1,no,m,6,m,0.7442822000011802,1,33,test1,4,0.7448814999952447,-20.0
16,sj,f,20,r,2,(-121.76378772032348, 121.76378772032349),24,-5,12,no,m,6,m,0.6479828999945312,1,34,test1,4,0.648327100003371,-20.0
16,sj,f,20,r,2,(172.20000000000002, 0.0),21,25,4,yes,x,5,x,0.43574099999386817,1,35,test1,4,0.43584330000157934,-20.0
16,sj,f,20,r,2,(121.76378772032349, 121.76378772032349),22,-7,13,yes,x,5,x,0.4439829999973881,1,36,test1,4,0.44417170000087935,-52.0
16,sj,f,20,r,2,(-121.76378772032352, -121.76378772032348),26,3,1,no,m,6,m,1.21373450000101,1,37,test1,4,1.2140033999967272,-52.0
16,sj,f,20,r,2,(121.76378772032346, -121.76378772032352),28,5,2,yes,x,5,x,0.5823977999971248,1,38,test1,4,0.5826830999940285,-40.0
16,sj,f,20,r,2,(172.20000000000002, 0.0),21,-5,12,yes,x,5,x,0.5191855000011856,1,39,test1,4,0.5194804999991902,-50.0
16,sj,f,20,r,2,(-3.163262682197613e-14, -172.20000000000002),27,-25,14,no,m,6,m,0.8675033999970765,1,40,test1,4,0.8676235000020824,-50.0
16,sj,f,20,r,2,(-172.20000000000002, 2.1088417881317425e-14),25,25,4,yes,x,5,x,0.4376661000060267,1,41,test1,4,0.4378262000027462,-20.0
16,sj,f,20,r,2,(172.20000000000002, 0.0),21,-3,11,yes,x,5,x,0.5921509000036167,1,42,test1,4,0.5922480000008363,-48.0
16,sj,f,20,r,2,(1.0544208940658713e-14, 172.20000000000002),23,-25,14,no,m,6,m,1.1067731000002823,1,43,test1,4,1.107008200000564,-48.0
16,sj,f,20,r,2,(-172.20000000000002, 2.1088417881317425e-14),25,-25,14,no,m,6,m,0.7862590000004275,1,44,test1,4,0.7863922999968054,-48.0
16,sj,f,20,r,2,(-121.76378772032348, 121.76378772032349),24,-5,12,yes,x,5,x,0.5707006999946316,1,45,test1,4,0.5710783999966225,-50.0
16,sj,f,20,r,2,(-121.76378772032348, 121.76378772032349),24,7,3,no,m,6,m,0.6754593000005116,1,46,test1,4,0.6757459000000381,-50.0
16,sj,f,20,r,2,(1.0544208940658713e-14, 172.20000000000002),23,-5,12,yes,x,5,x,0.5901776000027894,1,47,test1,4,0.5907649000000674,-50.0
16,sj,f,20,r,2,(1.0544208940658713e-14, 172.20000000000002),23,7,3,no,m,6,m,0.622283900003822,1,48,test1,4,0.6225867999964976,-50.0
16,sj,f,20,r,2,(121.76378772032346, -121.76378772032352),28,3,1,yes,x,5,x,0.5892447999940487,1,49,test1,4,0.5894698000047356,-42.0
16,sj,f,20,r,2,(121.76378772032349, 121.76378772032349),22,-5,12,yes,x,5,x,0.49545629999920493,1,50,test1,4,0.49557179999828804,-50.0
16,sj,f,20,r,2,(-3.163262682197613e-14, -172.20000000000002),27,7,3,no,m,6,m,1.046790799999144,1,51,test1,4,1.046928999996453,-50.0
16,sj,f,20,r,2,(-172.20000000000002, 2.1088417881317425e-14),25,25,4,yes,x,5,x,0.5242262000028859,1,52,test1,4,0.5244538000042667,-20.0
16,sj,f,20,r,2,(-3.163262682197613e-14, -172.20000000000002),27,-5,12,yes,x,5,x,0.7903112999993027,1,53,test1,4,0.7904266999976244,-50.0
16,sj,f,20,r,2,(-172.20000000000002, 2.1088417881317425e-14),25,-5,12,no,m,6,m,0.7506420000063372,1,54,test1,4,0.7508624000038253,-50.0
16,sj,f,20,r,2,(-121.76378772032348, 121.76378772032349),24,-3,11,yes,x,5,x,0.9842099000015878,1,55,test1,4,0.9843687000029604,-48.0
16,sj,f,20,r,2,(-121.76378772032352, -121.76378772032348),26,3,1,yes,x,5,x,0.8322999000010896,1,56,test1,4,0.8326931999981753,-42.0
16,sj,f,20,r,2,(-121.76378772032352, -121.76378772032348),26,-5,12,no,m,6,m,1.0938194999980624,1,57,test1,4,1.094678900000872,-42.0
16,sj,f,20,r,2,(121.76378772032349, 121.76378772032349),22,-5,12,no,m,6,m,0.7628860000040731,1,58,test1,4,0.7630523000043468,-42.0
16,sj,f,20,r,2,(-121.76378772032352, -121.76378772032348),26,7,3,yes,x,5,x,0.4845752999972319,1,59,test1,4,0.4848153999992064,-38.0
16,sj,f,20,r,2,(-121.76378772032348, 121.76378772032349),24,-3,11,yes,x,5,x,0.6903170999939903,1,60,test1,4,0.6905063000012888,-48.0
16,sj,f,20,r,2,(-121.76378772032348, 121.76378772032349),24,5,2,yes,x,5,x,0.489656500001729,1,61,test1,4,0.4898395999989589,-40.0
16,sj,f,20,r,2,(121.76378772032346, -121.76378772032352),28,3,1,yes,x,5,x,0.6144230999998399,1,62,test1,4,0.6145544999963022,-42.0
16,sj,f,20,r,2,(121.76378772032349, 121.76378772032349),22,7,3,yes,x,5,x,0.5183671000049799,1,63,test1,4,0.5185887000043294,-38.0
16,sj,f,20,r,2,(-3.163262682197613e-14, -172.20000000000002),27,-3,11,no,m,6,x,0.8911557999963406,0,64,test1,4,0.8914581999997608,-38.0
16,sj,f,20,r,2,(-121.76378772032352, -121.76378772032348),26,-3,11,yes,x,5,x,0.5262540000039735,1,65,test1,4,0.5264711999989231,-48.0
16,sj,f,20,r,2,(121.76378772032349, 121.76378772032349),22,5,2,yes,x,5,x,1.0402155999981915,1,66,test1,4,1.0408188000001246,-40.0
16,sj,f,20,r,2,(-3.163262682197613e-14, -172.20000000000002),27,7,3,yes,x,5,x,0.4558335999972769,1,67,test1,4,0.4561920999985887,-38.0
16,sj,f,20,r,2,(-121.76378772032348, 121.76378772032349),24,3,1,yes,x,5,x,1.0715115999992122,1,68,test1,4,1.0716342000014265,-42.0
16,sj,f,20,r,2,(-121.76378772032348, 121.76378772032349),24,-7,13,yes,x,5,x,0.4853187999979127,1,69,test1,4,0.48570169999584323,-52.0
16,sj,f,20,r,2,(121.76378772032346, -121.76378772032352),28,-5,12,no,m,6,m,0.9862598000036087,1,70,test1,4,0.9866068000046653,-52.0
16,sj,f,20,r,2,(-121.76378772032352, -121.76378772032348),26,25,4,yes,x,5,x,0.42073030000028666,1,71,test1,4,0.4211301999966963,-20.0
16,sj,f,20,r,2,(1.0544208940658713e-14, 172.20000000000002),23,5,2,yes,x,5,x,0.5539212000003317,1,72,test1,4,0.5542990000030841,-40.0
16,sj,f,20,r,2,(-3.163262682197613e-14, -172.20000000000002),27,-3,11,yes,x,5,x,0.654223000005004,1,73,test1,4,0.6546731999987969,-48.0
16,sj,f,20,r,2,(-172.20000000000002, 2.1088417881317425e-14),25,-3,11,yes,x,5,x,0.5371887000001152,1,74,test1,4,0.5375075000047218,-48.0
16,sj,f,20,r,2,(-121.76378772032348, 121.76378772032349),24,-7,13,yes,x,5,x,0.8144542000009096,1,75,test1,4,0.8148180999996839,-52.0
16,sj,f,20,r,2,(-3.163262682197613e-14, -172.20000000000002),27,25,4,yes,x,5,x,0.48279590000311146,1,76,test1,4,0.4830733999988297,-20.0
16,sj,f,20,r,2,(-172.20000000000002, 2.1088417881317425e-14),25,-7,13,no,m,6,m,0.7813038000022061,1,77,test1,4,0.7814148999968893,-20.0
16,sj,f,20,r,2,(121.76378772032349, 121.76378772032349),22,-25,14,yes,x,5,x,0.5579693999970914,1,78,test1,4,0.5580690999995568,-70.0
16,sj,f,20,r,2,(172.20000000000002, 0.0),21,-25,14,yes,x,5,x,0.4050026999975671,1,79,test1,4,0.4051005000001169,-70.0
16,sj,f,20,r,2,(-121.76378772032352, -121.76378772032348),26,5,2,yes,x,5,x,0.47298939999745926,1,80,test1,4,0.47334889999910956,-40.0
16,sj,f,20,r,2,(172.20000000000002, 0.0),21,-25,14,no,m,6,m,0.8256028999967384,1,81,test1,4,0.825727099996584,-40.0
16,sj,f,20,r,2,(-172.20000000000002, 2.1088417881317425e-14),25,7,3,yes,x,5,x,0.5308943999989424,1,82,test1,4,0.5312212999997428,-38.0
16,sj,f,20,r,2,(121.76378772032349, 121.76378772032349),22,3,1,yes,x,5,x,0.9609243999948376,1,83,test1,4,0.9610474000000977,-42.0
16,sj,f,20,r,2,(172.20000000000002, 0.0),21,-3,11,no,m,6,m,0.7301691000029678,1,84,test1,4,0.7305354999989504,-42.0
16,sj,f,20,r,2,(-3.163262682197613e-14, -172.20000000000002),27,-7,13,yes,x,5,x,0.4244877999954042,1,85,test1,4,0.4247451000046567,-52.0
16,sj,f,20,r,2,(121.76378772032349, 121.76378772032349),22,-25,14,no,m,6,m,0.9968682999970042,1,86,test1,4,0.997266899998067,-52.0
16,sj,f,20,r,2,(-172.20000000000002, 2.1088417881317425e-14),25,-5,12,yes,x,5,x,0.8355909999954747,1,87,test1,4,0.8359133000049042,-50.0
16,sj,f,20,r,2,(121.76378772032349, 121.76378772032349),22,-7,13,yes,x,5,x,0.6989116000040667,1,88,test1,4,0.6991829999969923,-52.0
16,sj,f,20,r,2,(-121.76378772032352, -121.76378772032348),26,-3,11,yes,x,5,x,1.4299173000035807,1,89,test1,4,1.4301613999996334,-48.0
16,sj,f,20,r,2,(172.20000000000002, 0.0),21,3,1,yes,x,5,m,1.6758155999996234,0,90,test1,4,1.6759448000011616,-42.0
16,sj,f,20,r,2,(-121.76378772032348, 121.76378772032349),24,-25,14,no,m,6,m,1.2292605999973603,1,91,test1,4,1.2293611999994027,-42.0
16,sj,f,20,r,2,(-3.163262682197613e-14, -172.20000000000002),27,5,2,yes,x,5,x,0.4246781000038027,1,92,test1,4,0.4249698999992688,-40.0
16,sj,f,20,r,2,(121.76378772032346, -121.76378772032352),28,-25,14,no,m,6,m,1.0947029999952065,1,93,test1,4,1.0949131999950623,-40.0
16,sj,f,20,r,2,(1.0544208940658713e-14, 172.20000000000002),23,25,4,no,m,6,m,1.1356956000017817,1,94,test1,4,1.135812900000019,-40.0
16,sj,f,20,r,2,(1.0544208940658713e-14, 172.20000000000002),23,7,3,yes,x,5,x,0.5027423999999883,1,95,test1,4,0.5028958999973838,-38.0
16,sj,f,20,r,2,(121.76378772032346, -121.76378772032352),28,7,3,yes,x,5,x,0.7035132000019075,1,96,test1,4,0.7037289999934728,-38.0
16,sj,f,20,r,2,(1.0544208940658713e-14, 172.20000000000002),23,3,1,no,m,6,m,0.7339713000037591,1,1,test2,4,0.734074200001487,-38.0
16,sj,f,20,r,2,(-121.76378772032352, -121.76378772032348),26,-7,13,yes,x,5,x,0.46039989999553654,1,2,test2,4,0.4606186000019079,-52.0
16,sj,f,20,r,2,(-172.20000000000002, 2.1088417881317425e-14),25,-25,14,yes,x,5,x,0.40178040000319015,1,3,test2,4,0.402360599997337,-70.0
16,sj,f,20,r,2,(121.76378772032346, -121.76378772032352),28,-7,13,yes,x,5,x,0.4289859999989858,1,4,test2,4,0.4291683999981615,-52.0
16,sj,f,20,r,2,(-172.20000000000002, 2.1088417881317425e-14),25,-7,13,yes,x,5,x,0.4355234000031487,1,5,test2,4,0.43567040000198176,-52.0
16,sj,f,20,r,2,(-121.76378772032348, 121.76378772032349),24,25,4,no,m,6,m,1.3750603000007686,1,6,test2,4,1.3753565999941202,-52.0
16,sj,f,20,r,2,(172.20000000000002, 0.0),21,7,3,no,m,6,m,1.1806799000041792,1,7,test2,4,1.1810360999952536,-52.0
16,sj,f,20,r,2,(-121.76378772032352, -121.76378772032348),26,7,3,no,m,6,m,1.050816399998439,1,8,test2,4,1.0510636000035447,-52.0
16,sj,f,20,r,2,(1.0544208940658713e-14, 172.20000000000002),23,3,1,yes,x,5,x,0.7596011999994516,1,9,test2,4,0.7598052000030293,-42.0
16,sj,f,20,r,2,(121.76378772032349, 121.76378772032349),22,3,1,yes,x,5,x,0.8191067000007024,1,10,test2,4,0.8192197999960626,-42.0
16,sj,f,20,r,2,(1.0544208940658713e-14, 172.20000000000002),23,-5,12,no,m,6,m,0.7510063000008813,1,11,test2,4,0.751131400000304,-42.0
16,sj,f,20,r,2,(1.0544208940658713e-14, 172.20000000000002),23,-7,13,yes,x,5,x,0.4083625999992364,1,12,test2,4,0.40904910000244854,-52.0
16,sj,f,20,r,2,(-121.76378772032348, 121.76378772032349),24,25,4,yes,x,5,x,0.5592074000014691,1,13,test2,4,0.5593079000027501,-20.0
16,sj,f,20,r,2,(121.76378772032349, 121.76378772032349),22,-3,11,yes,x,5,m,0.6206806000045617,0,14,test2,4,0.6207962999978918,-48.0
16,sj,f,20,r,2,(-172.20000000000002, 2.1088417881317425e-14),25,3,1,yes,x,5,x,0.7081494000012754,1,15,test2,4,0.7085217999992892,-42.0
16,sj,f,20,r,2,(-121.76378772032352, -121.76378772032348),26,-7,13,no,m,6,m,1.343418999997084,1,16,test2,4,1.3437197000021115,-42.0
16,sj,f,20,r,2,(121.76378772032346, -121.76378772032352),28,-7,13,yes,x,5,x,0.4679619999951683,1,17,test2,4,0.46826899999723537,-52.0
16,sj,f,20,r,2,(1.0544208940658713e-14, 172.20000000000002),23,-3,11,yes,x,5,x,0.8890939999982947,1,18,test2,4,0.8892541000022902,-48.0
16,sj,f,20,r,2,(172.20000000000002, 0.0),21,5,2,yes,x,5,x,1.5499569999956293,1,19,test2,4,1.550058100001479,-40.0
16,sj,f,20,r,2,(-3.163262682197613e-14, -172.20000000000002),27,-7,13,yes,x,5,x,0.5177618999950937,1,20,test2,4,0.5179967999938526,-52.0
16,sj,f,20,r,2,(172.20000000000002, 0.0),21,-25,14,yes,x,5,x,0.41676469999947585,1,21,test2,4,0.4169995000047493,-70.0
16,sj,f,20,r,2,(-172.20000000000002, 2.1088417881317425e-14),25,5,2,yes,x,5,x,0.6585837000020547,1,22,test2,4,0.6587040999947931,-40.0
16,sj,f,20,r,2,(-172.20000000000002, 2.1088417881317425e-14),25,3,1,no,m,6,m,1.6745570999992196,1,23,test2,4,1.6749861999996938,-40.0
16,sj,f,20,r,2,(-172.20000000000002, 2.1088417881317425e-14),25,-3,11,no,m,6,m,0.9265827999988687,1,24,test2,4,0.9268050999962725,-40.0
16,sj,f,20,r,2,(-121.76378772032348, 121.76378772032349),24,-25,14,yes,x,5,x,0.5213719000021229,1,25,test2,4,0.5214846999951988,-70.0
16,sj,f,20,r,2,(121.76378772032346, -121.76378772032352),28,3,1,no,m,6,m,0.7195542000044952,1,26,test2,4,0.7197239000015543,-70.0
16,sj,f,20,r,2,(-121.76378772032352, -121.76378772032348),26,-5,12,yes,x,5,x,0.6196101000023191,1,27,test2,4,0.6202247999972315,-50.0
16,sj,f,20,r,2,(1.0544208940658713e-14, 172.20000000000002),23,25,4,yes,x,5,x,1.0597888999982388,1,28,test2,4,1.0600058999989415,-20.0
16,sj,f,20,r,2,(121.76378772032346, -121.76378772032352),28,5,2,yes,x,5,x,0.7242829999959213,1,29,test2,4,0.7244814000005135,-40.0
16,sj,f,20,r,2,(-3.163262682197613e-14, -172.20000000000002),27,25,4,no,m,6,m,0.8826582999972743,1,30,test2,4,0.883099000006041,-40.0
16,sj,f,20,r,2,(1.0544208940658713e-14, 172.20000000000002),23,7,3,yes,x,5,x,0.4861574999958975,1,31,test2,4,0.4866877000022214,-38.0
16,sj,f,20,r,2,(121.76378772032346, -121.76378772032352),28,-5,12,yes,x,5,x,0.46626869999454357,1,32,test2,4,0.46636389999912353,-50.0
16,sj,f,20,r,2,(172.20000000000002, 0.0),21,-5,12,no,m,6,m,0.7967836000025272,1,33,test2,4,0.7970907000053558,-50.0
16,sj,f,20,r,2,(-121.76378772032352, -121.76378772032348),26,5,2,no,m,6,m,1.3852595999996993,1,34,test2,4,1.3854696999987937,-50.0
16,sj,f,20,r,2,(-172.20000000000002, 2.1088417881317425e-14),25,7,3,yes,x,5,x,0.5006245000040508,1,35,test2,4,0.50079270000424,-38.0
16,sj,f,20,r,2,(-3.163262682197613e-14, -172.20000000000002),27,5,2,yes,x,5,x,0.7011440999995102,1,36,test2,4,0.701890899996215,-40.0
16,sj,f,20,r,2,(172.20000000000002, 0.0),21,25,4,yes,x,5,x,0.48102210000070045,1,37,test2,4,0.4811422999991919,-20.0
16,sj,f,20,r,2,(-172.20000000000002, 2.1088417881317425e-14),25,-25,14,yes,x,5,x,0.44587740000133635,1,38,test2,4,0.4460023999999976,-70.0
16,sj,f,20,r,2,(-172.20000000000002, 2.1088417881317425e-14),25,25,4,no,m,6,m,0.7638661000019056,1,39,test2,4,0.7640940999990562,-70.0
16,sj,f,20,r,2,(-121.76378772032348, 121.76378772032349),24,7,3,yes,x,5,x,0.6647202000021935,1,40,test2,4,0.6649736999970628,-38.0
16,sj,f,20,r,2,(121.76378772032346, -121.76378772032352),28,-25,14,yes,x,5,x,0.5552581999945687,1,41,test2,4,0.5555660999962129,-70.0
16,sj,f,20,r,2,(121.76378772032346, -121.76378772032352),28,-3,11,yes,x,5,x,0.654535699999542,1,42,test2,4,0.6548858000023756,-48.0
16,sj,f,20,r,2,(-172.20000000000002, 2.1088417881317425e-14),25,-3,11,yes,x,5,x,0.5341514000028837,1,43,test2,4,0.5342813999959617,-48.0
16,sj,f,20,r,2,(-121.76378772032348, 121.76378772032349),24,-7,13,no,m,6,m,1.00599090000469,1,44,test2,4,1.0062297000040417,-48.0
16,sj,f,20,r,2,(121.76378772032349, 121.76378772032349),22,25,4,yes,x,5,x,0.41394579999905545,1,45,test2,4,0.41439030000037747,-20.0
16,sj,f,20,r,2,(-172.20000000000002, 2.1088417881317425e-14),25,7,3,no,m,6,m,0.7849679999999353,1,46,test2,4,0.7852516999992076,-20.0
16,sj,f,20,r,2,(-121.76378772032352, -121.76378772032348),26,-25,14,no,m,6,m,0.6917450000037206,1,47,test2,4,0.6920421000031638,-20.0
16,sj,f,20,r,2,(1.0544208940658713e-14, 172.20000000000002),23,-25,14,yes,x,5,x,0.5636271000039415,1,48,test2,4,0.5637563999989652,-70.0
16,sj,f,20,r,2,(121.76378772032346, -121.76378772032352),28,-3,11,yes,x,5,x,1.1437459000007948,1,49,test2,4,1.1439853999982006,-48.0
16,sj,f,20,r,2,(121.76378772032349, 121.76378772032349),22,-3,11,yes,x,5,x,0.9601930999997421,1,50,test2,4,0.9603267999991658,-48.0
16,sj,f,20,r,2,(121.76378772032346, -121.76378772032352),28,-25,14,yes,x,5,x,0.6080105000000913,1,51,test2,4,0.6081145000061952,-70.0
16,sj,f,20,r,2,(-172.20000000000002, 2.1088417881317425e-14),25,-7,13,yes,x,5,x,0.4773148999956902,1,52,test2,4,0.4775703999985126,-52.0
16,sj,f,20,r,2,(1.0544208940658713e-14, 172.20000000000002),23,-3,11,no,m,6,m,1.2427538999982062,1,53,test2,4,1.2428817999971216,-52.0
16,sj,f,20,r,2,(-121.76378772032352, -121.76378772032348),26,-3,11,no,m,6,m,0.7726070000062464,1,54,test2,4,0.7732101000001421,-52.0
16,sj,f,20,r,2,(-121.76378772032348, 121.76378772032349),24,5,2,no,m,6,m,0.9518696000013733,1,55,test2,4,0.9521558999986155,-52.0
16,sj,f,20,r,2,(172.20000000000002, 0.0),21,-5,12,yes,x,5,x,0.6162809000015841,1,56,test2,4,0.616529900005844,-50.0
16,sj,f,20,r,2,(-121.76378772032352, -121.76378772032348),26,-5,12,yes,x,5,x,0.5216911999959848,1,57,test2,4,0.5220858999964548,-50.0
16,sj,f,20,r,2,(172.20000000000002, 0.0),21,3,1,no,m,6,m,0.8630663999938406,1,58,test2,4,0.8631986999971559,-50.0
16,sj,f,20,r,2,(-172.20000000000002, 2.1088417881317425e-14),25,5,2,yes,x,5,x,0.5056417000014335,1,59,test2,4,0.5057725999940885,-40.0
16,sj,f,20,r,2,(-3.163262682197613e-14, -172.20000000000002),27,3,1,yes,x,5,x,0.7542977999983123,1,60,test2,4,0.7544774999987567,-42.0
16,sj,f,20,r,2,(-121.76378772032352, -121.76378772032348),26,-25,14,yes,x,5,x,0.4462344000057783,1,61,test2,4,0.44635830000333954,-70.0
16,sj,f,20,r,2,(-121.76378772032348, 121.76378772032349),24,25,4,yes,x,5,x,0.4900894999955199,1,62,test2,4,0.49052589999337215,-20.0
16,sj,f,20,r,2,(-121.76378772032352, -121.76378772032348),26,-7,13,yes,x,5,x,0.9000254999991739,1,63,test2,4,0.9006907999937539,-52.0
16,sj,f,20,r,2,(-3.163262682197613e-14, -172.20000000000002),27,-3,11,yes,x,5,x,0.4126403000045684,1,64,test2,4,0.4129652999981772,-48.0
16,sj,f,20,r,2,(-3.163262682197613e-14, -172.20000000000002),27,-5,12,no,m,6,m,1.0072731999971438,1,65,test2,4,1.0074078000034206,-48.0
16,sj,f,20,r,2,(121.76378772032349, 121.76378772032349),22,-25,14,yes,x,5,x,0.5152977999969153,1,66,test2,4,0.515553599994746,-70.0
16,sj,f,20,r,2,(172.20000000000002, 0.0),21,5,2,no,m,6,m,0.8407039999947301,1,67,test2,4,0.8408705000038026,-70.0
16,sj,f,20,r,2,(121.76378772032349, 121.76378772032349),22,5,2,no,m,6,m,0.6112355000004754,1,68,test2,4,0.6114317999963532,-70.0
16,sj,f,20,r,2,(-3.163262682197613e-14, -172.20000000000002),27,-7,13,no,m,6,m,0.5384223999935784,1,69,test2,4,0.5385292999999365,-70.0
16,sj,f,20,r,2,(-3.163262682197613e-14, -172.20000000000002),27,-25,14,yes,x,5,x,0.5303587000016705,1,70,test2,4,0.5305942999984836,-70.0
16,sj,f,20,r,2,(-121.76378772032352, -121.76378772032348),26,25,4,no,m,6,m,0.5894458999973722,1,71,test2,4,0.589578300001449,-70.0
16,sj,f,20,r,2,(-3.163262682197613e-14, -172.20000000000002),27,3,1,yes,x,5,x,0.6563620999950217,1,72,test2,4,0.6564647000050172,-42.0
16,sj,f,20,r,2,(-3.163262682197613e-14, -172.20000000000002),27,-25,14,yes,x,5,x,0.44710610000038287,1,73,test2,4,0.44736359999660635,-70.0
16,sj,f,20,r,2,(-121.76378772032352, -121.76378772032348),26,7,3,yes,x,5,x,0.4001036999979988,1,74,test2,4,0.40033080000284826,-38.0
16,sj,f,20,r,2,(172.20000000000002, 0.0),21,7,3,yes,x,5,x,0.4927746999965166,1,75,test2,4,0.4930032999982359,-38.0
16,sj,f,20,r,2,(-172.20000000000002, 2.1088417881317425e-14),25,3,1,yes,x,5,x,0.8840722000022652,1,76,test2,4,0.8844690999976592,-42.0
16,sj,f,20,r,2,(172.20000000000002, 0.0),21,-7,13,no,m,6,m,0.9302347999982885,1,77,test2,4,0.9307521999944584,-42.0
16,sj,f,20,r,2,(-172.20000000000002, 2.1088417881317425e-14),25,-5,12,yes,x,5,x,0.36602770000172313,1,78,test2,4,0.3661279000007198,-50.0
16,sj,f,20,r,2,(172.20000000000002, 0.0),21,-7,13,yes,x,5,x,0.5177625000069384,1,79,test2,4,0.5180852000048617,-52.0
16,sj,f,20,r,2,(1.0544208940658713e-14, 172.20000000000002),23,-25,14,yes,x,5,x,0.347966199995426,1,80,test2,4,0.34820189999300055,-70.0
16,sj,f,20,r,2,(172.20000000000002, 0.0),21,25,4,no,m,6,m,0.7362825000018347,1,81,test2,4,0.736591100001533,-70.0
16,sj,f,20,r,2,(-121.76378772032348, 121.76378772032349),24,-25,14,yes,x,5,x,0.3912121000030311,1,82,test2,4,0.39175409999734256,-70.0
16,sj,f,20,r,2,(121.76378772032349, 121.76378772032349),22,-7,13,no,m,6,x,1.4750577000013436,0,83,test2,4,1.4754243999996106,-70.0
