subj_id,subj_name,subj_gender ,subj_age,subj_handedness,subj_runNum,tar_l_x,tar_l_y,loc_code,tar_ori,tar_code,tar_pre ,cor_response,pre_code,subj_response,RT,correct,trial_num,type,bloc_num,dur, real_tar
17,lzb,f,19,r,2,(-121.76378772032348, 121.76378772032349),24,5,2,yes,x,5,x,0.7435992999962764,1,1,test1,1,0.7439369000057923,-40.0
17,lzb,f,19,r,2,(-121.76378772032348, 121.76378772032349),24,-3,11,no,m,6,m,0.8124223999911919,1,2,test1,1,0.8129445999948075,-40.0
17,lzb,f,19,r,2,(-121.76378772032352, -121.76378772032348),26,7,3,no,m,6,m,0.8524283999868203,1,3,test1,1,0.8525319000036689,-40.0
17,lzb,f,19,r,2,(-172.20000000000002, 2.1088417881317425e-14),25,-5,12,no,m,6,m,0.8137969000090379,1,4,test1,1,0.8139153999945847,-40.0
17,lzb,f,19,r,2,(121.76378772032346, -121.76378772032352),28,7,3,yes,x,5,x,0.634806000001845,1,5,test1,1,0.6354216999898199,-38.0
17,lzb,f,19,r,2,(-172.20000000000002, 2.1088417881317425e-14),25,7,3,yes,x,5,x,0.5455318000022089,1,6,test1,1,0.5456341999961296,-38.0
17,lzb,f,19,r,2,(121.76378772032346, -121.76378772032352),28,-3,11,no,m,6,m,0.73538080000435,1,7,test1,1,0.7356935999996495,-38.0
17,lzb,f,19,r,2,(-121.76378772032348, 121.76378772032349),24,5,2,no,m,6,m,0.7621002000087174,1,8,test1,1,0.7624658999993699,-38.0
17,lzb,f,19,r,2,(121.76378772032346, -121.76378772032352),28,3,1,yes,x,5,m,0.743066800001543,0,9,test1,1,0.7432268999982625,-42.0
17,lzb,f,19,r,2,(-3.163262682197613e-14, -172.20000000000002),27,-5,12,no,m,6,m,0.9213988999981666,1,10,test1,1,0.9215046000026632,-42.0
17,lzb,f,19,r,2,(-172.20000000000002, 2.1088417881317425e-14),25,-3,11,yes,x,5,x,0.7203774000081467,1,11,test1,1,0.7204788000090048,-48.0
17,lzb,f,19,r,2,(121.76378772032349, 121.76378772032349),22,-5,12,no,m,6,m,0.857827100000577,1,12,test1,1,0.857960399996955,-48.0
17,lzb,f,19,r,2,(-3.163262682197613e-14, -172.20000000000002),27,-3,11,yes,x,5,m,0.8684829999983776,0,13,test1,1,0.8686488000093959,-48.0
17,lzb,f,19,r,2,(1.0544208940658713e-14, 172.20000000000002),23,7,3,yes,x,5,x,0.532390000007581,1,14,test1,1,0.5327427000011085,-38.0
17,lzb,f,19,r,2,(-121.76378772032352, -121.76378772032348),26,5,2,yes,x,5,x,0.5879120999888983,1,15,test1,1,0.5880946999968728,-40.0
17,lzb,f,19,r,2,(1.0544208940658713e-14, 172.20000000000002),23,-7,13,yes,x,5,x,0.5096479000058025,1,16,test1,1,0.5099189000029583,-52.0
17,lzb,f,19,r,2,(-172.20000000000002, 2.1088417881317425e-14),25,-25,14,yes,x,5,x,0.5031812000088394,1,17,test1,1,0.5032831999997143,-70.0
17,lzb,f,19,r,2,(1.0544208940658713e-14, 172.20000000000002),23,3,1,no,m,6,m,0.9344619000039529,1,18,test1,1,0.934779699993669,-70.0
17,lzb,f,19,r,2,(121.76378772032349, 121.76378772032349),22,25,4,yes,x,5,x,0.46884729999874253,1,19,test1,1,0.46896189999824855,-20.0
17,lzb,f,19,r,2,(1.0544208940658713e-14, 172.20000000000002),23,3,1,yes,x,5,x,0.6447579999949085,1,20,test1,1,0.6449952999973902,-42.0
17,lzb,f,19,r,2,(-121.76378772032352, -121.76378772032348),26,-7,13,yes,x,5,x,0.5007984999974724,1,21,test1,1,0.5010836999863386,-52.0
17,lzb,f,19,r,2,(1.0544208940658713e-14, 172.20000000000002),23,5,2,no,m,6,x,1.0946983999892836,0,22,test1,1,1.0949758000060683,-52.0
17,lzb,f,19,r,2,(121.76378772032349, 121.76378772032349),22,-5,12,yes,x,5,x,0.541907299993909,1,23,test1,1,0.5420788000046741,-50.0
17,lzb,f,19,r,2,(-121.76378772032348, 121.76378772032349),24,-7,13,yes,x,5,x,0.5671013000101084,1,24,test1,1,0.567244000005303,-52.0
17,lzb,f,19,r,2,(-3.163262682197613e-14, -172.20000000000002),27,-25,14,yes,x,5,x,0.42553149999002926,1,25,test1,1,0.4257080999959726,-70.0
17,lzb,f,19,r,2,(1.0544208940658713e-14, 172.20000000000002),23,5,2,yes,x,5,x,0.4600356000009924,1,26,test1,1,0.46032699999341276,-40.0
17,lzb,f,19,r,2,(172.20000000000002, 0.0),21,3,1,no,m,6,m,0.8782280999876093,1,27,test1,1,0.8785825999948429,-40.0
17,lzb,f,19,r,2,(-121.76378772032348, 121.76378772032349),24,-3,11,yes,x,5,x,0.8494067000137875,1,28,test1,1,0.8495880999980727,-48.0
17,lzb,f,19,r,2,(-172.20000000000002, 2.1088417881317425e-14),25,3,1,yes,x,5,x,0.641774899995653,1,29,test1,1,0.6420046999992337,-42.0
17,lzb,f,19,r,2,(-172.20000000000002, 2.1088417881317425e-14),25,-7,13,no,m,6,m,1.045572999995784,1,30,test1,1,1.0457259999966482,-42.0
17,lzb,f,19,r,2,(121.76378772032349, 121.76378772032349),22,-7,13,no,m,6,m,0.8790901999891503,1,31,test1,1,0.8792113999952562,-42.0
17,lzb,f,19,r,2,(1.0544208940658713e-14, 172.20000000000002),23,7,3,yes,x,5,x,0.5041120999958366,1,32,test1,1,0.5043584000086412,-38.0
17,lzb,f,19,r,2,(121.76378772032346, -121.76378772032352),28,-25,14,no,m,6,m,0.9209253000008175,1,33,test1,1,0.9211464999971213,-38.0
17,lzb,f,19,r,2,(-121.76378772032352, -121.76378772032348),26,3,1,yes,x,5,m,0.8496176000044215,0,34,test1,1,0.8499972999998135,-42.0
17,lzb,f,19,r,2,(-3.163262682197613e-14, -172.20000000000002),27,5,2,yes,x,5,x,0.5471948000049451,1,35,test1,1,0.5472938000020804,-40.0
17,lzb,f,19,r,2,(-121.76378772032348, 121.76378772032349),24,-25,14,no,m,6,m,0.9290621999971336,1,36,test1,1,0.9293064999947092,-40.0
17,lzb,f,19,r,2,(-121.76378772032352, -121.76378772032348),26,-25,14,yes,x,5,x,0.5410932000086177,1,37,test1,1,0.5412957000080496,-70.0
17,lzb,f,19,r,2,(-172.20000000000002, 2.1088417881317425e-14),25,5,2,yes,x,5,x,0.5843453999987105,1,38,test1,1,0.5844607999897562,-40.0
17,lzb,f,19,r,2,(-172.20000000000002, 2.1088417881317425e-14),25,7,3,no,m,6,m,0.9158744000014849,1,39,test1,1,0.9161677999945823,-40.0
17,lzb,f,19,r,2,(121.76378772032346, -121.76378772032352),28,7,3,yes,x,5,x,0.5600398999958998,1,40,test1,1,0.5602184999879682,-38.0
17,lzb,f,19,r,2,(172.20000000000002, 0.0),21,3,1,yes,x,5,x,1.1947540999972261,1,41,test1,1,1.1949932999996236,-42.0
17,lzb,f,19,r,2,(121.76378772032346, -121.76378772032352),28,-5,12,no,m,6,m,1.076593400008278,1,42,test1,1,1.0770990000019083,-42.0
17,lzb,f,19,r,2,(121.76378772032346, -121.76378772032352),28,-7,13,yes,x,5,x,0.55231339999591,1,43,test1,1,0.5525035000027856,-52.0
17,lzb,f,19,r,2,(1.0544208940658713e-14, 172.20000000000002),23,-3,11,no,m,6,m,0.7893271999928402,1,44,test1,1,0.7895648999983678,-52.0
17,lzb,f,19,r,2,(172.20000000000002, 0.0),21,-3,11,yes,x,5,x,0.5619761999987531,1,45,test1,1,0.5620766000065487,-48.0
17,lzb,f,19,r,2,(1.0544208940658713e-14, 172.20000000000002),23,-25,14,yes,x,5,x,0.46610469999723136,1,46,test1,1,0.466578000006848,-70.0
17,lzb,f,19,r,2,(121.76378772032349, 121.76378772032349),22,-3,11,yes,x,5,x,0.7544818000023952,1,47,test1,1,0.7551975999958813,-48.0
17,lzb,f,19,r,2,(-3.163262682197613e-14, -172.20000000000002),27,-7,13,yes,x,5,x,0.5417283999995561,1,48,test1,1,0.5419306999974651,-52.0
17,lzb,f,19,r,2,(172.20000000000002, 0.0),21,-5,12,yes,x,5,x,0.5662703000125475,1,49,test1,1,0.5663897000049474,-50.0
17,lzb,f,19,r,2,(-3.163262682197613e-14, -172.20000000000002),27,7,3,yes,x,5,x,0.5863234999997076,1,50,test1,1,0.5866290999983903,-38.0
17,lzb,f,19,r,2,(-121.76378772032348, 121.76378772032349),24,3,1,yes,x,5,x,1.3889130000025034,1,51,test1,1,1.3890412000037031,-42.0
17,lzb,f,19,r,2,(-172.20000000000002, 2.1088417881317425e-14),25,-3,11,no,m,6,m,1.19719449999684,1,52,test1,1,1.197303799999645,-42.0
17,lzb,f,19,r,2,(-3.163262682197613e-14, -172.20000000000002),27,-5,12,yes,x,5,x,0.6858995999937179,1,53,test1,1,0.6863049999956274,-50.0
17,lzb,f,19,r,2,(121.76378772032346, -121.76378772032352),28,5,2,no,m,6,x,0.8111264999897685,0,54,test1,1,0.81134810000367,-50.0
17,lzb,f,19,r,2,(121.76378772032349, 121.76378772032349),22,25,4,no,m,6,m,0.8567278000118677,1,55,test1,1,0.8568274999997811,-50.0
17,lzb,f,19,r,2,(1.0544208940658713e-14, 172.20000000000002),23,-7,13,no,m,6,m,0.8151810999988811,1,56,test1,1,0.8155092999950284,-50.0
17,lzb,f,19,r,2,(121.76378772032349, 121.76378772032349),22,-7,13,yes,x,5,x,0.5767618999961996,1,57,test1,1,0.5771487000019988,-52.0
17,lzb,f,19,r,2,(121.76378772032346, -121.76378772032352),28,7,3,no,m,6,m,0.8875620999897365,1,58,test1,1,0.8879291000048397,-52.0
17,lzb,f,19,r,2,(-3.163262682197613e-14, -172.20000000000002),27,-7,13,no,m,6,m,1.3192053999955533,1,59,test1,1,1.319336900007329,-52.0
17,lzb,f,19,r,2,(172.20000000000002, 0.0),21,-7,13,yes,x,5,x,0.5493036999978358,1,60,test1,1,0.5495093999925302,-52.0
17,lzb,f,19,r,2,(-121.76378772032348, 121.76378772032349),24,25,4,yes,x,5,x,0.5101520999887725,1,61,test1,1,0.5103460999962408,-20.0
17,lzb,f,19,r,2,(121.76378772032349, 121.76378772032349),22,5,2,yes,x,5,x,0.6300533000030555,1,62,test1,1,0.6306124000111595,-40.0
17,lzb,f,19,r,2,(121.76378772032346, -121.76378772032352),28,-3,11,yes,x,5,m,1.0918843999970704,0,63,test1,1,1.092388499993831,-48.0
17,lzb,f,19,r,2,(-3.163262682197613e-14, -172.20000000000002),27,-3,11,yes,x,5,x,1.0588790000037989,1,64,test1,1,1.0591148999956204,-48.0
17,lzb,f,19,r,2,(-121.76378772032352, -121.76378772032348),26,-25,14,no,m,6,m,0.7819727000023704,1,65,test1,1,0.7821168999944348,-48.0
17,lzb,f,19,r,2,(1.0544208940658713e-14, 172.20000000000002),23,-7,13,yes,x,5,x,0.508460400000331,1,66,test1,1,0.5091244999930495,-52.0
17,lzb,f,19,r,2,(1.0544208940658713e-14, 172.20000000000002),23,25,4,no,m,6,x,1.2032629000023007,0,67,test1,1,1.2034273000026587,-52.0
17,lzb,f,19,r,2,(1.0544208940658713e-14, 172.20000000000002),23,-5,12,yes,x,5,x,0.6178881000087131,1,68,test1,1,0.6180156000045827,-50.0
17,lzb,f,19,r,2,(121.76378772032346, -121.76378772032352),28,-25,14,yes,x,5,x,0.5112572000070941,1,69,test1,1,0.5113931999949273,-70.0
17,lzb,f,19,r,2,(1.0544208940658713e-14, 172.20000000000002),23,3,1,yes,x,5,x,0.7022653000021819,1,70,test1,1,0.702365799996187,-42.0
17,lzb,f,19,r,2,(1.0544208940658713e-14, 172.20000000000002),23,-3,11,yes,x,5,x,0.5162161000043852,1,71,test1,1,0.5163145999977132,-48.0
17,lzb,f,19,r,2,(-121.76378772032352, -121.76378772032348),26,-3,11,yes,x,5,m,0.9876704999915091,0,72,test1,1,0.9880499999999302,-48.0
17,lzb,f,19,r,2,(-121.76378772032352, -121.76378772032348),26,25,4,yes,x,5,x,0.37704130000201985,1,73,test1,1,0.37720079999417067,-20.0
17,lzb,f,19,r,2,(1.0544208940658713e-14, 172.20000000000002),23,25,4,yes,x,5,x,0.3720086000103038,1,74,test1,1,0.37225849999231286,-20.0
17,lzb,f,19,r,2,(-172.20000000000002, 2.1088417881317425e-14),25,5,2,yes,x,5,x,0.5607591000007233,1,75,test1,1,0.5613162999943597,-40.0
17,lzb,f,19,r,2,(-121.76378772032352, -121.76378772032348),26,-25,14,yes,x,5,x,0.4498654000053648,1,76,test1,1,0.4500848000025144,-70.0
17,lzb,f,19,r,2,(-172.20000000000002, 2.1088417881317425e-14),25,-25,14,no,m,6,m,0.7100065999984508,1,77,test1,1,0.7101404999993974,-70.0
17,lzb,f,19,r,2,(172.20000000000002, 0.0),21,5,2,yes,x,5,x,0.7881980999954976,1,78,test1,1,0.7883437999989837,-40.0
17,lzb,f,19,r,2,(172.20000000000002, 0.0),21,7,3,yes,x,5,x,0.5569563999888487,1,79,test1,1,0.5571821999910753,-38.0
17,lzb,f,19,r,2,(-121.76378772032348, 121.76378772032349),24,-25,14,yes,x,5,x,0.45178970000415575,1,80,test1,1,0.4521939999976894,-70.0
17,lzb,f,19,r,2,(-121.76378772032348, 121.76378772032349),24,7,3,no,m,6,m,0.7957329000055324,1,81,test1,1,0.7961089000018546,-70.0
17,lzb,f,19,r,2,(121.76378772032346, -121.76378772032352),28,3,1,yes,x,5,x,0.8224470999994082,1,82,test1,1,0.8226410000061151,-42.0
17,lzb,f,19,r,2,(-172.20000000000002, 2.1088417881317425e-14),25,-7,13,yes,x,5,x,0.4992414000007557,1,83,test1,1,0.4993372000026284,-52.0
17,lzb,f,19,r,2,(-3.163262682197613e-14, -172.20000000000002),27,5,2,yes,x,5,x,0.5693853999982821,1,84,test1,1,0.569527300001937,-40.0
17,lzb,f,19,r,2,(172.20000000000002, 0.0),21,3,1,yes,x,5,x,0.8911579999985406,1,85,test1,1,0.8913732999935746,-42.0
17,lzb,f,19,r,2,(-172.20000000000002, 2.1088417881317425e-14),25,7,3,yes,x,5,x,0.5154640999971889,1,86,test1,1,0.5157915000017965,-38.0
17,lzb,f,19,r,2,(-121.76378772032352, -121.76378772032348),26,25,4,yes,x,5,x,0.47665080000297166,1,87,test1,1,0.47693279999657534,-20.0
17,lzb,f,19,r,2,(-121.76378772032348, 121.76378772032349),24,-7,13,yes,x,5,x,0.4286481000017375,1,88,test1,1,0.42874570000276435,-52.0
17,lzb,f,19,r,2,(-3.163262682197613e-14, -172.20000000000002),27,5,2,no,m,6,m,0.6958539000042947,1,89,test1,1,0.696137600010843,-52.0
17,lzb,f,19,r,2,(-3.163262682197613e-14, -172.20000000000002),27,-7,13,yes,x,5,x,0.6090241000056267,1,90,test1,1,0.6092741000029491,-52.0
17,lzb,f,19,r,2,(121.76378772032346, -121.76378772032352),28,-25,14,yes,x,5,x,0.4245857000059914,1,91,test1,1,0.4246898000128567,-70.0
17,lzb,f,19,r,2,(121.76378772032349, 121.76378772032349),22,3,1,no,m,6,m,0.7860550000041258,1,92,test1,1,0.7862214000051608,-70.0
17,lzb,f,19,r,2,(-3.163262682197613e-14, -172.20000000000002),27,7,3,no,m,6,m,0.6446951999969315,1,93,test1,1,0.6448578000126872,-70.0
17,lzb,f,19,r,2,(-172.20000000000002, 2.1088417881317425e-14),25,25,4,yes,x,5,x,0.457710099988617,1,94,test1,1,0.45800230000168085,-20.0
17,lzb,f,19,r,2,(121.76378772032349, 121.76378772032349),22,-25,14,yes,x,5,x,0.4914895000110846,1,95,test1,1,0.4918908000108786,-70.0
17,lzb,f,19,r,2,(-121.76378772032352, -121.76378772032348),26,-5,12,no,m,6,m,0.7401675000000978,1,96,test1,1,0.7405605000094511,-70.0
17,lzb,f,19,r,2,(-172.20000000000002, 2.1088417881317425e-14),25,-5,12,yes,x,5,x,0.6675268999970285,1,1,test2,1,0.6677646000025561,-50.0
17,lzb,f,19,r,2,(121.76378772032349, 121.76378772032349),22,25,4,yes,x,5,x,0.444230900000548,1,2,test2,1,0.4446639999951003,-20.0
17,lzb,f,19,r,2,(-121.76378772032352, -121.76378772032348),26,5,2,yes,x,5,x,0.644619300001068,1,3,test2,1,0.6448383999959333,-40.0
17,lzb,f,19,r,2,(1.0544208940658713e-14, 172.20000000000002),23,-25,14,no,m,6,m,0.920398699992802,1,4,test2,1,0.9209603000053903,-40.0
17,lzb,f,19,r,2,(-121.76378772032352, -121.76378772032348),26,-3,11,no,m,6,m,0.8471273000031943,1,5,test2,1,0.8473265000066021,-40.0
17,lzb,f,19,r,2,(172.20000000000002, 0.0),21,-25,14,yes,x,5,x,0.42844619999232236,1,6,test2,1,0.42883470001106616,-70.0
17,lzb,f,19,r,2,(121.76378772032349, 121.76378772032349),22,3,1,yes,x,5,m,0.7137488000007579,0,7,test2,1,0.7139693000062834,-42.0
17,lzb,f,19,r,2,(172.20000000000002, 0.0),21,-5,12,no,m,6,m,1.0210058000084246,1,8,test2,1,1.0217148000083398,-42.0
17,lzb,f,19,r,2,(121.76378772032346, -121.76378772032352),28,25,4,yes,x,5,x,0.5201398000062909,1,9,test2,1,0.520259700002498,-20.0
17,lzb,f,19,r,2,(-3.163262682197613e-14, -172.20000000000002),27,-25,14,no,m,6,m,0.9529298999987077,1,10,test2,1,0.9530315000010887,-20.0
17,lzb,f,19,r,2,(172.20000000000002, 0.0),21,5,2,no,m,6,m,0.7625367000000551,1,11,test2,1,0.7626290000043809,-20.0
17,lzb,f,19,r,2,(-121.76378772032348, 121.76378772032349),24,7,3,yes,x,5,x,0.5097934000077657,1,12,test2,1,0.5099199999967823,-38.0
17,lzb,f,19,r,2,(-121.76378772032352, -121.76378772032348),26,7,3,yes,x,5,x,0.5660599999973783,1,13,test2,1,0.5663194999942789,-38.0
17,lzb,f,19,r,2,(121.76378772032349, 121.76378772032349),22,3,1,yes,x,5,x,0.8003947999968659,1,14,test2,1,0.8006625999987591,-42.0
17,lzb,f,19,r,2,(172.20000000000002, 0.0),21,25,4,yes,x,5,x,0.6030215000064345,1,15,test2,1,0.6035761000093771,-20.0
17,lzb,f,19,r,2,(121.76378772032349, 121.76378772032349),22,7,3,yes,x,5,x,0.5928126999933738,1,16,test2,1,0.5929348999925423,-38.0
17,lzb,f,19,r,2,(121.76378772032346, -121.76378772032352),28,25,4,yes,x,5,x,0.4602607999986503,1,17,test2,1,0.4605061000038404,-20.0
17,lzb,f,19,r,2,(121.76378772032349, 121.76378772032349),22,-25,14,yes,x,5,x,0.46625940001104027,1,18,test2,1,0.4663643999956548,-70.0
17,lzb,f,19,r,2,(-121.76378772032348, 121.76378772032349),24,25,4,yes,x,5,x,0.3778050999972038,1,19,test2,1,0.37811710000096355,-20.0
17,lzb,f,19,r,2,(-3.163262682197613e-14, -172.20000000000002),27,25,4,yes,x,5,x,0.673033300001407,1,20,test2,1,0.6731720999960089,-20.0
17,lzb,f,19,r,2,(121.76378772032349, 121.76378772032349),22,-5,12,yes,x,5,x,0.5244500999979209,1,21,test2,1,0.5245518000010634,-50.0
17,lzb,f,19,r,2,(-121.76378772032348, 121.76378772032349),24,-5,12,yes,x,5,x,0.5803149999992456,1,22,test2,1,0.580482999997912,-50.0
17,lzb,f,19,r,2,(-172.20000000000002, 2.1088417881317425e-14),25,-7,13,yes,x,5,x,0.4773427000036463,1,23,test2,1,0.47762890000012703,-52.0
17,lzb,f,19,r,2,(121.76378772032346, -121.76378772032352),28,5,2,yes,x,5,x,0.6815713999967556,1,24,test2,1,0.6817978999897605,-40.0
17,lzb,f,19,r,2,(-121.76378772032348, 121.76378772032349),24,-25,14,yes,x,5,x,0.4089737000031164,1,25,test2,1,0.40908260000287555,-70.0
17,lzb,f,19,r,2,(-121.76378772032348, 121.76378772032349),24,-5,12,no,m,6,m,0.7938179999910062,1,26,test2,1,0.7940545999881579,-70.0
17,lzb,f,19,r,2,(121.76378772032346, -121.76378772032352),28,5,2,yes,x,5,x,0.7927858000039123,1,27,test2,1,0.7935757000086596,-40.0
17,lzb,f,19,r,2,(-121.76378772032348, 121.76378772032349),24,-5,12,yes,x,5,x,0.5350296999968123,1,28,test2,1,0.5354328999965219,-50.0
17,lzb,f,19,r,2,(1.0544208940658713e-14, 172.20000000000002),23,7,3,no,m,6,m,0.8028425999946194,1,29,test2,1,0.8030582999926992,-50.0
17,lzb,f,19,r,2,(-172.20000000000002, 2.1088417881317425e-14),25,3,1,yes,x,5,x,0.5906075999955647,1,30,test2,1,0.5909011000039754,-42.0
17,lzb,f,19,r,2,(172.20000000000002, 0.0),21,7,3,yes,x,5,x,0.5809074999997392,1,31,test2,1,0.581267100002151,-38.0
17,lzb,f,19,r,2,(-3.163262682197613e-14, -172.20000000000002),27,25,4,yes,x,5,x,0.4443420000025071,1,32,test2,1,0.44507180000073276,-20.0
17,lzb,f,19,r,2,(172.20000000000002, 0.0),21,-7,13,yes,x,5,x,0.4954020000004675,1,33,test2,1,0.4960106999933487,-52.0
17,lzb,f,19,r,2,(-3.163262682197613e-14, -172.20000000000002),27,3,1,yes,x,5,x,0.6720863000082318,1,34,test2,1,0.6723201999993762,-42.0
17,lzb,f,19,r,2,(121.76378772032349, 121.76378772032349),22,5,2,no,m,6,m,0.8410823000012897,1,35,test2,1,0.8413376999960747,-42.0
17,lzb,f,19,r,2,(-172.20000000000002, 2.1088417881317425e-14),25,3,1,no,m,6,m,0.6962935000046855,1,36,test2,1,0.6970482000033371,-42.0
17,lzb,f,19,r,2,(-172.20000000000002, 2.1088417881317425e-14),25,-3,11,yes,x,5,x,0.7147763000102714,1,37,test2,1,0.7149628000042867,-48.0
17,lzb,f,19,r,2,(121.76378772032349, 121.76378772032349),22,-7,13,yes,x,5,x,0.6187418999907095,1,38,test2,1,0.6188420999969821,-52.0
17,lzb,f,19,r,2,(172.20000000000002, 0.0),21,-3,11,no,m,6,m,0.6652229999890551,1,39,test2,1,0.6653361000062432,-52.0
17,lzb,f,19,r,2,(1.0544208940658713e-14, 172.20000000000002),23,-25,14,yes,x,5,x,0.5154495000024326,1,40,test2,1,0.5158281999902101,-70.0
17,lzb,f,19,r,2,(-121.76378772032348, 121.76378772032349),24,3,1,no,m,6,m,0.6476377000071807,1,41,test2,1,0.6478990000032354,-70.0
17,lzb,f,19,r,2,(-3.163262682197613e-14, -172.20000000000002),27,3,1,no,m,6,m,0.9195564999972703,1,42,test2,1,0.9196788000117522,-70.0
17,lzb,f,19,r,2,(121.76378772032349, 121.76378772032349),22,7,3,yes,x,5,x,0.5579741999972612,1,43,test2,1,0.5582460000005085,-38.0
17,lzb,f,19,r,2,(172.20000000000002, 0.0),21,25,4,no,m,6,m,0.7997990000003483,1,44,test2,1,0.8003559000062523,-38.0
17,lzb,f,19,r,2,(-3.163262682197613e-14, -172.20000000000002),27,7,3,yes,x,5,x,0.5389076999999816,1,45,test2,1,0.5390066999971168,-38.0
17,lzb,f,19,r,2,(121.76378772032346, -121.76378772032352),28,-5,12,yes,x,5,x,0.6447043999942252,1,46,test2,1,0.6448655999993207,-50.0
17,lzb,f,19,r,2,(-172.20000000000002, 2.1088417881317425e-14),25,25,4,no,m,6,m,0.7579122000024654,1,47,test2,1,0.7580120000056922,-50.0
17,lzb,f,19,r,2,(121.76378772032349, 121.76378772032349),22,-25,14,no,m,6,m,0.7099319999979343,1,48,test2,1,0.7100460000074236,-50.0
17,lzb,f,19,r,2,(121.76378772032349, 121.76378772032349),22,5,2,yes,x,5,x,0.5963929999998072,1,49,test2,1,0.5966343999898527,-40.0
17,lzb,f,19,r,2,(172.20000000000002, 0.0),21,-7,13,no,m,6,m,0.7877128999971319,1,50,test2,1,0.7878448999981629,-40.0
17,lzb,f,19,r,2,(-121.76378772032352, -121.76378772032348),26,7,3,yes,x,5,x,0.5684283999871695,1,51,test2,1,0.56904270000814,-38.0
17,lzb,f,19,r,2,(172.20000000000002, 0.0),21,25,4,yes,x,5,x,0.4663158999901498,1,52,test2,1,0.4664195000077598,-20.0
17,lzb,f,19,r,2,(121.76378772032349, 121.76378772032349),22,-3,11,no,m,6,m,0.632845999993151,1,53,test2,1,0.6332078999985242,-20.0
17,lzb,f,19,r,2,(-3.163262682197613e-14, -172.20000000000002),27,3,1,yes,x,5,x,0.7985489999991842,1,54,test2,1,0.7987483000033535,-42.0
17,lzb,f,19,r,2,(121.76378772032346, -121.76378772032352),28,-3,11,yes,x,5,x,0.7151014999981271,1,55,test2,1,0.7153471000056015,-48.0
17,lzb,f,19,r,2,(-3.163262682197613e-14, -172.20000000000002),27,25,4,no,m,6,m,1.0498228999931598,1,56,test2,1,1.0502323000109755,-48.0
17,lzb,f,19,r,2,(121.76378772032349, 121.76378772032349),22,-3,11,yes,x,5,x,0.714892099989811,1,57,test2,1,0.7150196000002325,-48.0
17,lzb,f,19,r,2,(1.0544208940658713e-14, 172.20000000000002),23,-5,12,yes,x,5,x,0.4121277999947779,1,58,test2,1,0.4125186000019312,-50.0
17,lzb,f,19,r,2,(-172.20000000000002, 2.1088417881317425e-14),25,-5,12,yes,x,5,x,0.4685388999932911,1,59,test2,1,0.4688769000058528,-50.0
17,lzb,f,19,r,2,(-3.163262682197613e-14, -172.20000000000002),27,-5,12,yes,x,5,x,0.4097838000016054,1,60,test2,1,0.41007620000164025,-50.0
17,lzb,f,19,r,2,(-121.76378772032348, 121.76378772032349),24,-3,11,yes,x,5,m,0.6240347999992082,0,61,test2,1,0.6241628999996465,-48.0
17,lzb,f,19,r,2,(121.76378772032346, -121.76378772032352),28,3,1,no,m,6,m,0.8176347999979043,1,62,test2,1,0.81779450000613,-48.0
17,lzb,f,19,r,2,(1.0544208940658713e-14, 172.20000000000002),23,25,4,yes,x,5,x,0.44440279999980703,1,63,test2,1,0.4445040999999037,-20.0
17,lzb,f,19,r,2,(121.76378772032346, -121.76378772032352),28,-5,12,yes,x,5,x,0.598811999996542,1,64,test2,1,0.598929899992072,-50.0
17,lzb,f,19,r,2,(-121.76378772032352, -121.76378772032348),26,-3,11,yes,x,5,x,0.6623218000022462,1,65,test2,1,0.6630452999961562,-48.0
17,lzb,f,19,r,2,(172.20000000000002, 0.0),21,7,3,no,m,6,m,0.7736387999902945,1,66,test2,1,0.7738574999966659,-48.0
17,lzb,f,19,r,2,(172.20000000000002, 0.0),21,-25,14,no,m,6,m,0.8423260000126902,1,67,test2,1,0.8427203000028385,-48.0
17,lzb,f,19,r,2,(121.76378772032346, -121.76378772032352),28,-7,13,yes,x,5,x,0.6549912999907974,1,68,test2,1,0.6553159000031883,-52.0
17,lzb,f,19,r,2,(-172.20000000000002, 2.1088417881317425e-14),25,-25,14,yes,x,5,x,0.5288852000085171,1,69,test2,1,0.5290480999974534,-70.0
17,lzb,f,19,r,2,(-121.76378772032348, 121.76378772032349),24,-7,13,no,m,6,m,0.9461424000037368,1,70,test2,1,0.9462975000060396,-70.0
17,lzb,f,19,r,2,(172.20000000000002, 0.0),21,-3,11,yes,x,5,x,0.8906468999921344,1,71,test2,1,0.8907467999961227,-48.0
17,lzb,f,19,r,2,(-121.76378772032352, -121.76378772032348),26,25,4,no,m,6,m,0.8284610999980941,1,72,test2,1,0.8285882999916794,-48.0
17,lzb,f,19,r,2,(-121.76378772032348, 121.76378772032349),24,25,4,no,m,6,m,0.6936588999960804,1,73,test2,1,0.6938114000076894,-48.0
17,lzb,f,19,r,2,(1.0544208940658713e-14, 172.20000000000002),23,-5,12,no,m,6,m,1.088648999997531,1,74,test2,1,1.0887652000092203,-48.0
17,lzb,f,19,r,2,(121.76378772032349, 121.76378772032349),22,7,3,no,m,6,m,0.7981655000039609,1,75,test2,1,0.798448700006702,-48.0
17,lzb,f,19,r,2,(-121.76378772032352, -121.76378772032348),26,3,1,yes,x,5,x,0.8176543000008678,1,76,test2,1,0.8177840999996988,-42.0
17,lzb,f,19,r,2,(172.20000000000002, 0.0),21,-5,12,yes,x,5,x,0.5901214999903459,1,77,test2,1,0.5904026000062004,-50.0
17,lzb,f,19,r,2,(-121.76378772032352, -121.76378772032348),26,-7,13,yes,x,5,x,0.4763111000065692,1,78,test2,1,0.4766623999894364,-52.0
17,lzb,f,19,r,2,(-121.76378772032352, -121.76378772032348),26,-5,12,yes,x,5,x,0.5444095000129892,1,79,test2,1,0.5446502999984659,-50.0
17,lzb,f,19,r,2,(-121.76378772032352, -121.76378772032348),26,3,1,no,m,6,x,0.949849800002994,0,80,test2,1,0.9500124999904074,-50.0
17,lzb,f,19,r,2,(-121.76378772032348, 121.76378772032349),24,3,1,yes,x,5,x,0.8981245000031777,1,81,test2,1,0.8982799999939743,-42.0
17,lzb,f,19,r,2,(1.0544208940658713e-14, 172.20000000000002),23,-3,11,yes,x,5,x,0.6152422000013757,1,82,test2,1,0.6154308000113815,-48.0
17,lzb,f,19,r,2,(-121.76378772032352, -121.76378772032348),26,-7,13,no,m,6,m,0.6773953000083566,1,83,test2,1,0.6774985000083689,-48.0
17,lzb,f,19,r,2,(121.76378772032346, -121.76378772032352),28,25,4,no,m,6,m,0.7357113000034587,1,84,test2,1,0.7358823999966262,-48.0
17,lzb,f,19,r,2,(172.20000000000002, 0.0),21,-25,14,yes,x,5,x,0.5560454999940703,1,85,test2,1,0.5565631999925245,-70.0
17,lzb,f,19,r,2,(-3.163262682197613e-14, -172.20000000000002),27,-3,11,no,m,6,m,0.6928189000027487,1,86,test2,1,0.6929207000066526,-70.0
17,lzb,f,19,r,2,(1.0544208940658713e-14, 172.20000000000002),23,5,2,yes,x,5,x,0.637960899999598,1,87,test2,1,0.6381922000000486,-40.0
17,lzb,f,19,r,2,(-121.76378772032348, 121.76378772032349),24,7,3,yes,x,5,x,0.5871676999959163,1,88,test2,1,0.5874100000073668,-38.0
17,lzb,f,19,r,2,(-121.76378772032352, -121.76378772032348),26,5,2,no,m,6,x,0.7070919999969192,0,89,test2,1,0.7071968999953242,-38.0
17,lzb,f,19,r,2,(-3.163262682197613e-14, -172.20000000000002),27,-25,14,yes,x,5,x,0.6331877999909921,1,90,test2,1,0.6332859999965876,-70.0
17,lzb,f,19,r,2,(-121.76378772032348, 121.76378772032349),24,5,2,yes,x,5,x,0.5208327000000281,1,91,test2,1,0.5214005000016186,-40.0
17,lzb,f,19,r,2,(-172.20000000000002, 2.1088417881317425e-14),25,5,2,no,m,6,m,1.0606578999868361,1,92,test2,1,1.0610727000021143,-40.0
17,lzb,f,19,r,2,(-121.76378772032352, -121.76378772032348),26,-5,12,yes,x,5,x,0.5706518999941181,1,93,test2,1,0.57103819999611,-50.0
17,lzb,f,19,r,2,(-172.20000000000002, 2.1088417881317425e-14),25,25,4,yes,x,5,x,0.43857220000063535,1,94,test2,1,0.43873780001013074,-20.0
17,lzb,f,19,r,2,(121.76378772032346, -121.76378772032352),28,-7,13,no,m,6,m,0.6706900999997742,1,95,test2,1,0.6710439000016777,-20.0
17,lzb,f,19,r,2,(172.20000000000002, 0.0),21,5,2,yes,x,5,x,0.5250796999898739,1,96,test2,1,0.525181099990732,-40.0
17,lzb,f,19,r,2,(-121.76378772032348, 121.76378772032349),24,5,2,yes,x,5,x,0.6505286999890814,1,1,test1,2,0.6509094999928493,-40.0
17,lzb,f,19,r,2,(-121.76378772032348, 121.76378772032349),24,-3,11,no,m,6,m,0.7123178000038024,1,2,test1,2,0.7125741000054404,-40.0
17,lzb,f,19,r,2,(-121.76378772032352, -121.76378772032348),26,7,3,no,m,6,m,0.6519498999987263,1,3,test1,2,0.6522009000036633,-40.0
17,lzb,f,19,r,2,(-172.20000000000002, 2.1088417881317425e-14),25,-5,12,no,m,6,m,0.7498392000125023,1,4,test1,2,0.7504787999932887,-40.0
17,lzb,f,19,r,2,(121.76378772032346, -121.76378772032352),28,7,3,yes,x,5,x,0.5392179000045871,1,5,test1,2,0.5393655000079889,-38.0
17,lzb,f,19,r,2,(-172.20000000000002, 2.1088417881317425e-14),25,7,3,yes,x,5,x,0.4165562999987742,1,6,test1,2,0.41670699999667704,-38.0
17,lzb,f,19,r,2,(121.76378772032346, -121.76378772032352),28,-3,11,no,m,6,m,0.7110046000016155,1,7,test1,2,0.711226200000965,-38.0
17,lzb,f,19,r,2,(-121.76378772032348, 121.76378772032349),24,5,2,no,m,6,m,0.8767865000118036,1,8,test1,2,0.877027900001849,-38.0
17,lzb,f,19,r,2,(121.76378772032346, -121.76378772032352),28,3,1,yes,x,5,x,0.6582006000098772,1,9,test1,2,0.6583328999986406,-42.0
17,lzb,f,19,r,2,(-3.163262682197613e-14, -172.20000000000002),27,-5,12,no,m,6,m,0.9632376999943517,1,10,test1,2,0.963353700004518,-42.0
17,lzb,f,19,r,2,(-172.20000000000002, 2.1088417881317425e-14),25,-3,11,yes,x,5,x,0.6076231999904849,1,11,test1,2,0.6077216999983648,-48.0
17,lzb,f,19,r,2,(121.76378772032349, 121.76378772032349),22,-5,12,no,m,6,m,1.02402370001073,1,12,test1,2,1.0241326000104891,-48.0
17,lzb,f,19,r,2,(-3.163262682197613e-14, -172.20000000000002),27,-3,11,yes,x,5,x,1.024713699996937,1,13,test1,2,1.025119400001131,-48.0
17,lzb,f,19,r,2,(1.0544208940658713e-14, 172.20000000000002),23,7,3,yes,x,5,x,0.5269118000142043,1,14,test1,2,0.5270501999912085,-38.0
17,lzb,f,19,r,2,(-121.76378772032352, -121.76378772032348),26,5,2,yes,x,5,x,0.5664573999965796,1,15,test1,2,0.5671322999987751,-40.0
17,lzb,f,19,r,2,(1.0544208940658713e-14, 172.20000000000002),23,-7,13,yes,x,5,x,0.5068287000030978,1,16,test1,2,0.5070317000063369,-52.0
17,lzb,f,19,r,2,(-172.20000000000002, 2.1088417881317425e-14),25,-25,14,yes,x,5,x,0.4067786999949021,1,17,test1,2,0.4068836999940686,-70.0
17,lzb,f,19,r,2,(1.0544208940658713e-14, 172.20000000000002),23,3,1,no,m,6,m,0.5809670000016922,1,18,test1,2,0.5813466000108747,-70.0
17,lzb,f,19,r,2,(121.76378772032349, 121.76378772032349),22,25,4,yes,x,5,x,0.4786279999971157,1,19,test1,2,0.4790637000114657,-20.0
17,lzb,f,19,r,2,(1.0544208940658713e-14, 172.20000000000002),23,3,1,yes,x,5,x,0.5497957999905339,1,20,test1,2,0.5501103999995394,-42.0
17,lzb,f,19,r,2,(-121.76378772032352, -121.76378772032348),26,-7,13,yes,x,5,None,None,0,21,test1,2,1.9800983000022825,-52.0
17,lzb,f,19,r,2,(1.0544208940658713e-14, 172.20000000000002),23,5,2,no,m,6,x,0.6852427999983774,0,22,test1,2,0.6853687999973772,-52.0
17,lzb,f,19,r,2,(121.76378772032349, 121.76378772032349),22,-5,12,yes,x,5,x,0.7285275000031106,1,23,test1,2,0.7286573999881512,-50.0
17,lzb,f,19,r,2,(-121.76378772032348, 121.76378772032349),24,-7,13,yes,x,5,x,0.670196200007922,1,24,test1,2,0.6703879999986384,-52.0
17,lzb,f,19,r,2,(-3.163262682197613e-14, -172.20000000000002),27,-25,14,yes,x,5,x,0.5083199999935459,1,25,test1,2,0.5084453000017675,-70.0
17,lzb,f,19,r,2,(1.0544208940658713e-14, 172.20000000000002),23,5,2,yes,x,5,x,0.6001676000014413,1,26,test1,2,0.6003990999888629,-40.0
17,lzb,f,19,r,2,(172.20000000000002, 0.0),21,3,1,no,m,6,m,0.7284116999944672,1,27,test1,2,0.728635999999824,-40.0
17,lzb,f,19,r,2,(-121.76378772032348, 121.76378772032349),24,-3,11,yes,x,5,x,0.6787091000005603,1,28,test1,2,0.6788335999881383,-48.0
17,lzb,f,19,r,2,(-172.20000000000002, 2.1088417881317425e-14),25,3,1,yes,x,5,x,0.6924085999926319,1,29,test1,2,0.6926570999930846,-42.0
17,lzb,f,19,r,2,(-172.20000000000002, 2.1088417881317425e-14),25,-7,13,no,m,6,m,0.8200999999971827,1,30,test1,2,0.8202040999894962,-42.0
17,lzb,f,19,r,2,(121.76378772032349, 121.76378772032349),22,-7,13,no,m,6,m,0.825821199992788,1,31,test1,2,0.825921700001345,-42.0
17,lzb,f,19,r,2,(1.0544208940658713e-14, 172.20000000000002),23,7,3,yes,x,5,x,0.5649910000065574,1,32,test1,2,0.5651620999997249,-38.0
17,lzb,f,19,r,2,(121.76378772032346, -121.76378772032352),28,-25,14,no,m,6,m,0.7524496999976691,1,33,test1,2,0.7526849999994738,-38.0
17,lzb,f,19,r,2,(-121.76378772032352, -121.76378772032348),26,3,1,yes,x,5,x,0.8688292000006186,1,34,test1,2,0.8689594000024954,-42.0
17,lzb,f,19,r,2,(-3.163262682197613e-14, -172.20000000000002),27,5,2,yes,x,5,x,0.6895777999889106,1,35,test1,2,0.6900880000030156,-40.0
17,lzb,f,19,r,2,(-121.76378772032348, 121.76378772032349),24,-25,14,no,m,6,m,0.7575874000031035,1,36,test1,2,0.7578628999908688,-40.0
17,lzb,f,19,r,2,(-121.76378772032352, -121.76378772032348),26,-25,14,yes,x,5,x,0.46633209999708924,1,37,test1,2,0.4664588999876287,-70.0
17,lzb,f,19,r,2,(-172.20000000000002, 2.1088417881317425e-14),25,5,2,yes,x,5,x,0.4485420000128215,1,38,test1,2,0.44864370000141207,-40.0
17,lzb,f,19,r,2,(-172.20000000000002, 2.1088417881317425e-14),25,7,3,no,m,6,m,0.696082700000261,1,39,test1,2,0.696497900004033,-40.0
17,lzb,f,19,r,2,(121.76378772032346, -121.76378772032352),28,7,3,yes,x,5,x,0.5370693000004394,1,40,test1,2,0.5371702999982517,-38.0
17,lzb,f,19,r,2,(172.20000000000002, 0.0),21,3,1,yes,x,5,x,0.8973573999974178,1,41,test1,2,0.8975131000042893,-42.0
17,lzb,f,19,r,2,(121.76378772032346, -121.76378772032352),28,-5,12,no,m,6,m,0.7689695000008214,1,42,test1,2,0.769070099995588,-42.0
17,lzb,f,19,r,2,(121.76378772032346, -121.76378772032352),28,-7,13,yes,x,5,x,0.5290752000000793,1,43,test1,2,0.5292404000065289,-52.0
17,lzb,f,19,r,2,(1.0544208940658713e-14, 172.20000000000002),23,-3,11,no,m,6,m,0.7385815000016009,1,44,test1,2,0.7386828000016976,-52.0
17,lzb,f,19,r,2,(172.20000000000002, 0.0),21,-3,11,yes,x,5,x,0.59843230000115,1,45,test1,2,0.5985557999956654,-48.0
17,lzb,f,19,r,2,(1.0544208940658713e-14, 172.20000000000002),23,-25,14,yes,x,5,x,0.5550425000110408,1,46,test1,2,0.5551727999991272,-70.0
17,lzb,f,19,r,2,(121.76378772032349, 121.76378772032349),22,-3,11,yes,x,5,x,0.6853233000001637,1,47,test1,2,0.685666699995636,-48.0
17,lzb,f,19,r,2,(-3.163262682197613e-14, -172.20000000000002),27,-7,13,yes,x,5,x,0.5462478999979794,1,48,test1,2,0.5464632000075653,-52.0
17,lzb,f,19,r,2,(172.20000000000002, 0.0),21,-5,12,yes,x,5,x,0.5659173000021838,1,49,test1,2,0.5660982000117656,-50.0
17,lzb,f,19,r,2,(-3.163262682197613e-14, -172.20000000000002),27,7,3,yes,x,5,x,0.5133435000025202,1,50,test1,2,0.5135023000038927,-38.0
17,lzb,f,19,r,2,(-121.76378772032348, 121.76378772032349),24,3,1,yes,x,5,x,0.6844000999990385,1,51,test1,2,0.6847749000007752,-42.0
17,lzb,f,19,r,2,(-172.20000000000002, 2.1088417881317425e-14),25,-3,11,no,m,6,m,0.8209547000005841,1,52,test1,2,0.8211878000001889,-42.0
17,lzb,f,19,r,2,(-3.163262682197613e-14, -172.20000000000002),27,-5,12,yes,x,5,x,0.5636178000131622,1,53,test1,2,0.5638124999968568,-50.0
17,lzb,f,19,r,2,(121.76378772032346, -121.76378772032352),28,5,2,no,m,6,m,0.9662621000024956,1,54,test1,2,0.9664734000107273,-50.0
17,lzb,f,19,r,2,(121.76378772032349, 121.76378772032349),22,25,4,no,m,6,m,0.7396250000019791,1,55,test1,2,0.7397303000034299,-50.0
17,lzb,f,19,r,2,(1.0544208940658713e-14, 172.20000000000002),23,-7,13,no,m,6,m,0.7669217999937246,1,56,test1,2,0.7672220999957062,-50.0
17,lzb,f,19,r,2,(121.76378772032349, 121.76378772032349),22,-7,13,yes,x,5,x,0.45271370001137257,1,57,test1,2,0.4528442000009818,-52.0
17,lzb,f,19,r,2,(121.76378772032346, -121.76378772032352),28,7,3,no,m,6,m,0.9059051999938674,1,58,test1,2,0.9060331999935443,-52.0
17,lzb,f,19,r,2,(-3.163262682197613e-14, -172.20000000000002),27,-7,13,no,m,6,m,0.7301441000017803,1,59,test1,2,0.7307971999980509,-52.0
17,lzb,f,19,r,2,(172.20000000000002, 0.0),21,-7,13,yes,x,5,x,0.563000699999975,1,60,test1,2,0.5632915000023786,-52.0
17,lzb,f,19,r,2,(-121.76378772032348, 121.76378772032349),24,25,4,yes,x,5,x,0.8749094999948284,1,61,test1,2,0.8752626999921631,-20.0
17,lzb,f,19,r,2,(121.76378772032349, 121.76378772032349),22,5,2,yes,x,5,x,0.7992776000028243,1,62,test1,2,0.7996218999905977,-40.0
17,lzb,f,19,r,2,(121.76378772032346, -121.76378772032352),28,-3,11,yes,x,5,x,0.8139660000015283,1,63,test1,2,0.8145383999944897,-48.0
17,lzb,f,19,r,2,(-3.163262682197613e-14, -172.20000000000002),27,-3,11,yes,x,5,x,0.9446986999973888,1,64,test1,2,0.9448016999958782,-48.0
17,lzb,f,19,r,2,(-121.76378772032352, -121.76378772032348),26,-25,14,no,m,6,m,0.7592885000049137,1,65,test1,2,0.7594930000050226,-48.0
17,lzb,f,19,r,2,(1.0544208940658713e-14, 172.20000000000002),23,-7,13,yes,x,5,x,0.540083699990646,1,66,test1,2,0.5404455999960192,-52.0
17,lzb,f,19,r,2,(1.0544208940658713e-14, 172.20000000000002),23,25,4,no,m,6,m,0.7899020000040764,1,67,test1,2,0.7906381999928271,-52.0
17,lzb,f,19,r,2,(1.0544208940658713e-14, 172.20000000000002),23,-5,12,yes,x,5,x,0.5121061000099871,1,68,test1,2,0.5122509000066202,-50.0
17,lzb,f,19,r,2,(121.76378772032346, -121.76378772032352),28,-25,14,yes,x,5,x,0.537620799994329,1,69,test1,2,0.5377470000094036,-70.0
17,lzb,f,19,r,2,(1.0544208940658713e-14, 172.20000000000002),23,3,1,yes,x,5,x,0.5857164999906672,1,70,test1,2,0.5860960999998497,-42.0
17,lzb,f,19,r,2,(1.0544208940658713e-14, 172.20000000000002),23,-3,11,yes,x,5,x,0.49285819999931846,1,71,test1,2,0.49314849999791477,-48.0
17,lzb,f,19,r,2,(-121.76378772032352, -121.76378772032348),26,-3,11,yes,x,5,x,0.5599603000009665,1,72,test1,2,0.5602780000044731,-48.0
17,lzb,f,19,r,2,(-121.76378772032352, -121.76378772032348),26,25,4,yes,x,5,x,0.3926548999879742,1,73,test1,2,0.3928159000060987,-20.0
17,lzb,f,19,r,2,(1.0544208940658713e-14, 172.20000000000002),23,25,4,yes,x,5,x,0.41562400000111666,1,74,test1,2,0.4158690999902319,-20.0
17,lzb,f,19,r,2,(-172.20000000000002, 2.1088417881317425e-14),25,5,2,yes,x,5,x,0.4699092000082601,1,75,test1,2,0.4701299000007566,-40.0
17,lzb,f,19,r,2,(-121.76378772032352, -121.76378772032348),26,-25,14,yes,x,5,x,0.39031899999827147,1,76,test1,2,0.390467000004719,-70.0
17,lzb,f,19,r,2,(-172.20000000000002, 2.1088417881317425e-14),25,-25,14,no,m,6,m,0.6856826000002911,1,77,test1,2,0.6858424999954877,-70.0
17,lzb,f,19,r,2,(172.20000000000002, 0.0),21,5,2,yes,x,5,x,0.6364103999949293,1,78,test1,2,0.6365431000012904,-40.0
17,lzb,f,19,r,2,(172.20000000000002, 0.0),21,7,3,yes,x,5,x,0.5105932000005851,1,79,test1,2,0.5109952000057092,-38.0
17,lzb,f,19,r,2,(-121.76378772032348, 121.76378772032349),24,-25,14,yes,x,5,x,0.4064938999945298,1,80,test1,2,0.4068610000103945,-70.0
17,lzb,f,19,r,2,(-121.76378772032348, 121.76378772032349),24,7,3,no,m,6,m,0.5856426999962423,1,81,test1,2,0.5860991999943508,-70.0
17,lzb,f,19,r,2,(121.76378772032346, -121.76378772032352),28,3,1,yes,x,5,x,0.6230502999969758,1,82,test1,2,0.6232137000042712,-42.0
17,lzb,f,19,r,2,(-172.20000000000002, 2.1088417881317425e-14),25,-7,13,yes,x,5,x,0.5383889000077033,1,83,test1,2,0.5384869999979855,-52.0
17,lzb,f,19,r,2,(-3.163262682197613e-14, -172.20000000000002),27,5,2,yes,x,5,x,0.5012127999943914,1,84,test1,2,0.5014336000022013,-40.0
17,lzb,f,19,r,2,(172.20000000000002, 0.0),21,3,1,yes,x,5,x,0.42548920000263024,1,85,test1,2,0.4258785000129137,-42.0
17,lzb,f,19,r,2,(-172.20000000000002, 2.1088417881317425e-14),25,7,3,yes,x,5,x,0.4946951000019908,1,86,test1,2,0.4949936000048183,-38.0
17,lzb,f,19,r,2,(-121.76378772032352, -121.76378772032348),26,25,4,yes,x,5,x,0.510514499997953,1,87,test1,2,0.5106780000060098,-20.0
17,lzb,f,19,r,2,(-121.76378772032348, 121.76378772032349),24,-7,13,yes,x,5,x,0.49493279999296647,1,88,test1,2,0.4950725000089733,-52.0
17,lzb,f,19,r,2,(-3.163262682197613e-14, -172.20000000000002),27,5,2,no,m,6,m,0.7466255000035744,1,89,test1,2,0.7467518000048585,-52.0
17,lzb,f,19,r,2,(-3.163262682197613e-14, -172.20000000000002),27,-7,13,yes,x,5,x,0.582456899996032,1,90,test1,2,0.5825540999940131,-52.0
17,lzb,f,19,r,2,(121.76378772032346, -121.76378772032352),28,-25,14,yes,x,5,x,0.579569099994842,1,91,test1,2,0.5796667999966303,-70.0
17,lzb,f,19,r,2,(121.76378772032349, 121.76378772032349),22,3,1,no,m,6,x,0.7305477000045357,0,92,test1,2,0.7307744999998249,-70.0
17,lzb,f,19,r,2,(-3.163262682197613e-14, -172.20000000000002),27,7,3,no,m,6,m,0.8033086000068579,1,93,test1,2,0.803550600001472,-70.0
17,lzb,f,19,r,2,(-172.20000000000002, 2.1088417881317425e-14),25,25,4,yes,x,5,x,0.43185610001091845,1,94,test1,2,0.4324740000010934,-20.0
17,lzb,f,19,r,2,(121.76378772032349, 121.76378772032349),22,-25,14,yes,x,5,x,0.407839999999851,1,95,test1,2,0.40819710001233034,-70.0
17,lzb,f,19,r,2,(-121.76378772032352, -121.76378772032348),26,-5,12,no,m,6,m,0.7378845000057481,1,96,test1,2,0.7380293000023812,-70.0
17,lzb,f,19,r,2,(-172.20000000000002, 2.1088417881317425e-14),25,-5,12,yes,x,5,x,0.5704429999896092,1,1,test2,2,0.5705425000051036,-50.0
17,lzb,f,19,r,2,(121.76378772032349, 121.76378772032349),22,25,4,yes,x,5,x,0.5017866999987746,1,2,test2,2,0.5018987999937963,-20.0
17,lzb,f,19,r,2,(-121.76378772032352, -121.76378772032348),26,5,2,yes,x,5,x,0.46816150000086054,1,3,test2,2,0.4682577999919886,-40.0
17,lzb,f,19,r,2,(1.0544208940658713e-14, 172.20000000000002),23,-25,14,no,m,6,m,0.8603761999984272,1,4,test2,2,0.8605285000085132,-40.0
17,lzb,f,19,r,2,(-121.76378772032352, -121.76378772032348),26,-3,11,no,m,6,m,0.6300861000054283,1,5,test2,2,0.6303737999987788,-40.0
17,lzb,f,19,r,2,(172.20000000000002, 0.0),21,-25,14,yes,x,5,x,0.4008395999990171,1,6,test2,2,0.40124560000549536,-70.0
17,lzb,f,19,r,2,(121.76378772032349, 121.76378772032349),22,3,1,yes,x,5,m,0.5690089999989141,0,7,test2,2,0.5691078999952879,-42.0
17,lzb,f,19,r,2,(172.20000000000002, 0.0),21,-5,12,no,m,6,m,0.9054873999994015,1,8,test2,2,0.9056916000117781,-42.0
17,lzb,f,19,r,2,(121.76378772032346, -121.76378772032352),28,25,4,yes,x,5,x,0.46626020000257995,1,9,test2,2,0.4669235000037588,-20.0
17,lzb,f,19,r,2,(-3.163262682197613e-14, -172.20000000000002),27,-25,14,no,m,6,m,0.7679216999968048,1,10,test2,2,0.768585100013297,-20.0
17,lzb,f,19,r,2,(172.20000000000002, 0.0),21,5,2,no,m,6,m,0.8117630000051577,1,11,test2,2,0.811862899994594,-20.0
17,lzb,f,19,r,2,(-121.76378772032348, 121.76378772032349),24,7,3,yes,x,5,x,0.5823135999962687,1,12,test2,2,0.582549900005688,-38.0
17,lzb,f,19,r,2,(-121.76378772032352, -121.76378772032348),26,7,3,yes,x,5,x,0.49158050000551157,1,13,test2,2,0.4923123000044143,-38.0
17,lzb,f,19,r,2,(121.76378772032349, 121.76378772032349),22,3,1,yes,x,5,m,0.6184588999894913,0,14,test2,2,0.6186063000059221,-42.0
17,lzb,f,19,r,2,(172.20000000000002, 0.0),21,25,4,yes,x,5,x,0.6265764999989187,1,15,test2,2,0.6271934999967925,-20.0
17,lzb,f,19,r,2,(121.76378772032349, 121.76378772032349),22,7,3,yes,x,5,x,0.6188101000007009,1,16,test2,2,0.6189988999976777,-38.0
17,lzb,f,19,r,2,(121.76378772032346, -121.76378772032352),28,25,4,yes,x,5,x,0.5391564000019571,1,17,test2,2,0.5396641999977874,-20.0
17,lzb,f,19,r,2,(121.76378772032349, 121.76378772032349),22,-25,14,yes,x,5,x,0.570055100004538,1,18,test2,2,0.5703458000061801,-70.0
17,lzb,f,19,r,2,(-121.76378772032348, 121.76378772032349),24,25,4,yes,x,5,x,0.4991752999922028,1,19,test2,2,0.4996654000133276,-20.0
17,lzb,f,19,r,2,(-3.163262682197613e-14, -172.20000000000002),27,25,4,yes,x,5,x,0.46843819999776315,1,20,test2,2,0.4687303999962751,-20.0
17,lzb,f,19,r,2,(121.76378772032349, 121.76378772032349),22,-5,12,yes,x,5,x,0.42158239999844227,1,21,test2,2,0.42172779999964405,-50.0
17,lzb,f,19,r,2,(-121.76378772032348, 121.76378772032349),24,-5,12,yes,x,5,x,0.4590959000051953,1,22,test2,2,0.4593880000029458,-50.0
17,lzb,f,19,r,2,(-172.20000000000002, 2.1088417881317425e-14),25,-7,13,yes,x,5,x,0.3937496999860741,1,23,test2,2,0.3938532999891322,-52.0
17,lzb,f,19,r,2,(121.76378772032346, -121.76378772032352),28,5,2,yes,x,5,x,0.6180908999958774,1,24,test2,2,0.618406399997184,-40.0
17,lzb,f,19,r,2,(-121.76378772032348, 121.76378772032349),24,-25,14,yes,x,5,x,0.524919300005422,1,25,test2,2,0.5253631000086898,-70.0
17,lzb,f,19,r,2,(-121.76378772032348, 121.76378772032349),24,-5,12,no,m,6,x,0.9060488999966765,0,26,test2,2,0.9062962000025436,-70.0
17,lzb,f,19,r,2,(121.76378772032346, -121.76378772032352),28,5,2,yes,x,5,x,0.7762057000072673,1,27,test2,2,0.7763114999979734,-40.0
17,lzb,f,19,r,2,(-121.76378772032348, 121.76378772032349),24,-5,12,yes,x,5,x,0.4859788999892771,1,28,test2,2,0.4862222999945516,-50.0
17,lzb,f,19,r,2,(1.0544208940658713e-14, 172.20000000000002),23,7,3,no,m,6,m,0.7105776000098558,1,29,test2,2,0.7109010999993188,-50.0
17,lzb,f,19,r,2,(-172.20000000000002, 2.1088417881317425e-14),25,3,1,yes,x,5,x,0.6176107999926899,1,30,test2,2,0.6177269000036176,-42.0
17,lzb,f,19,r,2,(172.20000000000002, 0.0),21,7,3,yes,x,5,x,0.5064693000022089,1,31,test2,2,0.5065699999977369,-38.0
17,lzb,f,19,r,2,(-3.163262682197613e-14, -172.20000000000002),27,25,4,yes,x,5,x,0.5284494000079576,1,32,test2,2,0.5287824999977602,-20.0
17,lzb,f,19,r,2,(172.20000000000002, 0.0),21,-7,13,yes,x,5,x,0.4518081999995047,1,33,test2,2,0.4519714999914868,-52.0
17,lzb,f,19,r,2,(-3.163262682197613e-14, -172.20000000000002),27,3,1,yes,x,5,x,0.3972035000042524,1,34,test2,2,0.3973480999993626,-42.0
17,lzb,f,19,r,2,(121.76378772032349, 121.76378772032349),22,5,2,no,m,6,m,0.8621491999947466,1,35,test2,2,0.8622476000018651,-42.0
17,lzb,f,19,r,2,(-172.20000000000002, 2.1088417881317425e-14),25,3,1,no,m,6,m,0.6689337999996496,1,36,test2,2,0.6692288000049302,-42.0
17,lzb,f,19,r,2,(-172.20000000000002, 2.1088417881317425e-14),25,-3,11,yes,x,5,x,0.6957079999992857,1,37,test2,2,0.6960246999951778,-48.0
17,lzb,f,19,r,2,(121.76378772032349, 121.76378772032349),22,-7,13,yes,x,5,x,0.5394501999981003,1,38,test2,2,0.5395551000110572,-52.0
17,lzb,f,19,r,2,(172.20000000000002, 0.0),21,-3,11,no,m,6,m,0.7787608999933582,1,39,test2,2,0.7793296999880113,-52.0
17,lzb,f,19,r,2,(1.0544208940658713e-14, 172.20000000000002),23,-25,14,yes,x,5,x,0.5139292000094429,1,40,test2,2,0.5143415000056848,-70.0
17,lzb,f,19,r,2,(-121.76378772032348, 121.76378772032349),24,3,1,no,m,6,m,0.7229010000010021,1,41,test2,2,0.7233293999888701,-70.0
17,lzb,f,19,r,2,(-3.163262682197613e-14, -172.20000000000002),27,3,1,no,m,6,m,0.7873115000111284,1,42,test2,2,0.7876146000053268,-70.0
17,lzb,f,19,r,2,(121.76378772032349, 121.76378772032349),22,7,3,yes,x,5,x,0.7076194999972358,1,43,test2,2,0.7079132000071695,-38.0
17,lzb,f,19,r,2,(172.20000000000002, 0.0),21,25,4,no,m,6,m,0.7475485999893863,1,44,test2,2,0.7476746999891475,-38.0
17,lzb,f,19,r,2,(-3.163262682197613e-14, -172.20000000000002),27,7,3,yes,x,5,x,0.5110286000126507,1,45,test2,2,0.511147199998959,-38.0
17,lzb,f,19,r,2,(121.76378772032346, -121.76378772032352),28,-5,12,yes,x,5,x,0.7365148999961093,1,46,test2,2,0.7366373999975622,-50.0
17,lzb,f,19,r,2,(-172.20000000000002, 2.1088417881317425e-14),25,25,4,no,m,6,m,0.734814199997345,1,47,test2,2,0.7352451000042493,-50.0
17,lzb,f,19,r,2,(121.76378772032349, 121.76378772032349),22,-25,14,no,m,6,m,1.0110610999981873,1,48,test2,2,1.0111941000068327,-50.0
17,lzb,f,19,r,2,(121.76378772032349, 121.76378772032349),22,5,2,yes,x,5,x,0.8471999000030337,1,49,test2,2,0.8473003999970388,-40.0
17,lzb,f,19,r,2,(172.20000000000002, 0.0),21,-7,13,no,m,6,m,0.7715019000024768,1,50,test2,2,0.7716023999964818,-40.0
17,lzb,f,19,r,2,(-121.76378772032352, -121.76378772032348),26,7,3,yes,x,5,x,0.4864367999980459,1,51,test2,2,0.4868836000096053,-38.0
17,lzb,f,19,r,2,(172.20000000000002, 0.0),21,25,4,yes,x,5,x,0.45285230000445154,1,52,test2,2,0.4529642999987118,-20.0
17,lzb,f,19,r,2,(121.76378772032349, 121.76378772032349),22,-3,11,no,m,6,m,0.7200185999972746,1,53,test2,2,0.7201689000066835,-20.0
17,lzb,f,19,r,2,(-3.163262682197613e-14, -172.20000000000002),27,3,1,yes,x,5,x,0.9471102000097744,1,54,test2,2,0.9473433000093792,-42.0
17,lzb,f,19,r,2,(121.76378772032346, -121.76378772032352),28,-3,11,yes,x,5,x,0.91081440000562,1,55,test2,2,0.9112075000011828,-48.0
17,lzb,f,19,r,2,(-3.163262682197613e-14, -172.20000000000002),27,25,4,no,m,6,m,0.8019925999979023,1,56,test2,2,0.8021548999968218,-48.0
17,lzb,f,19,r,2,(121.76378772032349, 121.76378772032349),22,-3,11,yes,x,5,x,0.8675366999959806,1,57,test2,2,0.8677235999930417,-48.0
17,lzb,f,19,r,2,(1.0544208940658713e-14, 172.20000000000002),23,-5,12,yes,x,5,x,0.6234285999962594,1,58,test2,2,0.6236669000063557,-50.0
17,lzb,f,19,r,2,(-172.20000000000002, 2.1088417881317425e-14),25,-5,12,yes,x,5,x,0.6747357999993255,1,59,test2,2,0.675317899993388,-50.0
17,lzb,f,19,r,2,(-3.163262682197613e-14, -172.20000000000002),27,-5,12,yes,x,5,x,0.5624638000008417,1,60,test2,2,0.5627664999919944,-50.0
17,lzb,f,19,r,2,(-121.76378772032348, 121.76378772032349),24,-3,11,yes,x,5,x,0.6382633999892278,1,61,test2,2,0.6385594999883324,-48.0
17,lzb,f,19,r,2,(121.76378772032346, -121.76378772032352),28,3,1,no,m,6,m,0.88269020000007,1,62,test2,2,0.8832879999972647,-48.0
17,lzb,f,19,r,2,(1.0544208940658713e-14, 172.20000000000002),23,25,4,yes,x,5,x,0.48690109999733977,1,63,test2,2,0.48702960000082385,-20.0
17,lzb,f,19,r,2,(121.76378772032346, -121.76378772032352),28,-5,12,yes,x,5,x,0.8915449000051012,1,64,test2,2,0.8917599000124028,-50.0
17,lzb,f,19,r,2,(-121.76378772032352, -121.76378772032348),26,-3,11,yes,x,5,m,1.103052199992817,0,65,test2,2,1.1031560999981593,-48.0
17,lzb,f,19,r,2,(172.20000000000002, 0.0),21,7,3,no,m,6,m,0.9081183000089368,1,66,test2,2,0.9082616000087,-48.0
17,lzb,f,19,r,2,(172.20000000000002, 0.0),21,-25,14,no,m,6,m,0.7979187999881105,1,67,test2,2,0.7981512999976985,-48.0
17,lzb,f,19,r,2,(121.76378772032346, -121.76378772032352),28,-7,13,yes,x,5,x,0.512541499992949,1,68,test2,2,0.512672199998633,-52.0
17,lzb,f,19,r,2,(-172.20000000000002, 2.1088417881317425e-14),25,-25,14,yes,x,5,x,0.5069506999861915,1,69,test2,2,0.5071582999953534,-70.0
17,lzb,f,19,r,2,(-121.76378772032348, 121.76378772032349),24,-7,13,no,m,6,m,0.9561972999945283,1,70,test2,2,0.9563537999929395,-70.0
17,lzb,f,19,r,2,(172.20000000000002, 0.0),21,-3,11,yes,x,5,x,0.7750994000089122,1,71,test2,2,0.7751977000007173,-48.0
17,lzb,f,19,r,2,(-121.76378772032352, -121.76378772032348),26,25,4,no,m,6,m,0.7381158000061987,1,72,test2,2,0.7383382999978494,-48.0
17,lzb,f,19,r,2,(-121.76378772032348, 121.76378772032349),24,25,4,no,m,6,x,0.885080599997309,0,73,test2,2,0.8852009999973234,-48.0
17,lzb,f,19,r,2,(1.0544208940658713e-14, 172.20000000000002),23,-5,12,no,m,6,m,0.8891578999900958,1,74,test2,2,0.8893943000002764,-48.0
17,lzb,f,19,r,2,(121.76378772032349, 121.76378772032349),22,7,3,no,m,6,m,0.8488804999942658,1,75,test2,2,0.849041199995554,-48.0
17,lzb,f,19,r,2,(-121.76378772032352, -121.76378772032348),26,3,1,yes,x,5,x,0.7362102999904891,1,76,test2,2,0.7363113999890629,-42.0
17,lzb,f,19,r,2,(172.20000000000002, 0.0),21,-5,12,yes,x,5,x,0.5768477999954484,1,77,test2,2,0.5769468999933451,-50.0
17,lzb,f,19,r,2,(-121.76378772032352, -121.76378772032348),26,-7,13,yes,x,5,x,0.4449848999938695,1,78,test2,2,0.4452393999963533,-52.0
17,lzb,f,19,r,2,(-121.76378772032352, -121.76378772032348),26,-5,12,yes,x,5,x,0.5315905000024941,1,79,test2,2,0.5318127999926219,-50.0
17,lzb,f,19,r,2,(-121.76378772032352, -121.76378772032348),26,3,1,no,m,6,m,0.912133999998332,1,80,test2,2,0.9127367000037339,-50.0
17,lzb,f,19,r,2,(-121.76378772032348, 121.76378772032349),24,3,1,yes,x,5,x,1.0351590999925975,1,81,test2,2,1.036122899997281,-42.0
17,lzb,f,19,r,2,(1.0544208940658713e-14, 172.20000000000002),23,-3,11,yes,x,5,x,0.7556175999925472,1,82,test2,2,0.7557341000065207,-48.0
17,lzb,f,19,r,2,(-121.76378772032352, -121.76378772032348),26,-7,13,no,m,6,x,0.72430849999364,0,83,test2,2,0.724541000003228,-48.0
17,lzb,f,19,r,2,(121.76378772032346, -121.76378772032352),28,25,4,no,m,6,m,0.9264818999945419,1,84,test2,2,0.9269477000052575,-48.0
17,lzb,f,19,r,2,(172.20000000000002, 0.0),21,-25,14,yes,x,5,x,0.51790279999841,1,85,test2,2,0.5181295000074897,-70.0
17,lzb,f,19,r,2,(-3.163262682197613e-14, -172.20000000000002),27,-3,11,no,m,6,m,0.8471120999893174,1,86,test2,2,0.8474927999923239,-70.0
17,lzb,f,19,r,2,(1.0544208940658713e-14, 172.20000000000002),23,5,2,yes,x,5,x,0.46077770000556484,1,87,test2,2,0.46127179999893997,-40.0
17,lzb,f,19,r,2,(-121.76378772032348, 121.76378772032349),24,7,3,yes,x,5,x,0.5742250000039348,1,88,test2,2,0.5743568999896524,-38.0
17,lzb,f,19,r,2,(-121.76378772032352, -121.76378772032348),26,5,2,no,m,6,m,0.8001768000103766,1,89,test2,2,0.8004804999945918,-38.0
17,lzb,f,19,r,2,(-3.163262682197613e-14, -172.20000000000002),27,-25,14,yes,x,5,x,0.509158100001514,1,90,test2,2,0.5092573000001721,-70.0
17,lzb,f,19,r,2,(-121.76378772032348, 121.76378772032349),24,5,2,yes,x,5,x,0.58132110000588,1,91,test2,2,0.5814336000039475,-40.0
17,lzb,f,19,r,2,(-172.20000000000002, 2.1088417881317425e-14),25,5,2,no,m,6,m,1.1259523000044283,1,92,test2,2,1.1267973999929382,-40.0
17,lzb,f,19,r,2,(-121.76378772032352, -121.76378772032348),26,-5,12,yes,x,5,x,0.5392500000016298,1,93,test2,2,0.5395025000034366,-50.0
17,lzb,f,19,r,2,(-172.20000000000002, 2.1088417881317425e-14),25,25,4,yes,x,5,x,0.39797010000620503,1,94,test2,2,0.3984372999984771,-20.0
17,lzb,f,19,r,2,(121.76378772032346, -121.76378772032352),28,-7,13,no,m,6,m,0.8738517000019783,1,95,test2,2,0.8742658999981359,-20.0
17,lzb,f,19,r,2,(172.20000000000002, 0.0),21,5,2,yes,x,5,x,0.5141733000054955,1,96,test2,2,0.5145582999975886,-40.0
17,lzb,f,19,r,2,(-121.76378772032348, 121.76378772032349),24,5,2,yes,x,5,x,0.9768914000014775,1,1,test1,3,0.977494899998419,-40.0
17,lzb,f,19,r,2,(-121.76378772032348, 121.76378772032349),24,-3,11,no,m,6,m,0.8372710999974515,1,2,test1,3,0.8375425999984145,-40.0
17,lzb,f,19,r,2,(-121.76378772032352, -121.76378772032348),26,7,3,no,m,6,x,1.1124211999995168,0,3,test1,3,1.1125623999978416,-40.0
17,lzb,f,19,r,2,(-172.20000000000002, 2.1088417881317425e-14),25,-5,12,no,m,6,m,0.8753906000056304,1,4,test1,3,0.8756236000044737,-40.0
17,lzb,f,19,r,2,(121.76378772032346, -121.76378772032352),28,7,3,yes,x,5,x,0.5828651000047103,1,5,test1,3,0.5832454999908805,-38.0
17,lzb,f,19,r,2,(-172.20000000000002, 2.1088417881317425e-14),25,7,3,yes,x,5,x,0.6122392000106629,1,6,test1,3,0.6123735000001034,-38.0
17,lzb,f,19,r,2,(121.76378772032346, -121.76378772032352),28,-3,11,no,m,6,m,0.740551000009873,1,7,test1,3,0.740956699999515,-38.0
17,lzb,f,19,r,2,(-121.76378772032348, 121.76378772032349),24,5,2,no,m,6,m,1.053184100004728,1,8,test1,3,1.0533890999940922,-38.0
17,lzb,f,19,r,2,(121.76378772032346, -121.76378772032352),28,3,1,yes,x,5,x,0.7953448999905959,1,9,test1,3,0.795695800014073,-42.0
17,lzb,f,19,r,2,(-3.163262682197613e-14, -172.20000000000002),27,-5,12,no,m,6,m,0.9687547000066843,1,10,test1,3,0.968911100004334,-42.0
17,lzb,f,19,r,2,(-172.20000000000002, 2.1088417881317425e-14),25,-3,11,yes,x,5,x,0.6455776000075275,1,11,test1,3,0.6462707000027876,-48.0
17,lzb,f,19,r,2,(121.76378772032349, 121.76378772032349),22,-5,12,no,m,6,m,1.0602253999968525,1,12,test1,3,1.0603524000034668,-48.0
17,lzb,f,19,r,2,(-3.163262682197613e-14, -172.20000000000002),27,-3,11,yes,x,5,x,0.6927369999903021,1,13,test1,3,0.6928404000063892,-48.0
17,lzb,f,19,r,2,(1.0544208940658713e-14, 172.20000000000002),23,7,3,yes,x,5,x,0.5968602999928407,1,14,test1,3,0.5970247999939602,-38.0
17,lzb,f,19,r,2,(-121.76378772032352, -121.76378772032348),26,5,2,yes,x,5,x,0.7708271999872522,1,15,test1,3,0.7709945999959018,-40.0
17,lzb,f,19,r,2,(1.0544208940658713e-14, 172.20000000000002),23,-7,13,yes,x,5,x,0.6369662999932189,1,16,test1,3,0.637257900001714,-52.0
17,lzb,f,19,r,2,(-172.20000000000002, 2.1088417881317425e-14),25,-25,14,yes,x,5,x,0.47017200000118464,1,17,test1,3,0.47073939999972936,-70.0
17,lzb,f,19,r,2,(1.0544208940658713e-14, 172.20000000000002),23,3,1,no,m,6,m,1.214078699995298,1,18,test1,3,1.2143351999984588,-70.0
17,lzb,f,19,r,2,(121.76378772032349, 121.76378772032349),22,25,4,yes,x,5,x,0.4976282999996329,1,19,test1,3,0.4978661000059219,-20.0
17,lzb,f,19,r,2,(1.0544208940658713e-14, 172.20000000000002),23,3,1,yes,x,5,x,0.5503753000084544,1,20,test1,3,0.5504935999924783,-42.0
17,lzb,f,19,r,2,(-121.76378772032352, -121.76378772032348),26,-7,13,yes,x,5,x,0.47755520000646356,1,21,test1,3,0.47822970000561327,-52.0
17,lzb,f,19,r,2,(1.0544208940658713e-14, 172.20000000000002),23,5,2,no,m,6,x,0.45389580000482965,0,22,test1,3,0.45419469999615103,-52.0
17,lzb,f,19,r,2,(121.76378772032349, 121.76378772032349),22,-5,12,yes,x,5,x,0.5880209000024479,1,23,test1,3,0.5883032999990974,-50.0
17,lzb,f,19,r,2,(-121.76378772032348, 121.76378772032349),24,-7,13,yes,x,5,x,0.4723722000053385,1,24,test1,3,0.4725921999925049,-52.0
17,lzb,f,19,r,2,(-3.163262682197613e-14, -172.20000000000002),27,-25,14,yes,x,5,x,0.439327999993111,1,25,test1,3,0.43942450000031386,-70.0
17,lzb,f,19,r,2,(1.0544208940658713e-14, 172.20000000000002),23,5,2,yes,x,5,x,0.465120000008028,1,26,test1,3,0.4657989999977872,-40.0
17,lzb,f,19,r,2,(172.20000000000002, 0.0),21,3,1,no,m,6,m,0.7549168999976246,1,27,test1,3,0.7551072999922326,-40.0
17,lzb,f,19,r,2,(-121.76378772032348, 121.76378772032349),24,-3,11,yes,x,5,x,1.0683437999978196,1,28,test1,3,1.0686256000044523,-48.0
17,lzb,f,19,r,2,(-172.20000000000002, 2.1088417881317425e-14),25,3,1,yes,x,5,x,0.6192969999974594,1,29,test1,3,0.6194001000112621,-42.0
17,lzb,f,19,r,2,(-172.20000000000002, 2.1088417881317425e-14),25,-7,13,no,m,6,m,0.7508062999986578,1,30,test1,3,0.7509428000048501,-42.0
17,lzb,f,19,r,2,(121.76378772032349, 121.76378772032349),22,-7,13,no,m,6,m,0.8219336000038311,1,31,test1,3,0.8220995000010589,-42.0
17,lzb,f,19,r,2,(1.0544208940658713e-14, 172.20000000000002),23,7,3,yes,x,5,x,0.5271283999900334,1,32,test1,3,0.5272597000002861,-38.0
17,lzb,f,19,r,2,(121.76378772032346, -121.76378772032352),28,-25,14,no,m,6,x,0.6623428000020795,0,33,test1,3,0.6625720000010915,-38.0
17,lzb,f,19,r,2,(-121.76378772032352, -121.76378772032348),26,3,1,yes,x,5,x,1.0783387999981642,1,34,test1,3,1.0787255000032019,-42.0
17,lzb,f,19,r,2,(-3.163262682197613e-14, -172.20000000000002),27,5,2,yes,x,5,x,0.6224615999963135,1,35,test1,3,0.6225601000041934,-40.0
17,lzb,f,19,r,2,(-121.76378772032348, 121.76378772032349),24,-25,14,no,m,6,m,0.7934918999962974,1,36,test1,3,0.7936365999921691,-40.0
17,lzb,f,19,r,2,(-121.76378772032352, -121.76378772032348),26,-25,14,yes,x,5,x,0.4656247999955667,1,37,test1,3,0.46575899999879766,-70.0
17,lzb,f,19,r,2,(-172.20000000000002, 2.1088417881317425e-14),25,5,2,yes,x,5,x,0.46740259999933187,1,38,test1,3,0.46765469999809284,-40.0
17,lzb,f,19,r,2,(-172.20000000000002, 2.1088417881317425e-14),25,7,3,no,m,6,x,0.5298155999917071,0,39,test1,3,0.530261399995652,-40.0
17,lzb,f,19,r,2,(121.76378772032346, -121.76378772032352),28,7,3,yes,x,5,x,0.6765861999883782,1,40,test1,3,0.6767644999927143,-38.0
17,lzb,f,19,r,2,(172.20000000000002, 0.0),21,3,1,yes,x,5,x,0.8906711000017822,1,41,test1,3,0.890767799995956,-42.0
17,lzb,f,19,r,2,(121.76378772032346, -121.76378772032352),28,-5,12,no,m,6,m,1.1421110999945085,1,42,test1,3,1.1422102999931667,-42.0
17,lzb,f,19,r,2,(121.76378772032346, -121.76378772032352),28,-7,13,yes,x,5,x,0.5788639999955194,1,43,test1,3,0.5790697999909753,-52.0
17,lzb,f,19,r,2,(1.0544208940658713e-14, 172.20000000000002),23,-3,11,no,m,6,m,1.003282700010459,1,44,test1,3,1.0034949000109918,-52.0
17,lzb,f,19,r,2,(172.20000000000002, 0.0),21,-3,11,yes,x,5,x,0.6490592000045581,1,45,test1,3,0.6497166000044672,-48.0
17,lzb,f,19,r,2,(1.0544208940658713e-14, 172.20000000000002),23,-25,14,yes,x,5,x,0.5054070000041975,1,46,test1,3,0.5056671000056667,-70.0
17,lzb,f,19,r,2,(121.76378772032349, 121.76378772032349),22,-3,11,yes,x,5,x,0.6924838999984786,1,47,test1,3,0.6926222000038251,-48.0
17,lzb,f,19,r,2,(-3.163262682197613e-14, -172.20000000000002),27,-7,13,yes,x,5,x,0.623741900009918,1,48,test1,3,0.62384810000367,-52.0
17,lzb,f,19,r,2,(172.20000000000002, 0.0),21,-5,12,yes,x,5,x,0.6589663999911863,1,49,test1,3,0.6590662999951746,-50.0
17,lzb,f,19,r,2,(-3.163262682197613e-14, -172.20000000000002),27,7,3,yes,x,5,x,0.5250008000002708,1,50,test1,3,0.525133500006632,-38.0
17,lzb,f,19,r,2,(-121.76378772032348, 121.76378772032349),24,3,1,yes,x,5,x,0.785311499988893,1,51,test1,3,0.7857574999943608,-42.0
17,lzb,f,19,r,2,(-172.20000000000002, 2.1088417881317425e-14),25,-3,11,no,m,6,m,0.9293336999980966,1,52,test1,3,0.9294341000058921,-42.0
17,lzb,f,19,r,2,(-3.163262682197613e-14, -172.20000000000002),27,-5,12,yes,x,5,x,0.5717328000027919,1,53,test1,3,0.5720275999919977,-50.0
17,lzb,f,19,r,2,(121.76378772032346, -121.76378772032352),28,5,2,no,m,6,m,0.7497991999989608,1,54,test1,3,0.7504681999998866,-50.0
17,lzb,f,19,r,2,(121.76378772032349, 121.76378772032349),22,25,4,no,m,6,x,0.8568685999925947,0,55,test1,3,0.8569698000064818,-50.0
17,lzb,f,19,r,2,(1.0544208940658713e-14, 172.20000000000002),23,-7,13,no,m,6,m,0.816195899999002,1,56,test1,3,0.8164292000001296,-50.0
17,lzb,f,19,r,2,(121.76378772032349, 121.76378772032349),22,-7,13,yes,x,5,x,0.5295361000025878,1,57,test1,3,0.5296505000005709,-52.0
17,lzb,f,19,r,2,(121.76378772032346, -121.76378772032352),28,7,3,no,m,6,m,0.9684087000059662,1,58,test1,3,0.9687452999933157,-52.0
17,lzb,f,19,r,2,(-3.163262682197613e-14, -172.20000000000002),27,-7,13,no,m,6,m,0.972175300004892,1,59,test1,3,0.9722744000027888,-52.0
17,lzb,f,19,r,2,(172.20000000000002, 0.0),21,-7,13,yes,x,5,x,0.5769202999945264,1,60,test1,3,0.5771268000098644,-52.0
17,lzb,f,19,r,2,(-121.76378772032348, 121.76378772032349),24,25,4,yes,x,5,x,0.6242379000032088,1,61,test1,3,0.6244715000066208,-20.0
17,lzb,f,19,r,2,(121.76378772032349, 121.76378772032349),22,5,2,yes,x,5,x,0.7049918999982765,1,62,test1,3,0.7052874999935739,-40.0
17,lzb,f,19,r,2,(121.76378772032346, -121.76378772032352),28,-3,11,yes,x,5,x,0.9398922999971546,1,63,test1,3,0.9400258999958169,-48.0
17,lzb,f,19,r,2,(-3.163262682197613e-14, -172.20000000000002),27,-3,11,yes,x,5,m,0.9542641000007279,0,64,test1,3,0.9551695999980439,-48.0
17,lzb,f,19,r,2,(-121.76378772032352, -121.76378772032348),26,-25,14,no,m,6,m,0.9630437000014354,1,65,test1,3,0.9631736000010278,-48.0
17,lzb,f,19,r,2,(1.0544208940658713e-14, 172.20000000000002),23,-7,13,yes,x,5,x,0.48429949999263044,1,66,test1,3,0.484685499992338,-52.0
17,lzb,f,19,r,2,(1.0544208940658713e-14, 172.20000000000002),23,25,4,no,m,6,m,0.8957757000025595,1,67,test1,3,0.8962492999999085,-52.0
17,lzb,f,19,r,2,(1.0544208940658713e-14, 172.20000000000002),23,-5,12,yes,x,5,x,0.6628364000061993,1,68,test1,3,0.6629678000026615,-50.0
17,lzb,f,19,r,2,(121.76378772032346, -121.76378772032352),28,-25,14,yes,x,5,x,0.6362602000008337,1,69,test1,3,0.6369830000039656,-70.0
17,lzb,f,19,r,2,(1.0544208940658713e-14, 172.20000000000002),23,3,1,yes,x,5,x,0.5405207000003429,1,70,test1,3,0.540855700004613,-42.0
17,lzb,f,19,r,2,(1.0544208940658713e-14, 172.20000000000002),23,-3,11,yes,x,5,x,0.6327621000091312,1,71,test1,3,0.6329225999943446,-48.0
17,lzb,f,19,r,2,(-121.76378772032352, -121.76378772032348),26,-3,11,yes,x,5,x,0.8527365999907488,1,72,test1,3,0.8528356999886455,-48.0
17,lzb,f,19,r,2,(-121.76378772032352, -121.76378772032348),26,25,4,yes,x,5,x,0.5005884999991395,1,73,test1,3,0.5009200000058627,-20.0
17,lzb,f,19,r,2,(1.0544208940658713e-14, 172.20000000000002),23,25,4,yes,x,5,x,0.43233690000488423,1,74,test1,3,0.4324417000025278,-20.0
17,lzb,f,19,r,2,(-172.20000000000002, 2.1088417881317425e-14),25,5,2,yes,x,5,x,0.4935174999991432,1,75,test1,3,0.4937272000097437,-40.0
17,lzb,f,19,r,2,(-121.76378772032352, -121.76378772032348),26,-25,14,yes,x,5,x,0.4725939999916591,1,76,test1,3,0.4727478999993764,-70.0
17,lzb,f,19,r,2,(-172.20000000000002, 2.1088417881317425e-14),25,-25,14,no,m,6,m,0.843095500007621,1,77,test1,3,0.8432280999986688,-70.0
17,lzb,f,19,r,2,(172.20000000000002, 0.0),21,5,2,yes,x,5,x,0.7078236999950605,1,78,test1,3,0.7080417999968631,-40.0
17,lzb,f,19,r,2,(172.20000000000002, 0.0),21,7,3,yes,x,5,x,0.7341253999911714,1,79,test1,3,0.7342269000073429,-38.0
17,lzb,f,19,r,2,(-121.76378772032348, 121.76378772032349),24,-25,14,yes,x,5,x,0.43253120000008494,1,80,test1,3,0.43295770000258926,-70.0
17,lzb,f,19,r,2,(-121.76378772032348, 121.76378772032349),24,7,3,no,m,6,m,0.8426766000047792,1,81,test1,3,0.8428052999952342,-70.0
17,lzb,f,19,r,2,(121.76378772032346, -121.76378772032352),28,3,1,yes,x,5,x,0.8656883999938145,1,82,test1,3,0.865787899994757,-42.0
17,lzb,f,19,r,2,(-172.20000000000002, 2.1088417881317425e-14),25,-7,13,yes,x,5,x,0.5632125999982236,1,83,test1,3,0.5636262999905739,-52.0
17,lzb,f,19,r,2,(-3.163262682197613e-14, -172.20000000000002),27,5,2,yes,x,5,x,0.630190700001549,1,84,test1,3,0.6304718000028515,-40.0
17,lzb,f,19,r,2,(172.20000000000002, 0.0),21,3,1,yes,x,5,x,0.7937366000114707,1,85,test1,3,0.7943993999942904,-42.0
17,lzb,f,19,r,2,(-172.20000000000002, 2.1088417881317425e-14),25,7,3,yes,x,5,x,0.5421131999901263,1,86,test1,3,0.5422194999991916,-38.0
17,lzb,f,19,r,2,(-121.76378772032352, -121.76378772032348),26,25,4,yes,x,5,x,0.49597809999249876,1,87,test1,3,0.4963201999926241,-20.0
17,lzb,f,19,r,2,(-121.76378772032348, 121.76378772032349),24,-7,13,yes,x,5,x,0.5783009000006132,1,88,test1,3,0.5789368999976432,-52.0
17,lzb,f,19,r,2,(-3.163262682197613e-14, -172.20000000000002),27,5,2,no,m,6,m,0.857792700000573,1,89,test1,3,0.8582489999971585,-52.0
17,lzb,f,19,r,2,(-3.163262682197613e-14, -172.20000000000002),27,-7,13,yes,x,5,x,0.43512350000673905,1,90,test1,3,0.43538640000042506,-52.0
17,lzb,f,19,r,2,(121.76378772032346, -121.76378772032352),28,-25,14,yes,x,5,x,0.5643762999970932,1,91,test1,3,0.5645082000119146,-70.0
17,lzb,f,19,r,2,(121.76378772032349, 121.76378772032349),22,3,1,no,m,6,m,1.0318895999953384,1,92,test1,3,1.0319917000015266,-70.0
17,lzb,f,19,r,2,(-3.163262682197613e-14, -172.20000000000002),27,7,3,no,m,6,m,0.8245445000065956,1,93,test1,3,0.8247441999992589,-70.0
17,lzb,f,19,r,2,(-172.20000000000002, 2.1088417881317425e-14),25,25,4,yes,x,5,x,0.5029426999972202,1,94,test1,3,0.5032361000048695,-20.0
17,lzb,f,19,r,2,(121.76378772032349, 121.76378772032349),22,-25,14,yes,x,5,x,0.7746374999987893,1,95,test1,3,0.7747616999986349,-70.0
17,lzb,f,19,r,2,(-121.76378772032352, -121.76378772032348),26,-5,12,no,m,6,m,0.707512000008137,1,96,test1,3,0.7076628999930108,-70.0
17,lzb,f,19,r,2,(-172.20000000000002, 2.1088417881317425e-14),25,-5,12,yes,x,5,x,0.5799659000040265,1,1,test2,3,0.5803687000006903,-50.0
17,lzb,f,19,r,2,(121.76378772032349, 121.76378772032349),22,25,4,yes,x,5,x,0.5137598000001162,1,2,test2,3,0.514058800006751,-20.0
17,lzb,f,19,r,2,(-121.76378772032352, -121.76378772032348),26,5,2,yes,x,5,x,0.7007559000048786,1,3,test2,3,0.700886199992965,-40.0
17,lzb,f,19,r,2,(1.0544208940658713e-14, 172.20000000000002),23,-25,14,no,m,6,m,0.7267243000096641,1,4,test2,3,0.7271491999999853,-40.0
17,lzb,f,19,r,2,(-121.76378772032352, -121.76378772032348),26,-3,11,no,m,6,m,0.8430972000060137,1,5,test2,3,0.8434152000118047,-40.0
17,lzb,f,19,r,2,(172.20000000000002, 0.0),21,-25,14,yes,x,5,x,0.47516600000381004,1,6,test2,3,0.4752620999934152,-70.0
17,lzb,f,19,r,2,(121.76378772032349, 121.76378772032349),22,3,1,yes,x,5,x,0.7865891999972519,1,7,test2,3,0.7866919999942183,-42.0
17,lzb,f,19,r,2,(172.20000000000002, 0.0),21,-5,12,no,m,6,m,0.97145620000083,1,8,test2,3,0.9716753999964567,-42.0
17,lzb,f,19,r,2,(121.76378772032346, -121.76378772032352),28,25,4,yes,x,5,x,0.4627475000015693,1,9,test2,3,0.4633042000059504,-20.0
17,lzb,f,19,r,2,(-3.163262682197613e-14, -172.20000000000002),27,-25,14,no,m,6,m,0.8064141000068048,1,10,test2,3,0.8069252999994205,-20.0
17,lzb,f,19,r,2,(172.20000000000002, 0.0),21,5,2,no,m,6,m,0.7302663000009488,1,11,test2,3,0.7308620999974664,-20.0
17,lzb,f,19,r,2,(-121.76378772032348, 121.76378772032349),24,7,3,yes,x,5,x,0.5948386000090977,1,12,test2,3,0.5953969999973197,-38.0
17,lzb,f,19,r,2,(-121.76378772032352, -121.76378772032348),26,7,3,yes,x,5,x,0.6521267000061926,1,13,test2,3,0.6525665999943158,-38.0
17,lzb,f,19,r,2,(121.76378772032349, 121.76378772032349),22,3,1,yes,x,5,m,0.798852000007173,0,14,test2,3,0.7991079000057653,-42.0
17,lzb,f,19,r,2,(172.20000000000002, 0.0),21,25,4,yes,x,5,x,0.5085617000004277,1,15,test2,3,0.5087482999952044,-20.0
17,lzb,f,19,r,2,(121.76378772032349, 121.76378772032349),22,7,3,yes,x,5,x,0.6286628999951063,1,16,test2,3,0.6290263999981107,-38.0
17,lzb,f,19,r,2,(121.76378772032346, -121.76378772032352),28,25,4,yes,x,5,x,0.39931930000602733,1,17,test2,3,0.3994345999963116,-20.0
17,lzb,f,19,r,2,(121.76378772032349, 121.76378772032349),22,-25,14,yes,x,5,x,0.5233492999977898,1,18,test2,3,0.5234517999924719,-70.0
17,lzb,f,19,r,2,(-121.76378772032348, 121.76378772032349),24,25,4,yes,x,5,x,0.4494819999963511,1,19,test2,3,0.4497059999994235,-20.0
17,lzb,f,19,r,2,(-3.163262682197613e-14, -172.20000000000002),27,25,4,yes,x,5,x,0.5712028999987524,1,20,test2,3,0.571444099987275,-20.0
17,lzb,f,19,r,2,(121.76378772032349, 121.76378772032349),22,-5,12,yes,x,5,x,0.6982474999967963,1,21,test2,3,0.6983710999920731,-50.0
17,lzb,f,19,r,2,(-121.76378772032348, 121.76378772032349),24,-5,12,yes,x,5,x,0.6022874000045704,1,22,test2,3,0.6024900000047637,-50.0
17,lzb,f,19,r,2,(-172.20000000000002, 2.1088417881317425e-14),25,-7,13,yes,x,5,x,0.5466822000016691,1,23,test2,3,0.5471868000022369,-52.0
17,lzb,f,19,r,2,(121.76378772032346, -121.76378772032352),28,5,2,yes,x,5,x,0.6362744999933057,1,24,test2,3,0.6367308000044432,-40.0
17,lzb,f,19,r,2,(-121.76378772032348, 121.76378772032349),24,-25,14,yes,x,5,x,0.4134403999923961,1,25,test2,3,0.41368169999623206,-70.0
17,lzb,f,19,r,2,(-121.76378772032348, 121.76378772032349),24,-5,12,no,m,6,m,0.82977120000578,1,26,test2,3,0.829872999995132,-70.0
17,lzb,f,19,r,2,(121.76378772032346, -121.76378772032352),28,5,2,yes,x,5,x,0.6866600000066683,1,27,test2,3,0.6867964999983087,-40.0
17,lzb,f,19,r,2,(-121.76378772032348, 121.76378772032349),24,-5,12,yes,x,5,x,0.6025033999903826,1,28,test2,3,0.6026611999986926,-50.0
17,lzb,f,19,r,2,(1.0544208940658713e-14, 172.20000000000002),23,7,3,no,m,6,m,0.7885394000040833,1,29,test2,3,0.7887154000054579,-50.0
17,lzb,f,19,r,2,(-172.20000000000002, 2.1088417881317425e-14),25,3,1,yes,x,5,x,0.5681901000061771,1,30,test2,3,0.5684324000030756,-42.0
17,lzb,f,19,r,2,(172.20000000000002, 0.0),21,7,3,yes,x,5,x,0.5534499000059441,1,31,test2,3,0.5535478000092553,-38.0
17,lzb,f,19,r,2,(-3.163262682197613e-14, -172.20000000000002),27,25,4,yes,x,5,x,0.5360609000053955,1,32,test2,3,0.5365293999930145,-20.0
17,lzb,f,19,r,2,(172.20000000000002, 0.0),21,-7,13,yes,x,5,x,0.5665414999966742,1,33,test2,3,0.5666419999906793,-52.0
17,lzb,f,19,r,2,(-3.163262682197613e-14, -172.20000000000002),27,3,1,yes,x,5,x,1.057950799993705,1,34,test2,3,1.058483900007559,-42.0
17,lzb,f,19,r,2,(121.76378772032349, 121.76378772032349),22,5,2,no,m,6,m,0.7706552000017837,1,35,test2,3,0.7709013999992749,-42.0
17,lzb,f,19,r,2,(-172.20000000000002, 2.1088417881317425e-14),25,3,1,no,m,6,m,0.8136955999943893,1,36,test2,3,0.8138976000045659,-42.0
17,lzb,f,19,r,2,(-172.20000000000002, 2.1088417881317425e-14),25,-3,11,yes,x,5,x,0.6003344999917317,1,37,test2,3,0.6004637000005459,-48.0
17,lzb,f,19,r,2,(121.76378772032349, 121.76378772032349),22,-7,13,yes,x,5,x,0.6948727999988478,1,38,test2,3,0.6949989999993704,-52.0
17,lzb,f,19,r,2,(172.20000000000002, 0.0),21,-3,11,no,m,6,m,0.9951492999971379,1,39,test2,3,0.9954719000088517,-52.0
17,lzb,f,19,r,2,(1.0544208940658713e-14, 172.20000000000002),23,-25,14,yes,x,5,x,0.4055130999913672,1,40,test2,3,0.4057308999908855,-70.0
17,lzb,f,19,r,2,(-121.76378772032348, 121.76378772032349),24,3,1,no,m,6,m,0.6892630999936955,1,41,test2,3,0.6895089000026928,-70.0
17,lzb,f,19,r,2,(-3.163262682197613e-14, -172.20000000000002),27,3,1,no,m,6,m,0.7267830000055255,1,42,test2,3,0.7270608999970136,-70.0
17,lzb,f,19,r,2,(121.76378772032349, 121.76378772032349),22,7,3,yes,x,5,x,0.5455681000021286,1,43,test2,3,0.5458195999963209,-38.0
17,lzb,f,19,r,2,(172.20000000000002, 0.0),21,25,4,no,m,6,m,1.160238099997514,1,44,test2,3,1.1608517000131542,-38.0
17,lzb,f,19,r,2,(-3.163262682197613e-14, -172.20000000000002),27,7,3,yes,x,5,x,0.6350808999995934,1,45,test2,3,0.635318600005121,-38.0
17,lzb,f,19,r,2,(121.76378772032346, -121.76378772032352),28,-5,12,yes,x,5,x,0.6737816999957431,1,46,test2,3,0.6739541999995708,-50.0
17,lzb,f,19,r,2,(-172.20000000000002, 2.1088417881317425e-14),25,25,4,no,m,6,m,1.082491499997559,1,47,test2,3,1.0825915000023087,-50.0
17,lzb,f,19,r,2,(121.76378772032349, 121.76378772032349),22,-25,14,no,m,6,m,0.839714500005357,1,48,test2,3,0.839925399995991,-50.0
17,lzb,f,19,r,2,(121.76378772032349, 121.76378772032349),22,5,2,yes,x,5,x,0.5768408000003546,1,49,test2,3,0.5771565000031842,-40.0
17,lzb,f,19,r,2,(172.20000000000002, 0.0),21,-7,13,no,m,6,m,0.9512509000051068,1,50,test2,3,0.9514634000079241,-40.0
17,lzb,f,19,r,2,(-121.76378772032352, -121.76378772032348),26,7,3,yes,x,5,x,0.5027696000033757,1,51,test2,3,0.5028860999882454,-38.0
17,lzb,f,19,r,2,(172.20000000000002, 0.0),21,25,4,yes,x,5,x,0.4480280000134371,1,52,test2,3,0.44847799999115523,-20.0
17,lzb,f,19,r,2,(121.76378772032349, 121.76378772032349),22,-3,11,no,m,6,m,0.7195644000021275,1,53,test2,3,0.7198588000028394,-20.0
17,lzb,f,19,r,2,(-3.163262682197613e-14, -172.20000000000002),27,3,1,yes,x,5,x,1.1577976999979,1,54,test2,3,1.1582081999949878,-42.0
17,lzb,f,19,r,2,(121.76378772032346, -121.76378772032352),28,-3,11,yes,x,5,x,0.8735700999968685,1,55,test2,3,0.8736863999947673,-48.0
17,lzb,f,19,r,2,(-3.163262682197613e-14, -172.20000000000002),27,25,4,no,m,6,m,0.7638398999988567,1,56,test2,3,0.763937600000645,-48.0
17,lzb,f,19,r,2,(121.76378772032349, 121.76378772032349),22,-3,11,yes,x,5,x,0.7823784999927739,1,57,test2,3,0.783047599994461,-48.0
17,lzb,f,19,r,2,(1.0544208940658713e-14, 172.20000000000002),23,-5,12,yes,x,5,x,0.7007546999957412,1,58,test2,3,0.7010464000049978,-50.0
17,lzb,f,19,r,2,(-172.20000000000002, 2.1088417881317425e-14),25,-5,12,yes,x,5,x,0.5325087999954121,1,59,test2,3,0.5326104999985546,-50.0
17,lzb,f,19,r,2,(-3.163262682197613e-14, -172.20000000000002),27,-5,12,yes,x,5,x,0.6611460999993142,1,60,test2,3,0.6612734000082128,-50.0
17,lzb,f,19,r,2,(-121.76378772032348, 121.76378772032349),24,-3,11,yes,x,5,x,0.8400362999964273,1,61,test2,3,0.8405654000089271,-48.0
17,lzb,f,19,r,2,(121.76378772032346, -121.76378772032352),28,3,1,no,m,6,m,0.8751651999918977,1,62,test2,3,0.8752881999971578,-48.0
17,lzb,f,19,r,2,(1.0544208940658713e-14, 172.20000000000002),23,25,4,yes,x,5,x,0.5387170000030892,1,63,test2,3,0.5390160000097239,-20.0
17,lzb,f,19,r,2,(121.76378772032346, -121.76378772032352),28,-5,12,yes,x,5,x,0.6136491000070237,1,64,test2,3,0.6139393000048585,-50.0
17,lzb,f,19,r,2,(-121.76378772032352, -121.76378772032348),26,-3,11,yes,x,5,x,0.6389128000009805,1,65,test2,3,0.6391772999922978,-48.0
17,lzb,f,19,r,2,(172.20000000000002, 0.0),21,7,3,no,m,6,x,0.8156944000074873,0,66,test2,3,0.8157938999938779,-48.0
17,lzb,f,19,r,2,(172.20000000000002, 0.0),21,-25,14,no,m,6,m,0.8943316000077175,1,67,test2,3,0.894450699997833,-48.0
17,lzb,f,19,r,2,(121.76378772032346, -121.76378772032352),28,-7,13,yes,x,5,x,0.6756463000056101,1,68,test2,3,0.6758925000031013,-52.0
17,lzb,f,19,r,2,(-172.20000000000002, 2.1088417881317425e-14),25,-25,14,yes,x,5,x,0.4462057999917306,1,69,test2,3,0.446624599993811,-70.0
17,lzb,f,19,r,2,(-121.76378772032348, 121.76378772032349),24,-7,13,no,m,6,m,0.9067135999939637,1,70,test2,3,0.9069133999873884,-70.0
17,lzb,f,19,r,2,(172.20000000000002, 0.0),21,-3,11,yes,x,5,x,0.5475491999968654,1,71,test2,3,0.5478437999991002,-48.0
17,lzb,f,19,r,2,(-121.76378772032352, -121.76378772032348),26,25,4,no,m,6,m,0.8350164000003133,1,72,test2,3,0.8351678999897558,-48.0
17,lzb,f,19,r,2,(-121.76378772032348, 121.76378772032349),24,25,4,no,m,6,m,0.755520400009118,1,73,test2,3,0.7558270000008633,-48.0
17,lzb,f,19,r,2,(1.0544208940658713e-14, 172.20000000000002),23,-5,12,no,m,6,m,0.8258711000089534,1,74,test2,3,0.8259717999899294,-48.0
17,lzb,f,19,r,2,(121.76378772032349, 121.76378772032349),22,7,3,no,m,6,m,0.6747104999958538,1,75,test2,3,0.6751518999953987,-48.0
17,lzb,f,19,r,2,(-121.76378772032352, -121.76378772032348),26,3,1,yes,x,5,x,0.7301727000012761,1,76,test2,3,0.7303064000006998,-42.0
17,lzb,f,19,r,2,(172.20000000000002, 0.0),21,-5,12,yes,x,5,x,0.5181049999955576,1,77,test2,3,0.5183159000007436,-50.0
17,lzb,f,19,r,2,(-121.76378772032352, -121.76378772032348),26,-7,13,yes,x,5,x,0.5732604999939213,1,78,test2,3,0.5733970000001136,-52.0
17,lzb,f,19,r,2,(-121.76378772032352, -121.76378772032348),26,-5,12,yes,x,5,x,0.8442121999978554,1,79,test2,3,0.8444679999956861,-50.0
17,lzb,f,19,r,2,(-121.76378772032352, -121.76378772032348),26,3,1,no,m,6,m,0.7755795000120997,1,80,test2,3,0.7757822999992641,-50.0
17,lzb,f,19,r,2,(-121.76378772032348, 121.76378772032349),24,3,1,yes,x,5,x,0.6108256000006804,1,81,test2,3,0.611666900003911,-42.0
17,lzb,f,19,r,2,(1.0544208940658713e-14, 172.20000000000002),23,-3,11,yes,x,5,x,0.5713427000009688,1,82,test2,3,0.5715020000061486,-48.0
17,lzb,f,19,r,2,(-121.76378772032352, -121.76378772032348),26,-7,13,no,m,6,m,0.7429164000059245,1,83,test2,3,0.7430764000018826,-48.0
17,lzb,f,19,r,2,(121.76378772032346, -121.76378772032352),28,25,4,no,m,6,m,0.6753551000001607,1,84,test2,3,0.675514500006102,-48.0
17,lzb,f,19,r,2,(172.20000000000002, 0.0),21,-25,14,yes,x,5,x,0.7648942000087118,1,85,test2,3,0.7649960999988252,-70.0
17,lzb,f,19,r,2,(-3.163262682197613e-14, -172.20000000000002),27,-3,11,no,m,6,m,0.678539999993518,1,86,test2,3,0.6787679999979446,-70.0
17,lzb,f,19,r,2,(1.0544208940658713e-14, 172.20000000000002),23,5,2,yes,x,5,x,0.6913858999905642,1,87,test2,3,0.6915154000016628,-40.0
17,lzb,f,19,r,2,(-121.76378772032348, 121.76378772032349),24,7,3,yes,x,5,x,0.6773487999889767,1,88,test2,3,0.6775839000038104,-38.0
17,lzb,f,19,r,2,(-121.76378772032352, -121.76378772032348),26,5,2,no,m,6,m,0.7833935999951791,1,89,test2,3,0.7837412999942899,-38.0
17,lzb,f,19,r,2,(-3.163262682197613e-14, -172.20000000000002),27,-25,14,yes,x,5,x,0.5037044000055175,1,90,test2,3,0.5038047999987612,-70.0
17,lzb,f,19,r,2,(-121.76378772032348, 121.76378772032349),24,5,2,yes,x,5,x,0.6316281000035815,1,91,test2,3,0.6317622999922605,-40.0
17,lzb,f,19,r,2,(-172.20000000000002, 2.1088417881317425e-14),25,5,2,no,m,6,m,0.805864100009785,1,92,test2,3,0.8061481000040658,-40.0
17,lzb,f,19,r,2,(-121.76378772032352, -121.76378772032348),26,-5,12,yes,x,5,x,0.4918885999941267,1,93,test2,3,0.4920196000020951,-50.0
17,lzb,f,19,r,2,(-172.20000000000002, 2.1088417881317425e-14),25,25,4,yes,x,5,x,0.5634613000001991,1,94,test2,3,0.5635567999997875,-20.0
17,lzb,f,19,r,2,(121.76378772032346, -121.76378772032352),28,-7,13,no,m,6,m,0.7751442000007955,1,95,test2,3,0.7755001000041375,-20.0
17,lzb,f,19,r,2,(172.20000000000002, 0.0),21,5,2,yes,x,5,x,0.6272471999982372,1,96,test2,3,0.6275433999981033,-40.0
17,lzb,f,19,r,2,(-121.76378772032348, 121.76378772032349),24,5,2,yes,x,5,x,0.6154870000027586,1,1,test1,4,0.615605200000573,-40.0
17,lzb,f,19,r,2,(-121.76378772032348, 121.76378772032349),24,-3,11,no,m,6,m,0.7099758999975165,1,2,test1,4,0.710199900000589,-40.0
17,lzb,f,19,r,2,(-121.76378772032352, -121.76378772032348),26,7,3,no,m,6,m,0.7215774000069359,1,3,test1,4,0.7219686000025831,-40.0
17,lzb,f,19,r,2,(-172.20000000000002, 2.1088417881317425e-14),25,-5,12,no,m,6,m,0.6433968000055756,1,4,test1,4,0.6441705000033835,-40.0
17,lzb,f,19,r,2,(121.76378772032346, -121.76378772032352),28,7,3,yes,x,5,x,0.6188297000044258,1,5,test1,4,0.6190550999890547,-38.0
17,lzb,f,19,r,2,(-172.20000000000002, 2.1088417881317425e-14),25,7,3,yes,x,5,x,0.5100846999994246,1,6,test1,4,0.5104774999927031,-38.0
17,lzb,f,19,r,2,(121.76378772032346, -121.76378772032352),28,-3,11,no,m,6,m,0.8589200999995228,1,7,test1,4,0.8590395999926841,-38.0
17,lzb,f,19,r,2,(-121.76378772032348, 121.76378772032349),24,5,2,no,m,6,m,0.8253647000092315,1,8,test1,4,0.8254693000053521,-38.0
17,lzb,f,19,r,2,(121.76378772032346, -121.76378772032352),28,3,1,yes,x,5,x,0.8543294999981299,1,9,test1,4,0.8544534999964526,-42.0
17,lzb,f,19,r,2,(-3.163262682197613e-14, -172.20000000000002),27,-5,12,no,m,6,m,0.7231353000097442,1,10,test1,4,0.7232962999987649,-42.0
17,lzb,f,19,r,2,(-172.20000000000002, 2.1088417881317425e-14),25,-3,11,yes,x,5,x,0.5244619000004604,1,11,test1,4,0.5246474999876227,-48.0
17,lzb,f,19,r,2,(121.76378772032349, 121.76378772032349),22,-5,12,no,m,6,m,0.7944340999965789,1,12,test1,4,0.7945611000031931,-48.0
17,lzb,f,19,r,2,(-3.163262682197613e-14, -172.20000000000002),27,-3,11,yes,x,5,m,0.7293582999991486,0,13,test1,4,0.7296486999985063,-48.0
17,lzb,f,19,r,2,(1.0544208940658713e-14, 172.20000000000002),23,7,3,yes,x,5,x,0.47227420000126585,1,14,test1,4,0.47271649999311194,-38.0
17,lzb,f,19,r,2,(-121.76378772032352, -121.76378772032348),26,5,2,yes,x,5,x,0.46767260000342503,1,15,test1,4,0.4677769999980228,-40.0
17,lzb,f,19,r,2,(1.0544208940658713e-14, 172.20000000000002),23,-7,13,yes,x,5,x,0.5385801999946125,1,16,test1,4,0.538704599995981,-52.0
17,lzb,f,19,r,2,(-172.20000000000002, 2.1088417881317425e-14),25,-25,14,yes,x,5,x,0.4843405999999959,1,17,test1,4,0.48450449999654666,-70.0
17,lzb,f,19,r,2,(1.0544208940658713e-14, 172.20000000000002),23,3,1,no,m,6,x,0.4049594999960391,0,18,test1,4,0.4050588000100106,-70.0
17,lzb,f,19,r,2,(121.76378772032349, 121.76378772032349),22,25,4,yes,x,5,x,0.45825939999485854,1,19,test1,4,0.45893539999087807,-20.0
17,lzb,f,19,r,2,(1.0544208940658713e-14, 172.20000000000002),23,3,1,yes,x,5,x,0.4889941000001272,1,20,test1,4,0.48909240000648424,-42.0
17,lzb,f,19,r,2,(-121.76378772032352, -121.76378772032348),26,-7,13,yes,x,5,x,1.0897586999926716,1,21,test1,4,1.089861700005713,-52.0
17,lzb,f,19,r,2,(1.0544208940658713e-14, 172.20000000000002),23,5,2,no,m,6,m,0.7485919000027934,1,22,test1,4,0.748821199988015,-52.0
17,lzb,f,19,r,2,(121.76378772032349, 121.76378772032349),22,-5,12,yes,x,5,x,0.49757039999531116,1,23,test1,4,0.4976992000010796,-50.0
17,lzb,f,19,r,2,(-121.76378772032348, 121.76378772032349),24,-7,13,yes,x,5,x,0.5470247999910498,1,24,test1,4,0.5472283999988576,-52.0
17,lzb,f,19,r,2,(-3.163262682197613e-14, -172.20000000000002),27,-25,14,yes,x,5,x,0.4680456999922171,1,25,test1,4,0.4686349999974482,-70.0
17,lzb,f,19,r,2,(1.0544208940658713e-14, 172.20000000000002),23,5,2,yes,x,5,x,0.45443270000396296,1,26,test1,4,0.454680200011353,-40.0
17,lzb,f,19,r,2,(172.20000000000002, 0.0),21,3,1,no,m,6,m,0.8764468000008492,1,27,test1,4,0.8768992999976035,-40.0
17,lzb,f,19,r,2,(-121.76378772032348, 121.76378772032349),24,-3,11,yes,x,5,x,0.7500042999890866,1,28,test1,4,0.7505280000041239,-48.0
17,lzb,f,19,r,2,(-172.20000000000002, 2.1088417881317425e-14),25,3,1,yes,x,5,x,0.6354185999953188,1,29,test1,4,0.6355240999982925,-42.0
17,lzb,f,19,r,2,(-172.20000000000002, 2.1088417881317425e-14),25,-7,13,no,m,6,m,0.744649299987941,1,30,test1,4,0.7449060999933863,-42.0
17,lzb,f,19,r,2,(121.76378772032349, 121.76378772032349),22,-7,13,no,m,6,x,0.6255742999928771,0,31,test1,4,0.6256757999944966,-42.0
17,lzb,f,19,r,2,(1.0544208940658713e-14, 172.20000000000002),23,7,3,yes,x,5,x,0.5384851999988314,1,32,test1,4,0.5386051999957999,-38.0
17,lzb,f,19,r,2,(121.76378772032346, -121.76378772032352),28,-25,14,no,m,6,m,0.711204599996563,1,33,test1,4,0.7113058999966597,-38.0
17,lzb,f,19,r,2,(-121.76378772032352, -121.76378772032348),26,3,1,yes,x,5,x,0.6401643999997759,1,34,test1,4,0.6402690000104485,-42.0
17,lzb,f,19,r,2,(-3.163262682197613e-14, -172.20000000000002),27,5,2,yes,x,5,x,0.6339096000010613,1,35,test1,4,0.6341848000010941,-40.0
17,lzb,f,19,r,2,(-121.76378772032348, 121.76378772032349),24,-25,14,no,m,6,x,0.5713436999940313,0,36,test1,4,0.5720056999998633,-40.0
17,lzb,f,19,r,2,(-121.76378772032352, -121.76378772032348),26,-25,14,yes,x,5,x,0.5462992999964627,1,37,test1,4,0.5464054000040051,-70.0
17,lzb,f,19,r,2,(-172.20000000000002, 2.1088417881317425e-14),25,5,2,yes,x,5,x,0.6366125000058673,1,38,test1,4,0.6371078000083799,-40.0
17,lzb,f,19,r,2,(-172.20000000000002, 2.1088417881317425e-14),25,7,3,no,m,6,x,1.0308976000087569,0,39,test1,4,1.0311275999993086,-40.0
17,lzb,f,19,r,2,(121.76378772032346, -121.76378772032352),28,7,3,yes,x,5,x,0.650864700000966,1,40,test1,4,0.6511853000120027,-38.0
17,lzb,f,19,r,2,(172.20000000000002, 0.0),21,3,1,yes,x,5,x,0.8062283000035677,1,41,test1,4,0.8063312000012957,-42.0
17,lzb,f,19,r,2,(121.76378772032346, -121.76378772032352),28,-5,12,no,m,6,m,0.7758429999958025,1,42,test1,4,0.7760794999921927,-42.0
17,lzb,f,19,r,2,(121.76378772032346, -121.76378772032352),28,-7,13,yes,x,5,x,0.6010723999934271,1,43,test1,4,0.601177300006384,-52.0
17,lzb,f,19,r,2,(1.0544208940658713e-14, 172.20000000000002),23,-3,11,no,m,6,m,0.8743085000023711,1,44,test1,4,0.8745072000019718,-52.0
17,lzb,f,19,r,2,(172.20000000000002, 0.0),21,-3,11,yes,x,5,x,0.8111998999956995,1,45,test1,4,0.8113349000050221,-48.0
17,lzb,f,19,r,2,(1.0544208940658713e-14, 172.20000000000002),23,-25,14,yes,x,5,x,0.6329754000034882,1,46,test1,4,0.63354480000271,-70.0
17,lzb,f,19,r,2,(121.76378772032349, 121.76378772032349),22,-3,11,yes,x,5,x,0.8776898000069195,1,47,test1,4,0.8778241999971215,-48.0
17,lzb,f,19,r,2,(-3.163262682197613e-14, -172.20000000000002),27,-7,13,yes,x,5,x,0.5988686000055168,1,48,test1,4,0.5992583000042941,-52.0
17,lzb,f,19,r,2,(172.20000000000002, 0.0),21,-5,12,yes,x,5,x,0.6018615000066347,1,49,test1,4,0.6024249000038253,-50.0
17,lzb,f,19,r,2,(-3.163262682197613e-14, -172.20000000000002),27,7,3,yes,x,5,x,0.7883552000130294,1,50,test1,4,0.7885845999990124,-38.0
17,lzb,f,19,r,2,(-121.76378772032348, 121.76378772032349),24,3,1,yes,x,5,x,0.646432299996377,1,51,test1,4,0.6467004000005545,-42.0
17,lzb,f,19,r,2,(-172.20000000000002, 2.1088417881317425e-14),25,-3,11,no,m,6,m,0.8911303999921074,1,52,test1,4,0.891506500003743,-42.0
17,lzb,f,19,r,2,(-3.163262682197613e-14, -172.20000000000002),27,-5,12,yes,x,5,x,0.5902047999989009,1,53,test1,4,0.5905096000060439,-50.0
17,lzb,f,19,r,2,(121.76378772032346, -121.76378772032352),28,5,2,no,m,6,x,0.692369399999734,0,54,test1,4,0.6924977000016952,-50.0
17,lzb,f,19,r,2,(121.76378772032349, 121.76378772032349),22,25,4,no,m,6,m,0.9270448999886867,1,55,test1,4,0.9274326000013389,-50.0
17,lzb,f,19,r,2,(1.0544208940658713e-14, 172.20000000000002),23,-7,13,no,m,6,m,0.7293748999945819,1,56,test1,4,0.7296060000080615,-50.0
17,lzb,f,19,r,2,(121.76378772032349, 121.76378772032349),22,-7,13,yes,x,5,x,0.5604873999982374,1,57,test1,4,0.5608746000070823,-52.0
17,lzb,f,19,r,2,(121.76378772032346, -121.76378772032352),28,7,3,no,m,6,m,0.8951586000039242,1,58,test1,4,0.8953264000010677,-52.0
17,lzb,f,19,r,2,(-3.163262682197613e-14, -172.20000000000002),27,-7,13,no,m,6,m,0.8307359999889741,1,59,test1,4,0.8308396000065841,-52.0
17,lzb,f,19,r,2,(172.20000000000002, 0.0),21,-7,13,yes,x,5,x,0.5374471999966772,1,60,test1,4,0.5375477000052342,-52.0
17,lzb,f,19,r,2,(-121.76378772032348, 121.76378772032349),24,25,4,yes,x,5,x,0.5637005000025965,1,61,test1,4,0.5639474999916274,-20.0
17,lzb,f,19,r,2,(121.76378772032349, 121.76378772032349),22,5,2,yes,x,5,x,0.5502092999959132,1,62,test1,4,0.5508321999950567,-40.0
17,lzb,f,19,r,2,(121.76378772032346, -121.76378772032352),28,-3,11,yes,x,5,m,1.0469090999977197,0,63,test1,4,1.0470109000016237,-48.0
17,lzb,f,19,r,2,(-3.163262682197613e-14, -172.20000000000002),27,-3,11,yes,x,5,x,0.64202660000592,1,64,test1,4,0.642260399996303,-48.0
17,lzb,f,19,r,2,(-121.76378772032352, -121.76378772032348),26,-25,14,no,m,6,m,0.9019867000024533,1,65,test1,4,0.9024386999954004,-48.0
17,lzb,f,19,r,2,(1.0544208940658713e-14, 172.20000000000002),23,-7,13,yes,x,5,x,0.576359800004866,1,66,test1,4,0.5764997999940533,-52.0
17,lzb,f,19,r,2,(1.0544208940658713e-14, 172.20000000000002),23,25,4,no,m,6,m,0.8944633999926737,1,67,test1,4,0.8946905000047991,-52.0
17,lzb,f,19,r,2,(1.0544208940658713e-14, 172.20000000000002),23,-5,12,yes,x,5,x,0.7071774000069126,1,68,test1,4,0.707279300011578,-50.0
17,lzb,f,19,r,2,(121.76378772032346, -121.76378772032352),28,-25,14,yes,x,5,x,0.5570967000094242,1,69,test1,4,0.5577493999880971,-70.0
17,lzb,f,19,r,2,(1.0544208940658713e-14, 172.20000000000002),23,3,1,yes,x,5,x,0.772334100009175,1,70,test1,4,0.7725763000053121,-42.0
17,lzb,f,19,r,2,(1.0544208940658713e-14, 172.20000000000002),23,-3,11,yes,x,5,x,0.5155895999923814,1,71,test1,4,0.515885700006038,-48.0
17,lzb,f,19,r,2,(-121.76378772032352, -121.76378772032348),26,-3,11,yes,x,5,x,0.6487169000029098,1,72,test1,4,0.6489433999959147,-48.0
17,lzb,f,19,r,2,(-121.76378772032352, -121.76378772032348),26,25,4,yes,x,5,x,0.42143529999884777,1,73,test1,4,0.42159969999920577,-20.0
17,lzb,f,19,r,2,(1.0544208940658713e-14, 172.20000000000002),23,25,4,yes,x,5,x,0.4049440999951912,1,74,test1,4,0.40516829999978654,-20.0
17,lzb,f,19,r,2,(-172.20000000000002, 2.1088417881317425e-14),25,5,2,yes,x,5,x,0.7704442999965977,1,75,test1,4,0.7705466000043089,-40.0
17,lzb,f,19,r,2,(-121.76378772032352, -121.76378772032348),26,-25,14,yes,x,5,x,0.44924010000249837,1,76,test1,4,0.44952889998967294,-70.0
17,lzb,f,19,r,2,(-172.20000000000002, 2.1088417881317425e-14),25,-25,14,no,m,6,m,1.011329899993143,1,77,test1,4,1.0114965999964625,-70.0
17,lzb,f,19,r,2,(172.20000000000002, 0.0),21,5,2,yes,x,5,x,0.9442681000073208,1,78,test1,4,0.9447762999916449,-40.0
17,lzb,f,19,r,2,(172.20000000000002, 0.0),21,7,3,yes,x,5,x,0.5380212000018219,1,79,test1,4,0.5381897000042954,-38.0
17,lzb,f,19,r,2,(-121.76378772032348, 121.76378772032349),24,-25,14,yes,x,5,x,0.6406287999998312,1,80,test1,4,0.6407417000009445,-70.0
17,lzb,f,19,r,2,(-121.76378772032348, 121.76378772032349),24,7,3,no,m,6,x,0.8885069000098156,0,81,test1,4,0.8886422999930801,-70.0
17,lzb,f,19,r,2,(121.76378772032346, -121.76378772032352),28,3,1,yes,x,5,x,0.8999631999904523,1,82,test1,4,0.9004758999944897,-42.0
17,lzb,f,19,r,2,(-172.20000000000002, 2.1088417881317425e-14),25,-7,13,yes,x,5,x,0.48865480000677053,1,83,test1,4,0.48877149999316316,-52.0
17,lzb,f,19,r,2,(-3.163262682197613e-14, -172.20000000000002),27,5,2,yes,x,5,x,0.6910040000075242,1,84,test1,4,0.6911307999980636,-40.0
17,lzb,f,19,r,2,(172.20000000000002, 0.0),21,3,1,yes,x,5,x,0.9875363999890396,1,85,test1,4,0.9880325999984052,-42.0
17,lzb,f,19,r,2,(-172.20000000000002, 2.1088417881317425e-14),25,7,3,yes,x,5,x,0.44866199999523815,1,86,test1,4,0.44885210000211373,-38.0
17,lzb,f,19,r,2,(-121.76378772032352, -121.76378772032348),26,25,4,yes,x,5,x,0.5102083000092534,1,87,test1,4,0.510370599993621,-20.0
17,lzb,f,19,r,2,(-121.76378772032348, 121.76378772032349),24,-7,13,yes,x,5,x,0.6443880000006175,1,88,test1,4,0.6446262999961618,-52.0
17,lzb,f,19,r,2,(-3.163262682197613e-14, -172.20000000000002),27,5,2,no,m,6,m,0.8905162999872118,1,89,test1,4,0.8906188999972073,-52.0
17,lzb,f,19,r,2,(-3.163262682197613e-14, -172.20000000000002),27,-7,13,yes,x,5,x,0.538578099993174,1,90,test1,4,0.5392086999927415,-52.0
17,lzb,f,19,r,2,(121.76378772032346, -121.76378772032352),28,-25,14,yes,x,5,x,0.5644227000011597,1,91,test1,4,0.5649904000019887,-70.0
17,lzb,f,19,r,2,(121.76378772032349, 121.76378772032349),22,3,1,no,m,6,m,0.7316083000041544,1,92,test1,4,0.7318055999930948,-70.0
17,lzb,f,19,r,2,(-3.163262682197613e-14, -172.20000000000002),27,7,3,no,m,6,m,0.8013829999981681,1,93,test1,4,0.8015359999990324,-70.0
17,lzb,f,19,r,2,(-172.20000000000002, 2.1088417881317425e-14),25,25,4,yes,x,5,x,0.38985300000058487,1,94,test1,4,0.38995430000068154,-20.0
17,lzb,f,19,r,2,(121.76378772032349, 121.76378772032349),22,-25,14,yes,x,5,x,0.5814934000081848,1,95,test1,4,0.5816362000041408,-70.0
17,lzb,f,19,r,2,(-121.76378772032352, -121.76378772032348),26,-5,12,no,m,6,m,0.7174503999995068,1,96,test1,4,0.7177964000002248,-70.0
17,lzb,f,19,r,2,(-172.20000000000002, 2.1088417881317425e-14),25,-5,12,yes,x,5,x,0.5672932000015862,1,1,test2,4,0.5673969999916153,-50.0
17,lzb,f,19,r,2,(121.76378772032349, 121.76378772032349),22,25,4,yes,x,5,x,0.6678626999928383,1,2,test2,4,0.6685582999925828,-20.0
17,lzb,f,19,r,2,(-121.76378772032352, -121.76378772032348),26,5,2,yes,x,5,x,0.6354892000090331,1,3,test2,4,0.6364595000050031,-40.0
17,lzb,f,19,r,2,(1.0544208940658713e-14, 172.20000000000002),23,-25,14,no,m,6,m,0.7504810999962501,1,4,test2,4,0.7507121999951778,-40.0
17,lzb,f,19,r,2,(-121.76378772032352, -121.76378772032348),26,-3,11,no,m,6,m,0.903544700006023,1,5,test2,4,0.9037418000079924,-40.0
17,lzb,f,19,r,2,(172.20000000000002, 0.0),21,-25,14,yes,x,5,x,0.45657130000472534,1,6,test2,4,0.45669719998841174,-70.0
17,lzb,f,19,r,2,(121.76378772032349, 121.76378772032349),22,3,1,yes,x,5,x,0.773566399991978,1,7,test2,4,0.7737942999956431,-42.0
17,lzb,f,19,r,2,(172.20000000000002, 0.0),21,-5,12,no,m,6,x,0.8400922000000719,0,8,test2,4,0.8403013000061037,-42.0
17,lzb,f,19,r,2,(121.76378772032346, -121.76378772032352),28,25,4,yes,x,5,x,0.4244811000098707,1,9,test2,4,0.4245821999938926,-20.0
17,lzb,f,19,r,2,(-3.163262682197613e-14, -172.20000000000002),27,-25,14,no,m,6,m,0.8090386999974726,1,10,test2,4,0.8091505999909714,-20.0
17,lzb,f,19,r,2,(172.20000000000002, 0.0),21,5,2,no,m,6,m,0.7724554000014905,1,11,test2,4,0.7727082999917911,-20.0
17,lzb,f,19,r,2,(-121.76378772032348, 121.76378772032349),24,7,3,yes,x,5,x,0.48696310000377707,1,12,test2,4,0.48706610000226647,-38.0
17,lzb,f,19,r,2,(-121.76378772032352, -121.76378772032348),26,7,3,yes,x,5,x,0.5252075000025798,1,13,test2,4,0.5253863000107231,-38.0
17,lzb,f,19,r,2,(121.76378772032349, 121.76378772032349),22,3,1,yes,x,5,x,1.0039565000042785,1,14,test2,4,1.004121199992369,-42.0
17,lzb,f,19,r,2,(172.20000000000002, 0.0),21,25,4,yes,x,5,x,0.5611688000062713,1,15,test2,4,0.5614781000040239,-20.0
17,lzb,f,19,r,2,(121.76378772032349, 121.76378772032349),22,7,3,yes,x,5,x,0.6676442000025418,1,16,test2,4,0.6678054000076372,-38.0
17,lzb,f,19,r,2,(121.76378772032346, -121.76378772032352),28,25,4,yes,x,5,x,0.5201551999925869,1,17,test2,4,0.5204142000002321,-20.0
17,lzb,f,19,r,2,(121.76378772032349, 121.76378772032349),22,-25,14,yes,x,5,x,0.49780870000540745,1,18,test2,4,0.4979310000053374,-70.0
17,lzb,f,19,r,2,(-121.76378772032348, 121.76378772032349),24,25,4,yes,x,5,x,0.46319570000923704,1,19,test2,4,0.46338899999682326,-20.0
17,lzb,f,19,r,2,(-3.163262682197613e-14, -172.20000000000002),27,25,4,yes,x,5,x,0.478926900002989,1,20,test2,4,0.47947380000550766,-20.0
17,lzb,f,19,r,2,(121.76378772032349, 121.76378772032349),22,-5,12,yes,x,5,x,0.5782176999928197,1,21,test2,4,0.5783452000032412,-50.0
17,lzb,f,19,r,2,(-121.76378772032348, 121.76378772032349),24,-5,12,yes,x,5,x,0.7714440999989165,1,22,test2,4,0.771752499989816,-50.0
17,lzb,f,19,r,2,(-172.20000000000002, 2.1088417881317425e-14),25,-7,13,yes,x,5,x,0.5876491000090027,1,23,test2,4,0.588013200002024,-52.0
17,lzb,f,19,r,2,(121.76378772032346, -121.76378772032352),28,5,2,yes,x,5,x,0.682539600005839,1,24,test2,4,0.6831412000028649,-40.0
17,lzb,f,19,r,2,(-121.76378772032348, 121.76378772032349),24,-25,14,yes,x,5,x,0.5581053999922005,1,25,test2,4,0.5584194999973988,-70.0
17,lzb,f,19,r,2,(-121.76378772032348, 121.76378772032349),24,-5,12,no,m,6,m,0.7635163999948418,1,26,test2,4,0.7636201999994228,-70.0
17,lzb,f,19,r,2,(121.76378772032346, -121.76378772032352),28,5,2,yes,x,5,x,0.6350252999982331,1,27,test2,4,0.635149800000363,-40.0
17,lzb,f,19,r,2,(-121.76378772032348, 121.76378772032349),24,-5,12,yes,x,5,x,0.5381551000027684,1,28,test2,4,0.5382695000007516,-50.0
17,lzb,f,19,r,2,(1.0544208940658713e-14, 172.20000000000002),23,7,3,no,m,6,m,0.9025317000050563,1,29,test2,4,0.9026319999975385,-50.0
17,lzb,f,19,r,2,(-172.20000000000002, 2.1088417881317425e-14),25,3,1,yes,x,5,x,0.7894806000113022,1,30,test2,4,0.7896475999878021,-42.0
17,lzb,f,19,r,2,(172.20000000000002, 0.0),21,7,3,yes,x,5,x,0.5214686000108486,1,31,test2,4,0.5221745000017108,-38.0
17,lzb,f,19,r,2,(-3.163262682197613e-14, -172.20000000000002),27,25,4,yes,x,5,x,0.4462834000005387,1,32,test2,4,0.44638800001121126,-20.0
17,lzb,f,19,r,2,(172.20000000000002, 0.0),21,-7,13,yes,x,5,x,0.4680568000039784,1,33,test2,4,0.4682864000060363,-52.0
17,lzb,f,19,r,2,(-3.163262682197613e-14, -172.20000000000002),27,3,1,yes,x,5,x,0.6138053000031505,1,34,test2,4,0.6139661000052001,-42.0
17,lzb,f,19,r,2,(121.76378772032349, 121.76378772032349),22,5,2,no,m,6,x,0.540507699988666,0,35,test2,4,0.5407965999911539,-42.0
17,lzb,f,19,r,2,(-172.20000000000002, 2.1088417881317425e-14),25,3,1,no,m,6,m,0.9753075000044191,1,36,test2,4,0.975555400000303,-42.0
17,lzb,f,19,r,2,(-172.20000000000002, 2.1088417881317425e-14),25,-3,11,yes,x,5,x,0.7946249999949941,1,37,test2,4,0.7949769999977434,-48.0
17,lzb,f,19,r,2,(121.76378772032349, 121.76378772032349),22,-7,13,yes,x,5,x,0.6808693000057247,1,38,test2,4,0.6818390999978874,-52.0
17,lzb,f,19,r,2,(172.20000000000002, 0.0),21,-3,11,no,m,6,m,0.736763200009591,1,39,test2,4,0.7370120999985375,-52.0
17,lzb,f,19,r,2,(1.0544208940658713e-14, 172.20000000000002),23,-25,14,yes,x,5,x,0.5584012999897823,1,40,test2,4,0.5589816000137944,-70.0
17,lzb,f,19,r,2,(-121.76378772032348, 121.76378772032349),24,3,1,no,m,6,m,0.8768502000020817,1,41,test2,4,0.8770116999949096,-70.0
17,lzb,f,19,r,2,(-3.163262682197613e-14, -172.20000000000002),27,3,1,no,m,6,m,0.7284159999981057,1,42,test2,4,0.728657600004226,-70.0
17,lzb,f,19,r,2,(121.76378772032349, 121.76378772032349),22,7,3,yes,x,5,x,0.5827469999931054,1,43,test2,4,0.5828507999976864,-38.0
17,lzb,f,19,r,2,(172.20000000000002, 0.0),21,25,4,no,m,6,m,0.7087711000058334,1,44,test2,4,0.7088668000069447,-38.0
17,lzb,f,19,r,2,(-3.163262682197613e-14, -172.20000000000002),27,7,3,yes,x,5,x,0.5076877000101376,1,45,test2,4,0.5077877000003355,-38.0
17,lzb,f,19,r,2,(121.76378772032346, -121.76378772032352),28,-5,12,yes,x,5,x,0.5451257000095211,1,46,test2,4,0.545340299999225,-50.0
17,lzb,f,19,r,2,(-172.20000000000002, 2.1088417881317425e-14),25,25,4,no,m,6,m,0.7954238999955123,1,47,test2,4,0.7955475000053411,-50.0
17,lzb,f,19,r,2,(121.76378772032349, 121.76378772032349),22,-25,14,no,m,6,x,0.8671258999966085,0,48,test2,4,0.8672323999926448,-50.0
17,lzb,f,19,r,2,(121.76378772032349, 121.76378772032349),22,5,2,yes,x,5,x,0.5921088000031887,1,49,test2,4,0.5924040999962017,-40.0
17,lzb,f,19,r,2,(172.20000000000002, 0.0),21,-7,13,no,m,6,m,0.7784792000020389,1,50,test2,4,0.7786225000018021,-40.0
17,lzb,f,19,r,2,(-121.76378772032352, -121.76378772032348),26,7,3,yes,x,5,x,0.611518799996702,1,51,test2,4,0.6120414999895729,-38.0
17,lzb,f,19,r,2,(172.20000000000002, 0.0),21,25,4,yes,x,5,x,0.5404057999985525,1,52,test2,4,0.5405357999989064,-20.0
17,lzb,f,19,r,2,(121.76378772032349, 121.76378772032349),22,-3,11,no,m,6,x,1.0547588000044925,0,53,test2,4,1.0550358000036795,-20.0
17,lzb,f,19,r,2,(-3.163262682197613e-14, -172.20000000000002),27,3,1,yes,x,5,x,0.9176119000039762,1,54,test2,4,0.9177235999959521,-42.0
17,lzb,f,19,r,2,(121.76378772032346, -121.76378772032352),28,-3,11,yes,x,5,m,0.8322828000091249,0,55,test2,4,0.8325640999973984,-48.0
17,lzb,f,19,r,2,(-3.163262682197613e-14, -172.20000000000002),27,25,4,no,m,6,m,0.9345265000010841,1,56,test2,4,0.9346908000006806,-48.0
17,lzb,f,19,r,2,(121.76378772032349, 121.76378772032349),22,-3,11,yes,x,5,x,0.7204735999985132,1,57,test2,4,0.7205725999956485,-48.0
17,lzb,f,19,r,2,(1.0544208940658713e-14, 172.20000000000002),23,-5,12,yes,x,5,x,0.5583202999987407,1,58,test2,4,0.5586633000057191,-50.0
17,lzb,f,19,r,2,(-172.20000000000002, 2.1088417881317425e-14),25,-5,12,yes,x,5,x,0.5806826999905752,1,59,test2,4,0.5807856000028551,-50.0
17,lzb,f,19,r,2,(-3.163262682197613e-14, -172.20000000000002),27,-5,12,yes,x,5,x,0.6228473999944981,1,60,test2,4,0.6229803000023821,-50.0
17,lzb,f,19,r,2,(-121.76378772032348, 121.76378772032349),24,-3,11,yes,x,5,x,0.802118799998425,1,61,test2,4,0.8022701000008965,-48.0
17,lzb,f,19,r,2,(121.76378772032346, -121.76378772032352),28,3,1,no,m,6,m,1.0728148999914993,1,62,test2,4,1.073056399996858,-48.0
17,lzb,f,19,r,2,(1.0544208940658713e-14, 172.20000000000002),23,25,4,yes,x,5,x,0.7313911999954144,1,63,test2,4,0.7316140000039013,-20.0
17,lzb,f,19,r,2,(121.76378772032346, -121.76378772032352),28,-5,12,yes,x,5,x,0.5799837999948068,1,64,test2,4,0.5804018000053475,-50.0
17,lzb,f,19,r,2,(-121.76378772032352, -121.76378772032348),26,-3,11,yes,x,5,x,0.8295752999983961,1,65,test2,4,0.8297076000017114,-48.0
17,lzb,f,19,r,2,(172.20000000000002, 0.0),21,7,3,no,m,6,m,0.6910834000009345,1,66,test2,4,0.6917620000021998,-48.0
17,lzb,f,19,r,2,(172.20000000000002, 0.0),21,-25,14,no,m,6,m,0.7451667999994243,1,67,test2,4,0.7454702999966685,-48.0
17,lzb,f,19,r,2,(121.76378772032346, -121.76378772032352),28,-7,13,yes,x,5,x,0.8765463000017917,1,68,test2,4,0.8770239000004949,-52.0
17,lzb,f,19,r,2,(-172.20000000000002, 2.1088417881317425e-14),25,-25,14,yes,x,5,x,0.47557769999548327,1,69,test2,4,0.47574539999186527,-70.0
17,lzb,f,19,r,2,(-121.76378772032348, 121.76378772032349),24,-7,13,no,m,6,m,0.9083898999961093,1,70,test2,4,0.9086278000031598,-70.0
17,lzb,f,19,r,2,(172.20000000000002, 0.0),21,-3,11,yes,x,5,x,0.9420418000081554,1,71,test2,4,0.9421808000042802,-48.0
17,lzb,f,19,r,2,(-121.76378772032352, -121.76378772032348),26,25,4,no,m,6,m,0.7646546000032686,1,72,test2,4,0.7648980999947526,-48.0
17,lzb,f,19,r,2,(-121.76378772032348, 121.76378772032349),24,25,4,no,m,6,m,0.7291660999908345,1,73,test2,4,0.729825799993705,-48.0
17,lzb,f,19,r,2,(1.0544208940658713e-14, 172.20000000000002),23,-5,12,no,m,6,m,0.7178092999965884,1,74,test2,4,0.718061099993065,-48.0
17,lzb,f,19,r,2,(121.76378772032349, 121.76378772032349),22,7,3,no,m,6,m,0.6297934000031091,1,75,test2,4,0.6300973000033991,-48.0
17,lzb,f,19,r,2,(-121.76378772032352, -121.76378772032348),26,3,1,yes,x,5,x,1.11107319999428,1,76,test2,4,1.1113557999924524,-42.0
17,lzb,f,19,r,2,(172.20000000000002, 0.0),21,-5,12,yes,x,5,x,0.8036791999911657,1,77,test2,4,0.8039827999891713,-50.0
17,lzb,f,19,r,2,(-121.76378772032352, -121.76378772032348),26,-7,13,yes,x,5,x,0.501212500006659,1,78,test2,4,0.5014386999973794,-52.0
