subj_id,subj_name,subj_gender ,subj_age,subj_handedness,subj_runNum,tar_l_x,tar_l_y,loc_code,tar_ori,tar_code,tar_pre ,cor_response,pre_code,subj_response,RT,correct,trial_num,type,bloc_num,dur, real_tar
17,lzb,f,19,r,1,(-172.20000000000002, 2.1088417881317425e-14),25,25,4,no,m,6,m,0.7854108000001361,1,1,prac,0,0.7856312000003527,0.0
17,lzb,f,19,r,1,(121.76378772032346, -121.76378772032352),28,7,3,yes,x,5,m,0.7503037999995286,0,2,prac,0,0.7504069000005984,-38.0
17,lzb,f,19,r,1,(121.76378772032349, 121.76378772032349),22,25,4,yes,x,5,x,0.5582920999995622,1,3,prac,0,0.5583957999997438,-20.0
17,lzb,f,19,r,1,(121.76378772032346, -121.76378772032352),28,-7,13,yes,x,5,m,0.9517708999992465,0,4,prac,0,0.9518709000003582,-52.0
17,lzb,f,19,r,1,(1.0544208940658713e-14, 172.20000000000002),23,-7,13,yes,x,5,x,0.7400789000002987,1,5,prac,0,0.7403524000001198,-52.0
17,lzb,f,19,r,1,(-121.76378772032352, -121.76378772032348),26,5,2,no,m,6,m,0.9615949999997611,1,6,prac,0,0.961981200000082,-52.0
17,lzb,f,19,r,1,(-3.163262682197613e-14, -172.20000000000002),27,3,1,yes,x,5,x,0.8049743999999919,1,7,prac,0,0.805144900000414,-42.0
17,lzb,f,19,r,1,(172.20000000000002, 0.0),21,-3,11,yes,x,5,m,0.9639645999995992,0,8,prac,0,0.9641295999999784,-48.0
17,lzb,f,19,r,1,(-172.20000000000002, 2.1088417881317425e-14),25,25,4,yes,x,5,x,0.5227049999994051,1,9,prac,0,0.5230489000005036,-20.0
17,lzb,f,19,r,1,(-121.76378772032348, 121.76378772032349),24,25,4,no,m,6,m,1.0208705000004556,1,10,prac,0,1.020974600000045,-20.0
17,lzb,f,19,r,1,(-172.20000000000002, 2.1088417881317425e-14),25,-7,13,yes,x,5,x,0.6852195000001302,1,11,prac,0,0.6855562999999165,-52.0
17,lzb,f,19,r,1,(172.20000000000002, 0.0),21,-25,14,no,m,6,m,0.6221421000000191,1,12,prac,0,0.6228261000005659,-52.0
17,lzb,f,19,r,1,(-3.163262682197613e-14, -172.20000000000002),27,25,4,yes,x,5,x,0.4700034000006781,1,13,prac,0,0.4701681999995344,-20.0
17,lzb,f,19,r,1,(-121.76378772032352, -121.76378772032348),26,-25,14,no,m,6,m,0.6281601000000592,1,14,prac,0,0.6282746000006227,-20.0
17,lzb,f,19,r,1,(121.76378772032346, -121.76378772032352),28,-25,14,no,m,6,m,0.6772657999999865,1,15,prac,0,0.6777355999993233,-20.0
17,lzb,f,19,r,1,(-121.76378772032348, 121.76378772032349),24,-5,12,yes,x,5,m,0.667020799999591,0,16,prac,0,0.6671973000002254,-50.0
17,lzb,f,19,r,1,(121.76378772032349, 121.76378772032349),22,-5,12,yes,x,5,x,0.608251200000268,1,17,prac,0,0.6086112000002686,-50.0
17,lzb,f,19,r,1,(1.0544208940658713e-14, 172.20000000000002),23,-25,14,yes,x,5,x,0.5386972000005699,1,18,prac,0,0.5389205000001311,-70.0
17,lzb,f,19,r,1,(121.76378772032349, 121.76378772032349),22,-3,11,no,m,6,x,0.6888442000008581,0,19,prac,0,0.6889637000003859,-70.0
17,lzb,f,19,r,1,(1.0544208940658713e-14, 172.20000000000002),23,5,2,no,m,6,x,0.7958605000003445,0,20,prac,0,0.7961083999998664,-70.0
17,lzb,f,19,r,1,(-172.20000000000002, 2.1088417881317425e-14),25,7,3,no,m,6,m,0.6609934999996767,1,1,test1,1,0.6612484999996013,-70.0
17,lzb,f,19,r,1,(121.76378772032346, -121.76378772032352),28,-5,12,yes,x,5,m,0.7048635999999533,0,2,test1,1,0.7050234999996974,-50.0
17,lzb,f,19,r,1,(-172.20000000000002, 2.1088417881317425e-14),25,3,1,no,m,6,m,0.8735669999996389,1,3,test1,1,0.8739640000003419,-50.0
17,lzb,f,19,r,1,(121.76378772032349, 121.76378772032349),22,-3,11,yes,x,5,m,0.8031405000001541,0,4,test1,1,0.8034481000004234,-48.0
17,lzb,f,19,r,1,(121.76378772032349, 121.76378772032349),22,3,1,no,m,6,m,0.8563666000000012,1,5,test1,1,0.8566123999999036,-48.0
17,lzb,f,19,r,1,(172.20000000000002, 0.0),21,5,2,yes,x,5,x,0.838149500000327,1,6,test1,1,0.8383420999998634,-40.0
17,lzb,f,19,r,1,(-3.163262682197613e-14, -172.20000000000002),27,3,1,no,m,6,m,1.0401709999996456,1,7,test1,1,1.040376500000093,-40.0
17,lzb,f,19,r,1,(-172.20000000000002, 2.1088417881317425e-14),25,-3,11,yes,x,5,m,0.8134932999992088,0,8,test1,1,0.8138082999994367,-48.0
17,lzb,f,19,r,1,(-3.163262682197613e-14, -172.20000000000002),27,25,4,yes,x,5,x,0.5288344999999026,1,9,test1,1,0.5290065999997751,-20.0
17,lzb,f,19,r,1,(-121.76378772032352, -121.76378772032348),26,3,1,no,m,6,m,0.8994782000008854,1,10,test1,1,0.9000625000007858,-20.0
17,lzb,f,19,r,1,(-121.76378772032352, -121.76378772032348),26,-3,11,yes,x,5,m,0.8955464000000575,0,11,test1,1,0.8958175999996456,-48.0
17,lzb,f,19,r,1,(121.76378772032349, 121.76378772032349),22,7,3,yes,x,5,x,0.6420396000003166,1,12,test1,1,0.6421475999995891,-38.0
17,lzb,f,19,r,1,(1.0544208940658713e-14, 172.20000000000002),23,25,4,yes,x,5,x,0.5175834000001487,1,13,test1,1,0.5177204999999958,-20.0
17,lzb,f,19,r,1,(121.76378772032349, 121.76378772032349),22,25,4,no,m,6,m,0.7026395000002594,1,14,test1,1,0.7029427000006763,-20.0
17,lzb,f,19,r,1,(-172.20000000000002, 2.1088417881317425e-14),25,-5,12,no,m,6,m,0.9157575999997789,1,15,test1,1,0.9158981000000495,-20.0
17,lzb,f,19,r,1,(172.20000000000002, 0.0),21,-25,14,yes,x,5,x,0.5160595999996076,1,16,test1,1,0.5161590999996406,-70.0
17,lzb,f,19,r,1,(-121.76378772032352, -121.76378772032348),26,5,2,no,m,6,m,0.7289534000001368,1,17,test1,1,0.7291700000005221,-70.0
17,lzb,f,19,r,1,(1.0544208940658713e-14, 172.20000000000002),23,-25,14,yes,x,5,x,0.4660020000001168,1,18,test1,1,0.4663158999992447,-70.0
17,lzb,f,19,r,1,(-172.20000000000002, 2.1088417881317425e-14),25,-7,13,yes,x,5,x,0.6945756000004621,1,19,test1,1,0.6946729999999661,-52.0
17,lzb,f,19,r,1,(-172.20000000000002, 2.1088417881317425e-14),25,-7,13,no,m,6,m,0.6462091999992481,1,20,test1,1,0.6465140999998766,-52.0
17,lzb,f,19,r,1,(121.76378772032346, -121.76378772032352),28,25,4,no,m,6,m,0.7016113999998197,1,21,test1,1,0.7018217999993794,-52.0
17,lzb,f,19,r,1,(-121.76378772032348, 121.76378772032349),24,5,2,yes,x,5,m,0.7807714000000487,0,22,test1,1,0.7808845999998084,-40.0
17,lzb,f,19,r,1,(121.76378772032349, 121.76378772032349),22,-5,12,yes,x,5,x,0.6087296999994578,1,23,test1,1,0.6088303999995333,-50.0
17,lzb,f,19,r,1,(-172.20000000000002, 2.1088417881317425e-14),25,-5,12,yes,x,5,x,0.6715195000006133,1,24,test1,1,0.6716195999997581,-50.0
17,lzb,f,19,r,1,(-3.163262682197613e-14, -172.20000000000002),27,-7,13,yes,x,5,x,0.7792830999997022,1,25,test1,1,0.7795035999997708,-52.0
17,lzb,f,19,r,1,(-172.20000000000002, 2.1088417881317425e-14),25,7,3,yes,x,5,x,0.5523982999993677,1,26,test1,1,0.5524977999994007,-38.0
17,lzb,f,19,r,1,(-172.20000000000002, 2.1088417881317425e-14),25,-25,14,yes,x,5,x,0.44014400000014575,1,27,test1,1,0.4403818999999203,-70.0
17,lzb,f,19,r,1,(172.20000000000002, 0.0),21,7,3,yes,x,5,x,0.5629613000000973,1,28,test1,1,0.5630941999997958,-38.0
17,lzb,f,19,r,1,(-121.76378772032348, 121.76378772032349),24,-25,14,yes,x,5,x,0.46098580000034417,1,29,test1,1,0.46115930000087246,-70.0
17,lzb,f,19,r,1,(-121.76378772032352, -121.76378772032348),26,3,1,yes,x,5,m,0.681676599999264,0,30,test1,1,0.6818810000004305,-42.0
17,lzb,f,19,r,1,(-3.163262682197613e-14, -172.20000000000002),27,-5,12,yes,x,5,x,1.0002788000001601,1,31,test1,1,1.0003897999995388,-50.0
17,lzb,f,19,r,1,(1.0544208940658713e-14, 172.20000000000002),23,25,4,yes,x,5,x,0.49715220000052796,1,32,test1,1,0.4973520000003191,-20.0
17,lzb,f,19,r,1,(121.76378772032349, 121.76378772032349),22,25,4,yes,x,5,x,0.5547955000001821,1,33,test1,1,0.5549984999997832,-20.0
17,lzb,f,19,r,1,(172.20000000000002, 0.0),21,-5,12,no,m,6,m,0.7647795000002588,1,34,test1,1,0.7648782999995092,-20.0
17,lzb,f,19,r,1,(-121.76378772032348, 121.76378772032349),24,5,2,no,m,6,m,0.6980000000003201,1,35,test1,1,0.6983569000003627,-20.0
17,lzb,f,19,r,1,(-121.76378772032348, 121.76378772032349),24,25,4,yes,x,5,x,0.41578739999931713,1,36,test1,1,0.41602180000063527,-20.0
17,lzb,f,19,r,1,(1.0544208940658713e-14, 172.20000000000002),23,5,2,yes,x,5,x,0.844932300000437,1,37,test1,1,0.8450306000004275,-40.0
17,lzb,f,19,r,1,(-3.163262682197613e-14, -172.20000000000002),27,25,4,no,m,6,x,0.8535455999999613,0,38,test1,1,0.8538188000002265,-40.0
17,lzb,f,19,r,1,(-121.76378772032348, 121.76378772032349),24,3,1,yes,x,5,x,0.5872491000000082,1,39,test1,1,0.5873828000003414,-42.0
17,lzb,f,19,r,1,(-3.163262682197613e-14, -172.20000000000002),27,7,3,no,m,6,m,0.7584814000001643,1,40,test1,1,0.7586056999998618,-42.0
17,lzb,f,19,r,1,(1.0544208940658713e-14, 172.20000000000002),23,5,2,yes,x,5,x,0.6155968000002758,1,41,test1,1,0.6157015999997384,-40.0
17,lzb,f,19,r,1,(1.0544208940658713e-14, 172.20000000000002),23,-25,14,no,m,6,m,0.6698299999998198,1,42,test1,1,0.670316400000047,-40.0
17,lzb,f,19,r,1,(1.0544208940658713e-14, 172.20000000000002),23,-3,11,yes,x,5,x,0.647907400000804,1,43,test1,1,0.6483275999999023,-48.0
17,lzb,f,19,r,1,(121.76378772032349, 121.76378772032349),22,-3,11,no,m,6,m,0.7803897000003417,1,44,test1,1,0.7805420000004233,-48.0
17,lzb,f,19,r,1,(-3.163262682197613e-14, -172.20000000000002),27,3,1,yes,x,5,m,0.8144341999995959,0,45,test1,1,0.8148315999997067,-42.0
17,lzb,f,19,r,1,(1.0544208940658713e-14, 172.20000000000002),23,-5,12,no,m,6,m,0.8211089000005813,1,46,test1,1,0.8212472999994134,-42.0
17,lzb,f,19,r,1,(172.20000000000002, 0.0),21,3,1,yes,x,5,m,0.7188530000003084,0,47,test1,1,0.7190816000002087,-42.0
17,lzb,f,19,r,1,(-172.20000000000002, 2.1088417881317425e-14),25,-25,14,no,m,6,m,1.1340279999994891,1,48,test1,1,1.1342658000003212,-42.0
17,lzb,f,19,r,1,(-121.76378772032348, 121.76378772032349),24,-7,13,yes,x,5,x,0.6547754000002897,1,49,test1,1,0.6552730000003066,-52.0
17,lzb,f,19,r,1,(-121.76378772032348, 121.76378772032349),24,-3,11,no,m,6,m,0.9035758999998507,1,50,test1,1,0.9042544000003545,-52.0
17,lzb,f,19,r,1,(-121.76378772032352, -121.76378772032348),26,-25,14,yes,x,5,x,0.5197193000003608,1,51,test1,1,0.5198375999998461,-70.0
17,lzb,f,19,r,1,(121.76378772032349, 121.76378772032349),22,-3,11,yes,x,5,x,0.7687802999998894,1,52,test1,1,0.7688997000004747,-48.0
17,lzb,f,19,r,1,(-121.76378772032348, 121.76378772032349),24,-5,12,yes,x,5,x,0.5133843000003253,1,53,test1,1,0.5135080999998536,-50.0
17,lzb,f,19,r,1,(121.76378772032349, 121.76378772032349),22,5,2,no,m,6,m,0.7860918999995192,1,54,test1,1,0.7863112000004548,-50.0
17,lzb,f,19,r,1,(1.0544208940658713e-14, 172.20000000000002),23,7,3,yes,x,5,x,0.5280231999995522,1,55,test1,1,0.5283112999995865,-38.0
17,lzb,f,19,r,1,(-121.76378772032348, 121.76378772032349),24,-5,12,yes,x,5,x,0.6209463999994114,1,56,test1,1,0.6211739000000307,-50.0
17,lzb,f,19,r,1,(1.0544208940658713e-14, 172.20000000000002),23,5,2,no,m,6,m,0.6399277999998958,1,57,test1,1,0.6400269999994634,-50.0
17,lzb,f,19,r,1,(121.76378772032346, -121.76378772032352),28,-25,14,no,m,6,m,0.6256167000001369,1,58,test1,1,0.6258363999995709,-50.0
17,lzb,f,19,r,1,(1.0544208940658713e-14, 172.20000000000002),23,-5,12,yes,x,5,x,0.5233413000005385,1,59,test1,1,0.5235562999996546,-50.0
17,lzb,f,19,r,1,(121.76378772032349, 121.76378772032349),22,-25,14,yes,x,5,x,0.5075980999999956,1,60,test1,1,0.5077363999998852,-70.0
17,lzb,f,19,r,1,(121.76378772032346, -121.76378772032352),28,25,4,yes,x,5,x,0.5411530999999741,1,61,test1,1,0.5414983999999095,-20.0
17,lzb,f,19,r,1,(-121.76378772032348, 121.76378772032349),24,-3,11,yes,x,5,x,0.6088330000002316,1,62,test1,1,0.6089361000003919,-48.0
17,lzb,f,19,r,1,(121.76378772032349, 121.76378772032349),22,-5,12,yes,x,5,x,0.5061722000000373,1,63,test1,1,0.5062742000000071,-50.0
17,lzb,f,19,r,1,(172.20000000000002, 0.0),21,-7,13,yes,x,5,x,0.534645100000489,1,64,test1,1,0.5348930000000109,-52.0
17,lzb,f,19,r,1,(172.20000000000002, 0.0),21,-7,13,yes,x,5,x,0.5788189000004422,1,65,test1,1,0.5790544000001319,-52.0
17,lzb,f,19,r,1,(121.76378772032346, -121.76378772032352),28,5,2,yes,x,5,x,0.8167797000005521,1,66,test1,1,0.8170083999993949,-40.0
17,lzb,f,19,r,1,(172.20000000000002, 0.0),21,3,1,no,m,6,m,0.8019460999994408,1,67,test1,1,0.8020457000002352,-40.0
17,lzb,f,19,r,1,(1.0544208940658713e-14, 172.20000000000002),23,-3,11,no,m,6,m,0.8751002999997581,1,68,test1,1,0.8753132000001642,-40.0
17,lzb,f,19,r,1,(-172.20000000000002, 2.1088417881317425e-14),25,-5,12,yes,x,5,x,0.6156737999999677,1,69,test1,1,0.6157827999995789,-50.0
17,lzb,f,19,r,1,(172.20000000000002, 0.0),21,-3,11,no,m,6,m,0.7597203999994235,1,70,test1,1,0.7598588999999265,-50.0
17,lzb,f,19,r,1,(-172.20000000000002, 2.1088417881317425e-14),25,-7,13,yes,x,5,x,0.6454196000004231,1,71,test1,1,0.6457024999999703,-52.0
17,lzb,f,19,r,1,(1.0544208940658713e-14, 172.20000000000002),23,7,3,no,m,6,m,0.6457476999994469,1,72,test1,1,0.6458505999999034,-52.0
17,lzb,f,19,r,1,(1.0544208940658713e-14, 172.20000000000002),23,25,4,no,m,6,m,0.7025401000000784,1,73,test1,1,0.702655500000219,-52.0
17,lzb,f,19,r,1,(172.20000000000002, 0.0),21,-25,14,yes,x,5,x,0.47925930000019434,1,74,test1,1,0.47937439999986964,-70.0
17,lzb,f,19,r,1,(172.20000000000002, 0.0),21,-3,11,yes,x,5,x,0.7496424000000843,1,75,test1,1,0.7499691000002713,-48.0
17,lzb,f,19,r,1,(-121.76378772032348, 121.76378772032349),24,3,1,no,m,6,m,0.6731994000001578,1,76,test1,1,0.673723500000051,-48.0
17,lzb,f,19,r,1,(-3.163262682197613e-14, -172.20000000000002),27,25,4,yes,x,5,x,0.5370978000000832,1,77,test1,1,0.537196600000243,-20.0
17,lzb,f,19,r,1,(-121.76378772032352, -121.76378772032348),26,-5,12,yes,x,5,x,0.8694489999998041,1,78,test1,1,0.8695502000000488,-50.0
17,lzb,f,19,r,1,(-121.76378772032348, 121.76378772032349),24,-7,13,yes,x,5,x,0.509689100000287,1,79,test1,1,0.5099257000001671,-52.0
17,lzb,f,19,r,1,(121.76378772032346, -121.76378772032352),28,-7,13,yes,x,5,x,0.479030700000294,1,80,test1,1,0.4791281000007075,-52.0
17,lzb,f,19,r,1,(121.76378772032346, -121.76378772032352),28,7,3,no,m,6,m,0.7363189999996393,1,81,test1,1,0.7368022000000565,-52.0
17,lzb,f,19,r,1,(-3.163262682197613e-14, -172.20000000000002),27,-7,13,yes,x,5,x,0.5151788000002853,1,82,test1,1,0.5155757000002268,-52.0
17,lzb,f,19,r,1,(-121.76378772032348, 121.76378772032349),24,7,3,yes,x,5,x,0.5339026000001468,1,83,test1,1,0.5340283000005002,-38.0
17,lzb,f,19,r,1,(172.20000000000002, 0.0),21,25,4,yes,x,5,x,0.4488615000000209,1,84,test1,1,0.44925010000042676,-20.0
17,lzb,f,19,r,1,(121.76378772032349, 121.76378772032349),22,-5,12,no,m,6,m,0.7124521999994613,1,85,test1,1,0.712552400000277,-20.0
17,lzb,f,19,r,1,(121.76378772032349, 121.76378772032349),22,5,2,yes,x,5,m,0.7811930000007123,0,86,test1,1,0.7812932000006185,-40.0
17,lzb,f,19,r,1,(-121.76378772032348, 121.76378772032349),24,-25,14,no,m,6,m,0.7191584000001967,1,87,test1,1,0.7194460999999137,-40.0
17,lzb,f,19,r,1,(1.0544208940658713e-14, 172.20000000000002),23,-25,14,yes,x,5,x,0.5165132000001904,1,88,test1,1,0.5167371000006824,-70.0
17,lzb,f,19,r,1,(121.76378772032349, 121.76378772032349),22,-7,13,yes,x,5,x,0.48783969999931287,1,89,test1,1,0.4881876999997985,-52.0
17,lzb,f,19,r,1,(-121.76378772032348, 121.76378772032349),24,-7,13,no,m,6,m,0.7366019000000961,1,90,test1,1,0.7368421999999555,-52.0
17,lzb,f,19,r,1,(-172.20000000000002, 2.1088417881317425e-14),25,7,3,yes,x,5,x,0.8814628000000084,1,91,test1,1,0.8815923000001931,-38.0
17,lzb,f,19,r,1,(-121.76378772032352, -121.76378772032348),26,-25,14,yes,x,5,x,0.6429757000005338,1,92,test1,1,0.6431215000002339,-70.0
17,lzb,f,19,r,1,(-121.76378772032352, -121.76378772032348),26,7,3,yes,x,5,x,0.6828633000004629,1,93,test1,1,0.6830925999993269,-38.0
17,lzb,f,19,r,1,(-121.76378772032352, -121.76378772032348),26,25,4,yes,x,5,x,0.4580985000002329,1,94,test1,1,0.45821280000018305,-20.0
17,lzb,f,19,r,1,(-3.163262682197613e-14, -172.20000000000002),27,5,2,yes,x,5,x,0.5853193999992072,1,95,test1,1,0.5854607000001124,-40.0
17,lzb,f,19,r,1,(1.0544208940658713e-14, 172.20000000000002),23,-3,11,yes,x,5,x,1.0057679999999891,1,96,test1,1,1.0061672000001636,-48.0
17,lzb,f,19,r,1,(-121.76378772032348, 121.76378772032349),24,25,4,yes,x,5,x,0.5536364999998113,1,1,test2,1,0.5537621000003128,-20.0
17,lzb,f,19,r,1,(121.76378772032346, -121.76378772032352),28,-3,11,yes,x,5,m,0.793951399999969,0,2,test2,1,0.7940496000001076,-48.0
17,lzb,f,19,r,1,(-121.76378772032348, 121.76378772032349),24,-25,14,yes,x,5,x,0.4248494999992545,1,3,test2,1,0.4249472000001333,-70.0
17,lzb,f,19,r,1,(172.20000000000002, 0.0),21,-5,12,yes,x,5,x,0.8223098999997092,1,4,test2,1,0.8224675000001298,-50.0
17,lzb,f,19,r,1,(-121.76378772032352, -121.76378772032348),26,-5,12,no,m,6,m,0.874741599999652,1,5,test2,1,0.8749455000006492,-50.0
17,lzb,f,19,r,1,(-3.163262682197613e-14, -172.20000000000002),27,-5,12,yes,x,5,x,1.0475597999993624,1,6,test2,1,1.0479919999997946,-50.0
17,lzb,f,19,r,1,(121.76378772032349, 121.76378772032349),22,3,1,yes,x,5,x,1.084914299999582,1,7,test2,1,1.0850131999995938,-42.0
17,lzb,f,19,r,1,(121.76378772032346, -121.76378772032352),28,5,2,yes,x,5,x,1.1158102999997936,1,8,test2,1,1.1159753000001729,-40.0
17,lzb,f,19,r,1,(-121.76378772032352, -121.76378772032348),26,-7,13,no,m,6,m,1.1528738999995767,1,9,test2,1,1.1532508999998754,-40.0
17,lzb,f,19,r,1,(-121.76378772032352, -121.76378772032348),26,5,2,yes,x,5,x,0.9510362000000896,1,10,test2,1,0.9511995999991996,-40.0
17,lzb,f,19,r,1,(-172.20000000000002, 2.1088417881317425e-14),25,-3,11,yes,x,5,x,0.8361640999992233,1,11,test2,1,0.8362644999997428,-48.0
17,lzb,f,19,r,1,(-121.76378772032352, -121.76378772032348),26,7,3,yes,x,5,x,0.514165800000228,1,12,test2,1,0.5145578999999998,-38.0
17,lzb,f,19,r,1,(-3.163262682197613e-14, -172.20000000000002),27,3,1,yes,x,5,x,0.5816451999999117,1,13,test2,1,0.581879200000003,-42.0
17,lzb,f,19,r,1,(-172.20000000000002, 2.1088417881317425e-14),25,3,1,yes,x,5,x,0.5345612000000983,1,14,test2,1,0.5348054999994929,-42.0
17,lzb,f,19,r,1,(1.0544208940658713e-14, 172.20000000000002),23,-5,12,yes,x,5,x,0.4870626000001721,1,15,test2,1,0.48737879999953293,-50.0
17,lzb,f,19,r,1,(172.20000000000002, 0.0),21,7,3,no,m,6,m,1.0614691999999195,1,16,test2,1,1.0616809000002831,-50.0
17,lzb,f,19,r,1,(-3.163262682197613e-14, -172.20000000000002),27,-25,14,no,m,6,x,0.9826571000003241,0,17,test2,1,0.9830589000002874,-50.0
17,lzb,f,19,r,1,(-121.76378772032348, 121.76378772032349),24,3,1,yes,x,5,x,0.7028127000003224,1,18,test2,1,0.703109800000675,-42.0
17,lzb,f,19,r,1,(121.76378772032349, 121.76378772032349),22,25,4,yes,x,5,x,0.9941094000005251,1,19,test2,1,0.9945512000003873,-20.0
17,lzb,f,19,r,1,(-172.20000000000002, 2.1088417881317425e-14),25,5,2,yes,x,5,x,0.9527979000004052,1,20,test2,1,0.9531415000001289,-40.0
17,lzb,f,19,r,1,(-172.20000000000002, 2.1088417881317425e-14),25,25,4,yes,x,5,x,0.8483747999998741,1,21,test2,1,0.849013100000775,-20.0
17,lzb,f,19,r,1,(1.0544208940658713e-14, 172.20000000000002),23,-7,13,yes,x,5,x,0.5489240999995673,1,22,test2,1,0.5491564000003564,-52.0
17,lzb,f,19,r,1,(-172.20000000000002, 2.1088417881317425e-14),25,5,2,yes,x,5,x,0.7724675999997999,1,23,test2,1,0.7725650000002133,-40.0
17,lzb,f,19,r,1,(-3.163262682197613e-14, -172.20000000000002),27,-25,14,yes,x,5,x,0.5706682000000001,1,24,test2,1,0.5708388000002742,-70.0
17,lzb,f,19,r,1,(121.76378772032349, 121.76378772032349),22,3,1,yes,x,5,x,1.082931899999494,1,25,test2,1,1.0830337000006693,-42.0
17,lzb,f,19,r,1,(-3.163262682197613e-14, -172.20000000000002),27,-7,13,no,m,6,m,0.9868157000000792,1,26,test2,1,0.9869158999999854,-42.0
17,lzb,f,19,r,1,(121.76378772032346, -121.76378772032352),28,-5,12,no,m,6,m,0.9771912000005614,1,27,test2,1,0.9773071999998137,-42.0
17,lzb,f,19,r,1,(121.76378772032349, 121.76378772032349),22,-25,14,yes,x,5,x,0.5956003999999666,1,28,test2,1,0.5958820999994714,-70.0
17,lzb,f,19,r,1,(1.0544208940658713e-14, 172.20000000000002),23,7,3,yes,x,5,x,0.5164801000000807,1,29,test2,1,0.5167137999997067,-38.0
17,lzb,f,19,r,1,(121.76378772032346, -121.76378772032352),28,-5,12,yes,x,5,x,0.9607415999998921,1,30,test2,1,0.960935299999619,-50.0
17,lzb,f,19,r,1,(-172.20000000000002, 2.1088417881317425e-14),25,25,4,no,m,6,m,1.16305359999933,1,31,test2,1,1.1632245000000694,-50.0
17,lzb,f,19,r,1,(1.0544208940658713e-14, 172.20000000000002),23,3,1,yes,x,5,x,0.700698900000134,1,32,test2,1,0.7009069999994608,-42.0
17,lzb,f,19,r,1,(-121.76378772032348, 121.76378772032349),24,-3,11,yes,x,5,m,0.9685641000005489,0,33,test2,1,0.9690466000001834,-48.0
17,lzb,f,19,r,1,(121.76378772032346, -121.76378772032352),28,7,3,yes,x,5,x,0.682335399999829,1,34,test2,1,0.6824353000001793,-38.0
17,lzb,f,19,r,1,(-3.163262682197613e-14, -172.20000000000002),27,5,2,no,m,6,m,1.0627526999996917,1,35,test2,1,1.062932499999988,-38.0
17,lzb,f,19,r,1,(-121.76378772032352, -121.76378772032348),26,5,2,yes,x,5,x,0.9204075999996348,1,36,test2,1,0.9206573000001299,-40.0
17,lzb,f,19,r,1,(172.20000000000002, 0.0),21,3,1,yes,x,5,x,0.8833443000003172,1,37,test2,1,0.8834426000003077,-42.0
17,lzb,f,19,r,1,(-172.20000000000002, 2.1088417881317425e-14),25,3,1,yes,x,5,x,0.9098697999997967,1,38,test2,1,0.9104746000002706,-42.0
17,lzb,f,19,r,1,(-121.76378772032352, -121.76378772032348),26,25,4,no,m,6,m,0.7771327999998903,1,39,test2,1,0.77742760000001,-42.0
17,lzb,f,19,r,1,(-121.76378772032348, 121.76378772032349),24,5,2,yes,x,5,x,0.6580526999996437,1,40,test2,1,0.6582231000002139,-40.0
17,lzb,f,19,r,1,(-121.76378772032352, -121.76378772032348),26,-3,11,no,m,6,m,0.8656002000006993,1,41,test2,1,0.8660993000003145,-40.0
17,lzb,f,19,r,1,(121.76378772032346, -121.76378772032352),28,7,3,yes,x,5,x,0.7029062000001431,1,42,test2,1,0.7030064999999013,-38.0
17,lzb,f,19,r,1,(172.20000000000002, 0.0),21,25,4,no,m,6,m,1.2585342000002129,1,43,test2,1,1.2586364000007961,-38.0
17,lzb,f,19,r,1,(-121.76378772032348, 121.76378772032349),24,7,3,yes,x,5,x,0.504269199999726,1,44,test2,1,0.5044536999994307,-38.0
17,lzb,f,19,r,1,(121.76378772032346, -121.76378772032352),28,3,1,yes,x,5,x,0.8742197000001397,1,45,test2,1,0.8745044999996026,-42.0
17,lzb,f,19,r,1,(172.20000000000002, 0.0),21,-3,11,yes,x,5,x,0.9967152999997779,1,46,test2,1,0.9968736000000717,-48.0
17,lzb,f,19,r,1,(-121.76378772032348, 121.76378772032349),24,25,4,no,m,6,x,1.1857063999996171,0,47,test2,1,1.1862263000002713,-48.0
17,lzb,f,19,r,1,(121.76378772032346, -121.76378772032352),28,3,1,no,m,6,m,0.7569485999993049,1,48,test2,1,0.7575742999997601,-48.0
17,lzb,f,19,r,1,(-3.163262682197613e-14, -172.20000000000002),27,7,3,yes,x,5,x,0.5377859999998691,1,49,test2,1,0.5383881999996447,-38.0
17,lzb,f,19,r,1,(-3.163262682197613e-14, -172.20000000000002),27,7,3,yes,x,5,x,0.5281493000002229,1,50,test2,1,0.528261499999644,-38.0
17,lzb,f,19,r,1,(-121.76378772032352, -121.76378772032348),26,-7,13,yes,x,5,x,0.6893157999993491,1,51,test2,1,0.6894382999998925,-52.0
17,lzb,f,19,r,1,(-121.76378772032348, 121.76378772032349),24,7,3,no,m,6,m,1.0162686000003305,1,52,test2,1,1.016552899999624,-52.0
17,lzb,f,19,r,1,(121.76378772032346, -121.76378772032352),28,-25,14,yes,x,5,x,0.5353292999998303,1,53,test2,1,0.5357802999997148,-70.0
17,lzb,f,19,r,1,(121.76378772032349, 121.76378772032349),22,5,2,yes,x,5,x,0.590351499999997,1,54,test2,1,0.5904512999995859,-40.0
17,lzb,f,19,r,1,(-3.163262682197613e-14, -172.20000000000002),27,5,2,yes,x,5,x,0.4888578000000052,1,55,test2,1,0.4893274999994901,-40.0
17,lzb,f,19,r,1,(172.20000000000002, 0.0),21,-25,14,no,m,6,m,0.6210641999996369,1,56,test2,1,0.6211629999997967,-40.0
17,lzb,f,19,r,1,(1.0544208940658713e-14, 172.20000000000002),23,-7,13,yes,x,5,x,0.547890699999698,1,57,test2,1,0.5479897000004712,-52.0
17,lzb,f,19,r,1,(121.76378772032349, 121.76378772032349),22,-25,14,no,m,6,m,0.7950561000006928,1,58,test2,1,0.7955084000004717,-52.0
17,lzb,f,19,r,1,(121.76378772032346, -121.76378772032352),28,-3,11,yes,x,5,x,0.7602130999994188,1,59,test2,1,0.760739299999841,-48.0
17,lzb,f,19,r,1,(-121.76378772032352, -121.76378772032348),26,-5,12,yes,x,5,x,0.6796037999993132,1,60,test2,1,0.6798220999999103,-50.0
17,lzb,f,19,r,1,(121.76378772032346, -121.76378772032352),28,-25,14,yes,x,5,x,0.4989201000007597,1,61,test2,1,0.4992339999998876,-70.0
17,lzb,f,19,r,1,(121.76378772032346, -121.76378772032352),28,25,4,yes,x,5,x,0.4213271000007808,1,62,test2,1,0.4215243999997256,-20.0
17,lzb,f,19,r,1,(121.76378772032346, -121.76378772032352),28,-7,13,yes,x,5,x,0.4946117999998023,1,63,test2,1,0.4947402999996484,-52.0
17,lzb,f,19,r,1,(-121.76378772032352, -121.76378772032348),26,7,3,no,m,6,m,0.9415748999999778,1,64,test2,1,0.9416796999994403,-52.0
17,lzb,f,19,r,1,(-3.163262682197613e-14, -172.20000000000002),27,-3,11,yes,x,5,x,0.8751639000001887,1,65,test2,1,0.8754355999999461,-48.0
17,lzb,f,19,r,1,(121.76378772032346, -121.76378772032352),28,5,2,no,m,6,m,1.0699469000001045,1,66,test2,1,1.0700440000000526,-48.0
17,lzb,f,19,r,1,(-3.163262682197613e-14, -172.20000000000002),27,-3,11,yes,x,5,x,0.879618500000106,1,67,test2,1,0.8799125000005006,-48.0
17,lzb,f,19,r,1,(-3.163262682197613e-14, -172.20000000000002),27,-3,11,no,m,6,m,0.735200199999781,1,68,test2,1,0.7354260000001887,-48.0
17,lzb,f,19,r,1,(-121.76378772032352, -121.76378772032348),26,3,1,yes,x,5,m,0.8013375999998971,0,69,test2,1,0.8016129999996338,-42.0
17,lzb,f,19,r,1,(-172.20000000000002, 2.1088417881317425e-14),25,-25,14,yes,x,5,x,0.5416706000005433,1,70,test2,1,0.5417948999993314,-70.0
17,lzb,f,19,r,1,(121.76378772032346, -121.76378772032352),28,-3,11,no,m,6,m,0.8151189999998678,1,71,test2,1,0.8152618000003713,-70.0
17,lzb,f,19,r,1,(-121.76378772032352, -121.76378772032348),26,-7,13,yes,x,5,x,0.5662373999994088,1,72,test2,1,0.5664706000006845,-52.0
17,lzb,f,19,r,1,(-121.76378772032352, -121.76378772032348),26,-25,14,no,m,6,m,0.7151076999998622,1,73,test2,1,0.7152071999998952,-52.0
17,lzb,f,19,r,1,(1.0544208940658713e-14, 172.20000000000002),23,3,1,yes,x,5,m,1.0118475999997827,0,74,test2,1,1.0119808999997986,-42.0
17,lzb,f,19,r,1,(121.76378772032346, -121.76378772032352),28,-7,13,no,m,6,m,0.92002870000033,1,75,test2,1,0.9204252999998062,-42.0
17,lzb,f,19,r,1,(172.20000000000002, 0.0),21,5,2,no,m,6,m,1.215151600000354,1,76,test2,1,1.2152738999993744,-42.0
17,lzb,f,19,r,1,(-3.163262682197613e-14, -172.20000000000002),27,-5,12,no,m,6,m,1.0106987000008303,1,77,test2,1,1.0108002000006309,-42.0
17,lzb,f,19,r,1,(1.0544208940658713e-14, 172.20000000000002),23,-7,13,no,m,6,m,0.9388337999998839,1,78,test2,1,0.9393078000002788,-42.0
17,lzb,f,19,r,1,(172.20000000000002, 0.0),21,25,4,yes,x,5,x,0.5922376999997141,1,79,test2,1,0.5924913999997443,-20.0
17,lzb,f,19,r,1,(-121.76378772032352, -121.76378772032348),26,-3,11,yes,x,5,x,0.5950207999994745,1,80,test2,1,0.5951465999996799,-48.0
17,lzb,f,19,r,1,(121.76378772032349, 121.76378772032349),22,7,3,no,m,6,m,0.9588157999996838,1,81,test2,1,0.9590387999996892,-48.0
17,lzb,f,19,r,1,(121.76378772032346, -121.76378772032352),28,3,1,yes,x,5,x,0.9035819999999148,1,82,test2,1,0.9040784999997413,-42.0
17,lzb,f,19,r,1,(-121.76378772032348, 121.76378772032349),24,-5,12,no,m,6,x,1.0659279999999853,0,83,test2,1,1.0661478000001807,-42.0
17,lzb,f,19,r,1,(-172.20000000000002, 2.1088417881317425e-14),25,-3,11,no,m,6,m,0.9128608999999415,1,84,test2,1,0.9129627000002074,-42.0
17,lzb,f,19,r,1,(172.20000000000002, 0.0),21,-7,13,no,m,6,m,0.987243500000659,1,85,test2,1,0.987478199999714,-42.0
17,lzb,f,19,r,1,(1.0544208940658713e-14, 172.20000000000002),23,3,1,no,m,6,m,0.978786300000138,1,86,test2,1,0.9790136000001439,-42.0
17,lzb,f,19,r,1,(-3.163262682197613e-14, -172.20000000000002),27,-25,14,yes,x,5,x,0.5870047999997041,1,87,test2,1,0.5872979000005216,-70.0
17,lzb,f,19,r,1,(-172.20000000000002, 2.1088417881317425e-14),25,25,4,yes,x,5,x,0.44735789999958797,1,88,test2,1,0.4475411000003078,-20.0
17,lzb,f,19,r,1,(121.76378772032349, 121.76378772032349),22,-7,13,yes,x,5,x,0.509586400000444,1,89,test2,1,0.5100542999998652,-52.0
17,lzb,f,19,r,1,(121.76378772032349, 121.76378772032349),22,-7,13,no,m,6,m,1.0311649000004763,1,90,test2,1,1.031438299999536,-52.0
17,lzb,f,19,r,1,(121.76378772032349, 121.76378772032349),22,7,3,yes,x,5,x,0.5449197000007189,1,91,test2,1,0.5450885999998718,-38.0
17,lzb,f,19,r,1,(172.20000000000002, 0.0),21,-5,12,yes,x,5,x,0.5671403999995164,1,92,test2,1,0.5673868000003495,-50.0
17,lzb,f,19,r,1,(172.20000000000002, 0.0),21,5,2,yes,x,5,x,0.5607641999995394,1,93,test2,1,0.5609837000001789,-40.0
17,lzb,f,19,r,1,(172.20000000000002, 0.0),21,7,3,yes,x,5,x,0.48474029999943014,1,94,test2,1,0.48513789999924484,-38.0
17,lzb,f,19,r,1,(-172.20000000000002, 2.1088417881317425e-14),25,5,2,no,m,6,m,0.7510251000003336,1,95,test2,1,0.7512538000000859,-38.0
17,lzb,f,19,r,1,(-121.76378772032352, -121.76378772032348),26,25,4,yes,x,5,x,0.6629277999991245,1,96,test2,1,0.6631272999993598,-20.0
17,lzb,f,19,r,1,(-172.20000000000002, 2.1088417881317425e-14),25,7,3,no,m,6,m,1.241852399999516,1,1,test1,2,1.2424503000002005,-20.0
17,lzb,f,19,r,1,(121.76378772032346, -121.76378772032352),28,-5,12,yes,x,5,x,0.6293255000000499,1,2,test1,2,0.6295166999998401,-50.0
17,lzb,f,19,r,1,(-172.20000000000002, 2.1088417881317425e-14),25,3,1,no,m,6,m,0.9019877999999153,1,3,test1,2,0.9022802999998021,-50.0
17,lzb,f,19,r,1,(121.76378772032349, 121.76378772032349),22,-3,11,yes,x,5,x,0.7617055000000619,1,4,test1,2,0.7619040999998106,-48.0
17,lzb,f,19,r,1,(121.76378772032349, 121.76378772032349),22,3,1,no,m,6,m,1.0156791000008525,1,5,test1,2,1.0157793999997011,-48.0
17,lzb,f,19,r,1,(172.20000000000002, 0.0),21,5,2,yes,x,5,x,0.7579295000005004,1,6,test1,2,0.7581127999992532,-40.0
17,lzb,f,19,r,1,(-3.163262682197613e-14, -172.20000000000002),27,3,1,no,m,6,m,0.9482721000003949,1,7,test1,2,0.9484321999998429,-40.0
17,lzb,f,19,r,1,(-172.20000000000002, 2.1088417881317425e-14),25,-3,11,yes,x,5,x,0.7985357999996268,1,8,test1,2,0.7987438000000111,-48.0
17,lzb,f,19,r,1,(-3.163262682197613e-14, -172.20000000000002),27,25,4,yes,x,5,x,0.5678932000000714,1,9,test1,2,0.5679904999997234,-20.0
17,lzb,f,19,r,1,(-121.76378772032352, -121.76378772032348),26,3,1,no,m,6,m,1.2627301000002262,1,10,test1,2,1.2629249999999956,-20.0
17,lzb,f,19,r,1,(-121.76378772032352, -121.76378772032348),26,-3,11,yes,x,5,m,0.8206786000000648,0,11,test1,2,0.8209742000008191,-48.0
17,lzb,f,19,r,1,(121.76378772032349, 121.76378772032349),22,7,3,yes,x,5,x,0.576997900000606,1,12,test1,2,0.57713430000058,-38.0
17,lzb,f,19,r,1,(1.0544208940658713e-14, 172.20000000000002),23,25,4,yes,x,5,x,0.48396170000069105,1,13,test1,2,0.48437570000078267,-20.0
17,lzb,f,19,r,1,(121.76378772032349, 121.76378772032349),22,25,4,no,m,6,m,0.8347263999994539,1,14,test1,2,0.8348510999994687,-20.0
17,lzb,f,19,r,1,(-172.20000000000002, 2.1088417881317425e-14),25,-5,12,no,m,6,m,0.9082414000004064,1,15,test1,2,0.9083436000000802,-20.0
17,lzb,f,19,r,1,(172.20000000000002, 0.0),21,-25,14,yes,x,5,x,0.4801015000002735,1,16,test1,2,0.4802235999995901,-70.0
17,lzb,f,19,r,1,(-121.76378772032352, -121.76378772032348),26,5,2,no,m,6,m,0.8051299999997354,1,17,test1,2,0.8054790999995021,-70.0
17,lzb,f,19,r,1,(1.0544208940658713e-14, 172.20000000000002),23,-25,14,yes,x,5,x,0.4310259000003498,1,18,test1,2,0.43118800000047486,-70.0
17,lzb,f,19,r,1,(-172.20000000000002, 2.1088417881317425e-14),25,-7,13,yes,x,5,x,0.49878160000025673,1,19,test1,2,0.49916399999983696,-52.0
17,lzb,f,19,r,1,(-172.20000000000002, 2.1088417881317425e-14),25,-7,13,no,m,6,m,0.8294397999998182,1,20,test1,2,0.8297002999997858,-52.0
17,lzb,f,19,r,1,(121.76378772032346, -121.76378772032352),28,25,4,no,m,6,m,0.7709877999996024,1,21,test1,2,0.771088200000122,-52.0
17,lzb,f,19,r,1,(-121.76378772032348, 121.76378772032349),24,5,2,yes,x,5,x,0.9122828999998092,1,22,test1,2,0.9126576999997269,-40.0
17,lzb,f,19,r,1,(121.76378772032349, 121.76378772032349),22,-5,12,yes,x,5,x,0.5133549000001949,1,23,test1,2,0.5134837999994488,-50.0
17,lzb,f,19,r,1,(-172.20000000000002, 2.1088417881317425e-14),25,-5,12,yes,x,5,x,0.49139670000022306,1,24,test1,2,0.49179800000001705,-50.0
17,lzb,f,19,r,1,(-3.163262682197613e-14, -172.20000000000002),27,-7,13,yes,x,5,x,0.509379699999954,1,25,test1,2,0.5095375999999305,-52.0
17,lzb,f,19,r,1,(-172.20000000000002, 2.1088417881317425e-14),25,7,3,yes,x,5,x,0.6052683999996589,1,26,test1,2,0.6059305000007953,-38.0
17,lzb,f,19,r,1,(-172.20000000000002, 2.1088417881317425e-14),25,-25,14,yes,x,5,x,0.5147646000004897,1,27,test1,2,0.5149007999998503,-70.0
17,lzb,f,19,r,1,(172.20000000000002, 0.0),21,7,3,yes,x,5,x,0.5954562999995687,1,28,test1,2,0.5956857000001037,-38.0
17,lzb,f,19,r,1,(-121.76378772032348, 121.76378772032349),24,-25,14,yes,x,5,x,0.6220464000007269,1,29,test1,2,0.6221478000006755,-70.0
17,lzb,f,19,r,1,(-121.76378772032352, -121.76378772032348),26,3,1,yes,x,5,m,0.913213399999222,0,30,test1,2,0.9134289000003264,-42.0
17,lzb,f,19,r,1,(-3.163262682197613e-14, -172.20000000000002),27,-5,12,yes,x,5,x,0.5032219999993686,1,31,test1,2,0.5034649999997782,-50.0
17,lzb,f,19,r,1,(1.0544208940658713e-14, 172.20000000000002),23,25,4,yes,x,5,x,0.5052417999995669,1,32,test1,2,0.5054835999999341,-20.0
17,lzb,f,19,r,1,(121.76378772032349, 121.76378772032349),22,25,4,yes,x,5,x,0.47883230000024923,1,33,test1,2,0.47935190000043804,-20.0
17,lzb,f,19,r,1,(172.20000000000002, 0.0),21,-5,12,no,m,6,m,1.0479270999994696,1,34,test1,2,1.0480423999997583,-20.0
17,lzb,f,19,r,1,(-121.76378772032348, 121.76378772032349),24,5,2,no,m,6,m,0.8154031999993094,1,35,test1,2,0.8156501000003118,-20.0
17,lzb,f,19,r,1,(-121.76378772032348, 121.76378772032349),24,25,4,yes,x,5,x,0.45319000000017695,1,36,test1,2,0.4534215999992739,-20.0
17,lzb,f,19,r,1,(1.0544208940658713e-14, 172.20000000000002),23,5,2,yes,x,5,x,0.6411360000001878,1,37,test1,2,0.6414427999998225,-40.0
17,lzb,f,19,r,1,(-3.163262682197613e-14, -172.20000000000002),27,25,4,no,m,6,m,0.9391006999994715,1,38,test1,2,0.9394942999997511,-40.0
17,lzb,f,19,r,1,(-121.76378772032348, 121.76378772032349),24,3,1,yes,x,5,x,0.6489516000001458,1,39,test1,2,0.6492754000000787,-42.0
17,lzb,f,19,r,1,(-3.163262682197613e-14, -172.20000000000002),27,7,3,no,m,6,m,0.7094109999998182,1,40,test1,2,0.7095169000003807,-42.0
17,lzb,f,19,r,1,(1.0544208940658713e-14, 172.20000000000002),23,5,2,yes,x,5,x,0.7814169000002948,1,41,test1,2,0.7815736000002289,-40.0
17,lzb,f,19,r,1,(1.0544208940658713e-14, 172.20000000000002),23,-25,14,no,m,6,m,0.7353737000003093,1,42,test1,2,0.735779999999977,-40.0
17,lzb,f,19,r,1,(1.0544208940658713e-14, 172.20000000000002),23,-3,11,yes,x,5,x,0.7089720000003581,1,43,test1,2,0.7091294000001653,-48.0
17,lzb,f,19,r,1,(121.76378772032349, 121.76378772032349),22,-3,11,no,m,6,m,1.0548090000002048,1,44,test1,2,1.0549349000002621,-48.0
17,lzb,f,19,r,1,(-3.163262682197613e-14, -172.20000000000002),27,3,1,yes,x,5,x,0.5326057000002038,1,45,test1,2,0.5330394000002343,-42.0
17,lzb,f,19,r,1,(1.0544208940658713e-14, 172.20000000000002),23,-5,12,no,m,6,m,0.8446171999994476,1,46,test1,2,0.8448008000004847,-42.0
17,lzb,f,19,r,1,(172.20000000000002, 0.0),21,3,1,yes,x,5,m,0.775684000000183,0,47,test1,2,0.7760726000005889,-42.0
17,lzb,f,19,r,1,(-172.20000000000002, 2.1088417881317425e-14),25,-25,14,no,m,6,m,0.7387180000005173,1,48,test1,2,0.7390595999995639,-42.0
17,lzb,f,19,r,1,(-121.76378772032348, 121.76378772032349),24,-7,13,yes,x,5,x,0.5823145999993358,1,49,test1,2,0.5829418000002988,-52.0
17,lzb,f,19,r,1,(-121.76378772032348, 121.76378772032349),24,-3,11,no,m,6,m,0.7423977999997078,1,50,test1,2,0.7426488999999492,-52.0
17,lzb,f,19,r,1,(-121.76378772032352, -121.76378772032348),26,-25,14,yes,x,5,x,0.42169170000033773,1,51,test1,2,0.4221859000008408,-70.0
17,lzb,f,19,r,1,(121.76378772032349, 121.76378772032349),22,-3,11,yes,x,5,m,0.7733470000002853,0,52,test1,2,0.7734653999996226,-48.0
17,lzb,f,19,r,1,(-121.76378772032348, 121.76378772032349),24,-5,12,yes,x,5,x,0.7668372000007366,1,53,test1,2,0.7671259999997346,-50.0
17,lzb,f,19,r,1,(121.76378772032349, 121.76378772032349),22,5,2,no,m,6,x,0.6393622999994477,0,54,test1,2,0.6396361000006436,-50.0
17,lzb,f,19,r,1,(1.0544208940658713e-14, 172.20000000000002),23,7,3,yes,x,5,x,0.5631509000004371,1,55,test1,2,0.5633864999999787,-38.0
17,lzb,f,19,r,1,(-121.76378772032348, 121.76378772032349),24,-5,12,yes,x,5,x,0.5792030000002342,1,56,test1,2,0.5793023000005633,-50.0
17,lzb,f,19,r,1,(1.0544208940658713e-14, 172.20000000000002),23,5,2,no,m,6,m,0.9170441999995091,1,57,test1,2,0.9172121999999945,-50.0
17,lzb,f,19,r,1,(121.76378772032346, -121.76378772032352),28,-25,14,no,m,6,m,0.9741858999996111,1,58,test1,2,0.9747348999999303,-50.0
17,lzb,f,19,r,1,(1.0544208940658713e-14, 172.20000000000002),23,-5,12,yes,x,5,x,0.676922900000136,1,59,test1,2,0.6772103999992396,-50.0
17,lzb,f,19,r,1,(121.76378772032349, 121.76378772032349),22,-25,14,yes,x,5,x,0.5344378999998298,1,60,test1,2,0.5346013999997012,-70.0
17,lzb,f,19,r,1,(121.76378772032346, -121.76378772032352),28,25,4,yes,x,5,x,0.547313099999883,1,61,test1,2,0.547546599999805,-20.0
17,lzb,f,19,r,1,(-121.76378772032348, 121.76378772032349),24,-3,11,yes,x,5,x,1.0151038999993034,1,62,test1,2,1.0153989999998885,-48.0
17,lzb,f,19,r,1,(121.76378772032349, 121.76378772032349),22,-5,12,yes,x,5,x,0.576086199999736,1,63,test1,2,0.5763037999995504,-50.0
17,lzb,f,19,r,1,(172.20000000000002, 0.0),21,-7,13,yes,x,5,x,0.4943273999997473,1,64,test1,2,0.49445400000058726,-52.0
17,lzb,f,19,r,1,(172.20000000000002, 0.0),21,-7,13,yes,x,5,x,0.5968462000000727,1,65,test1,2,0.5969563000007838,-52.0
17,lzb,f,19,r,1,(121.76378772032346, -121.76378772032352),28,5,2,yes,x,5,x,0.5750396000003093,1,66,test1,2,0.5754486999994697,-40.0
17,lzb,f,19,r,1,(172.20000000000002, 0.0),21,3,1,no,m,6,m,1.0247723000002225,1,67,test1,2,1.0249979999998686,-40.0
17,lzb,f,19,r,1,(1.0544208940658713e-14, 172.20000000000002),23,-3,11,no,m,6,m,0.9774269999998069,1,68,test1,2,0.9777670999992552,-40.0
17,lzb,f,19,r,1,(-172.20000000000002, 2.1088417881317425e-14),25,-5,12,yes,x,5,x,0.8140683999999965,1,69,test1,2,0.8143762999998216,-50.0
17,lzb,f,19,r,1,(172.20000000000002, 0.0),21,-3,11,no,m,6,m,0.8130473999999595,1,70,test1,2,0.813264700000218,-50.0
17,lzb,f,19,r,1,(-172.20000000000002, 2.1088417881317425e-14),25,-7,13,yes,x,5,x,0.6142841999999291,1,71,test1,2,0.6144694000004165,-52.0
17,lzb,f,19,r,1,(1.0544208940658713e-14, 172.20000000000002),23,7,3,no,m,6,m,0.7364778999999544,1,72,test1,2,0.736576100000093,-52.0
17,lzb,f,19,r,1,(1.0544208940658713e-14, 172.20000000000002),23,25,4,no,m,6,m,0.8928320000004533,1,73,test1,2,0.8934693999999581,-52.0
17,lzb,f,19,r,1,(172.20000000000002, 0.0),21,-25,14,yes,x,5,x,0.6705708999998024,1,74,test1,2,0.670672199999899,-70.0
17,lzb,f,19,r,1,(172.20000000000002, 0.0),21,-3,11,yes,x,5,x,0.9730283999997482,1,75,test1,2,0.9731534000002284,-48.0
17,lzb,f,19,r,1,(-121.76378772032348, 121.76378772032349),24,3,1,no,m,6,m,1.071190999999999,1,76,test1,2,1.0714963999998872,-48.0
17,lzb,f,19,r,1,(-3.163262682197613e-14, -172.20000000000002),27,25,4,yes,x,5,x,0.6303453000000445,1,77,test1,2,0.6305301000002146,-20.0
17,lzb,f,19,r,1,(-121.76378772032352, -121.76378772032348),26,-5,12,yes,x,5,x,0.921875,1,78,test1,2,0.9221397999999681,-50.0
17,lzb,f,19,r,1,(-121.76378772032348, 121.76378772032349),24,-7,13,yes,x,5,x,0.6225259000002552,1,79,test1,2,0.6226459999998042,-52.0
17,lzb,f,19,r,1,(121.76378772032346, -121.76378772032352),28,-7,13,yes,x,5,x,0.5939226999998937,1,80,test1,2,0.594158900000366,-52.0
17,lzb,f,19,r,1,(121.76378772032346, -121.76378772032352),28,7,3,no,m,6,m,0.8906085999997231,1,81,test1,2,0.8907343999999284,-52.0
17,lzb,f,19,r,1,(-3.163262682197613e-14, -172.20000000000002),27,-7,13,yes,x,5,x,0.5264951000008296,1,82,test1,2,0.5269490000000587,-52.0
17,lzb,f,19,r,1,(-121.76378772032348, 121.76378772032349),24,7,3,yes,x,5,x,0.6207844999998997,1,83,test1,2,0.6208836999994674,-38.0
17,lzb,f,19,r,1,(172.20000000000002, 0.0),21,25,4,yes,x,5,x,0.5004300000000512,1,84,test1,2,0.5005928999999014,-20.0
17,lzb,f,19,r,1,(121.76378772032349, 121.76378772032349),22,-5,12,no,m,6,x,0.891071600000032,0,85,test1,2,0.8912159999999858,-20.0
17,lzb,f,19,r,1,(121.76378772032349, 121.76378772032349),22,5,2,yes,x,5,x,0.6913264000004347,1,86,test1,2,0.691604699999516,-40.0
17,lzb,f,19,r,1,(-121.76378772032348, 121.76378772032349),24,-25,14,no,m,6,m,0.885112100000697,1,87,test1,2,0.8852109999997992,-40.0
17,lzb,f,19,r,1,(1.0544208940658713e-14, 172.20000000000002),23,-25,14,yes,x,5,x,0.4864154000006238,1,88,test1,2,0.48693329999969137,-70.0
17,lzb,f,19,r,1,(121.76378772032349, 121.76378772032349),22,-7,13,yes,x,5,x,0.5193304999993416,1,89,test1,2,0.5194572999998854,-52.0
17,lzb,f,19,r,1,(-121.76378772032348, 121.76378772032349),24,-7,13,no,m,6,m,0.7385654999998224,1,90,test1,2,0.738663500000257,-52.0
17,lzb,f,19,r,1,(-172.20000000000002, 2.1088417881317425e-14),25,7,3,yes,x,5,x,0.43894510000063747,1,91,test1,2,0.4392631999999139,-38.0
17,lzb,f,19,r,1,(-121.76378772032352, -121.76378772032348),26,-25,14,yes,x,5,x,0.49962460000006104,1,92,test1,2,0.4999687999998059,-70.0
17,lzb,f,19,r,1,(-121.76378772032352, -121.76378772032348),26,7,3,yes,x,5,x,0.5192663000007087,1,93,test1,2,0.519495000000461,-38.0
17,lzb,f,19,r,1,(-121.76378772032352, -121.76378772032348),26,25,4,yes,x,5,x,0.5385438000002978,1,94,test1,2,0.5387628999997105,-20.0
17,lzb,f,19,r,1,(-3.163262682197613e-14, -172.20000000000002),27,5,2,yes,x,5,x,0.7368515999996816,1,95,test1,2,0.7369570999999269,-40.0
17,lzb,f,19,r,1,(1.0544208940658713e-14, 172.20000000000002),23,-3,11,yes,x,5,x,0.6834587000003012,1,96,test1,2,0.6835815000004004,-48.0
17,lzb,f,19,r,1,(-121.76378772032348, 121.76378772032349),24,25,4,yes,x,5,x,0.5344550999998319,1,1,test2,2,0.5351289999998698,-20.0
17,lzb,f,19,r,1,(121.76378772032346, -121.76378772032352),28,-3,11,yes,x,5,x,0.8871253999996043,1,2,test2,2,0.8872845000005327,-48.0
17,lzb,f,19,r,1,(-121.76378772032348, 121.76378772032349),24,-25,14,yes,x,5,x,0.5160194999998566,1,3,test2,2,0.5161443999995754,-70.0
17,lzb,f,19,r,1,(172.20000000000002, 0.0),21,-5,12,yes,x,5,x,0.5920180000002802,1,4,test2,2,0.5923728999996456,-50.0
17,lzb,f,19,r,1,(-121.76378772032352, -121.76378772032348),26,-5,12,no,m,6,x,0.7402064000007158,0,5,test2,2,0.7407378999996581,-50.0
17,lzb,f,19,r,1,(-3.163262682197613e-14, -172.20000000000002),27,-5,12,yes,x,5,x,0.8310821999994005,1,6,test2,2,0.8311871999994764,-50.0
17,lzb,f,19,r,1,(121.76378772032349, 121.76378772032349),22,3,1,yes,x,5,m,0.7177402999996048,0,7,test2,2,0.7178389999999126,-42.0
17,lzb,f,19,r,1,(121.76378772032346, -121.76378772032352),28,5,2,yes,x,5,x,0.778869400000076,1,8,test2,2,0.7790242999999464,-40.0
17,lzb,f,19,r,1,(-121.76378772032352, -121.76378772032348),26,-7,13,no,m,6,m,0.7518964000000778,1,9,test2,2,0.7520236000000295,-40.0
17,lzb,f,19,r,1,(-121.76378772032352, -121.76378772032348),26,5,2,yes,x,5,x,1.0945975000004182,1,10,test2,2,1.0946975000006205,-40.0
17,lzb,f,19,r,1,(-172.20000000000002, 2.1088417881317425e-14),25,-3,11,yes,x,5,m,0.8966504999998506,0,11,test2,2,0.8968049000004612,-48.0
17,lzb,f,19,r,1,(-121.76378772032352, -121.76378772032348),26,7,3,yes,x,5,x,0.5496869999997216,1,12,test2,2,0.5499723000002632,-38.0
17,lzb,f,19,r,1,(-3.163262682197613e-14, -172.20000000000002),27,3,1,yes,x,5,x,0.8390570999999909,1,13,test2,2,0.8391835000002175,-42.0
17,lzb,f,19,r,1,(-172.20000000000002, 2.1088417881317425e-14),25,3,1,yes,x,5,x,0.869144199999937,1,14,test2,2,0.8692956000004415,-42.0
17,lzb,f,19,r,1,(1.0544208940658713e-14, 172.20000000000002),23,-5,12,yes,x,5,x,0.6245659999995041,1,15,test2,2,0.624982700000146,-50.0
17,lzb,f,19,r,1,(172.20000000000002, 0.0),21,7,3,no,m,6,x,0.9447564000001876,0,16,test2,2,0.9448686000005182,-50.0
17,lzb,f,19,r,1,(-3.163262682197613e-14, -172.20000000000002),27,-25,14,no,m,6,m,0.9942314999998416,1,17,test2,2,0.9946130999996967,-50.0
17,lzb,f,19,r,1,(-121.76378772032348, 121.76378772032349),24,3,1,yes,x,5,x,0.770201199999974,1,18,test2,2,0.7703637000004164,-42.0
17,lzb,f,19,r,1,(121.76378772032349, 121.76378772032349),22,25,4,yes,x,5,x,0.5558698999993794,1,19,test2,2,0.556061199999931,-20.0
17,lzb,f,19,r,1,(-172.20000000000002, 2.1088417881317425e-14),25,5,2,yes,x,5,x,0.7734222999997655,1,20,test2,2,0.7736433999998553,-40.0
17,lzb,f,19,r,1,(-172.20000000000002, 2.1088417881317425e-14),25,25,4,yes,x,5,x,0.5049533000001247,1,21,test2,2,0.5050541999999041,-20.0
17,lzb,f,19,r,1,(1.0544208940658713e-14, 172.20000000000002),23,-7,13,yes,x,5,x,0.5006977000002735,1,22,test2,2,0.5010910000000877,-52.0
17,lzb,f,19,r,1,(-172.20000000000002, 2.1088417881317425e-14),25,5,2,yes,x,5,x,0.5282507000001715,1,23,test2,2,0.5283416999991459,-40.0
17,lzb,f,19,r,1,(-3.163262682197613e-14, -172.20000000000002),27,-25,14,yes,x,5,x,0.6959785000008196,1,24,test2,2,0.6961363000000347,-70.0
17,lzb,f,19,r,1,(121.76378772032349, 121.76378772032349),22,3,1,yes,x,5,m,0.9833808000003046,0,25,test2,2,0.9834953999998106,-42.0
17,lzb,f,19,r,1,(-3.163262682197613e-14, -172.20000000000002),27,-7,13,no,m,6,m,1.0307419000000664,1,26,test2,2,1.0308426000001418,-42.0
17,lzb,f,19,r,1,(121.76378772032346, -121.76378772032352),28,-5,12,no,m,6,x,1.4516651000003549,0,27,test2,2,1.4518620999997438,-42.0
17,lzb,f,19,r,1,(121.76378772032349, 121.76378772032349),22,-25,14,yes,x,5,x,0.4778440000000046,1,28,test2,2,0.4779478000000381,-70.0
17,lzb,f,19,r,1,(1.0544208940658713e-14, 172.20000000000002),23,7,3,yes,x,5,x,0.5112527999999656,1,29,test2,2,0.5113950000004479,-38.0
17,lzb,f,19,r,1,(121.76378772032346, -121.76378772032352),28,-5,12,yes,x,5,x,0.7836606000000756,1,30,test2,2,0.7838411000002452,-50.0
17,lzb,f,19,r,1,(-172.20000000000002, 2.1088417881317425e-14),25,25,4,no,m,6,m,0.938048300000446,1,31,test2,2,0.9382839999998396,-50.0
17,lzb,f,19,r,1,(1.0544208940658713e-14, 172.20000000000002),23,3,1,yes,x,5,x,0.8236886000004233,1,32,test2,2,0.8240546000006361,-42.0
17,lzb,f,19,r,1,(-121.76378772032348, 121.76378772032349),24,-3,11,yes,x,5,x,0.8941740000000209,1,33,test2,2,0.8943225000002712,-48.0
17,lzb,f,19,r,1,(121.76378772032346, -121.76378772032352),28,7,3,yes,x,5,x,0.5828480000000127,1,34,test2,2,0.5829754999995203,-38.0
17,lzb,f,19,r,1,(-3.163262682197613e-14, -172.20000000000002),27,5,2,no,m,6,m,1.0329148000000714,1,35,test2,2,1.0330179000002317,-38.0
17,lzb,f,19,r,1,(-121.76378772032352, -121.76378772032348),26,5,2,yes,x,5,x,0.570788399999401,1,36,test2,2,0.5709039000003031,-40.0
17,lzb,f,19,r,1,(172.20000000000002, 0.0),21,3,1,yes,x,5,x,1.0932442000002993,1,37,test2,2,1.0934683999994377,-42.0
17,lzb,f,19,r,1,(-172.20000000000002, 2.1088417881317425e-14),25,3,1,yes,x,5,x,0.546709400000509,1,38,test2,2,0.5468283000000156,-42.0
17,lzb,f,19,r,1,(-121.76378772032352, -121.76378772032348),26,25,4,no,m,6,x,1.117005799999788,0,39,test2,2,1.1172457000002396,-42.0
17,lzb,f,19,r,1,(-121.76378772032348, 121.76378772032349),24,5,2,yes,x,5,x,0.9822140999995099,1,40,test2,2,0.9826490999994348,-40.0
17,lzb,f,19,r,1,(-121.76378772032352, -121.76378772032348),26,-3,11,no,m,6,x,1.248996100000113,0,41,test2,2,1.2491191999997682,-40.0
17,lzb,f,19,r,1,(121.76378772032346, -121.76378772032352),28,7,3,yes,x,5,x,0.8907977000008032,1,42,test2,2,0.8909131999998863,-38.0
17,lzb,f,19,r,1,(172.20000000000002, 0.0),21,25,4,no,m,6,x,1.0474162000000433,0,43,test2,2,1.0476388999995834,-38.0
17,lzb,f,19,r,1,(-121.76378772032348, 121.76378772032349),24,7,3,yes,x,5,x,0.5896255999996356,1,44,test2,2,0.5897924000000785,-38.0
17,lzb,f,19,r,1,(121.76378772032346, -121.76378772032352),28,3,1,yes,x,5,x,0.8624159999999392,1,45,test2,2,0.8628105000007054,-42.0
17,lzb,f,19,r,1,(172.20000000000002, 0.0),21,-3,11,yes,x,5,m,1.0374839999994947,0,46,test2,2,1.0377237000002424,-48.0
17,lzb,f,19,r,1,(-121.76378772032348, 121.76378772032349),24,25,4,no,m,6,m,0.947599000000082,1,47,test2,2,0.9476936000000933,-48.0
17,lzb,f,19,r,1,(121.76378772032346, -121.76378772032352),28,3,1,no,m,6,m,0.9931088999992426,1,48,test2,2,0.9934732000001532,-48.0
17,lzb,f,19,r,1,(-3.163262682197613e-14, -172.20000000000002),27,7,3,yes,x,5,x,0.6942191999996794,1,49,test2,2,0.69433140000001,-38.0
17,lzb,f,19,r,1,(-3.163262682197613e-14, -172.20000000000002),27,7,3,yes,x,5,x,0.5813724999998158,1,50,test2,2,0.5815945000003921,-38.0
17,lzb,f,19,r,1,(-121.76378772032352, -121.76378772032348),26,-7,13,yes,x,5,x,0.6059824999992998,1,51,test2,2,0.6061773999999787,-52.0
17,lzb,f,19,r,1,(-121.76378772032348, 121.76378772032349),24,7,3,no,m,6,m,0.9499929999992673,1,52,test2,2,0.9505817999997817,-52.0
17,lzb,f,19,r,1,(121.76378772032346, -121.76378772032352),28,-25,14,yes,x,5,x,0.742048000000068,1,53,test2,2,0.7424510000000737,-70.0
17,lzb,f,19,r,1,(121.76378772032349, 121.76378772032349),22,5,2,yes,x,5,x,0.9685125000005428,1,54,test2,2,0.9686138999995819,-40.0
17,lzb,f,19,r,1,(-3.163262682197613e-14, -172.20000000000002),27,5,2,yes,x,5,x,0.4909975000000486,1,55,test2,2,0.49136259999977483,-40.0
17,lzb,f,19,r,1,(172.20000000000002, 0.0),21,-25,14,no,m,6,m,1.0867926999999327,1,56,test2,2,1.0871765000001687,-40.0
17,lzb,f,19,r,1,(1.0544208940658713e-14, 172.20000000000002),23,-7,13,yes,x,5,x,0.6131586999999854,1,57,test2,2,0.6133151000003636,-52.0
17,lzb,f,19,r,1,(121.76378772032349, 121.76378772032349),22,-25,14,no,m,6,m,1.2723556000000826,1,58,test2,2,1.2726505999999063,-52.0
17,lzb,f,19,r,1,(121.76378772032346, -121.76378772032352),28,-3,11,yes,x,5,x,0.7505644000002576,1,59,test2,2,0.7507269999996424,-48.0
17,lzb,f,19,r,1,(-121.76378772032352, -121.76378772032348),26,-5,12,yes,x,5,x,0.6085274999995818,1,60,test2,2,0.6087000999996235,-50.0
17,lzb,f,19,r,1,(121.76378772032346, -121.76378772032352),28,-25,14,yes,x,5,x,0.7128477999995084,1,61,test2,2,0.7129467000004297,-70.0
17,lzb,f,19,r,1,(121.76378772032346, -121.76378772032352),28,25,4,yes,x,5,x,0.6887659000003623,1,62,test2,2,0.688927700000022,-20.0
17,lzb,f,19,r,1,(121.76378772032346, -121.76378772032352),28,-7,13,yes,x,5,x,0.6438389000004463,1,63,test2,2,0.6439396999994642,-52.0
17,lzb,f,19,r,1,(-121.76378772032352, -121.76378772032348),26,7,3,no,m,6,x,0.957626600000367,0,64,test2,2,0.9577198999995744,-52.0
17,lzb,f,19,r,1,(-3.163262682197613e-14, -172.20000000000002),27,-3,11,yes,x,5,x,0.951466800000162,1,65,test2,2,0.9517064000001483,-48.0
17,lzb,f,19,r,1,(121.76378772032346, -121.76378772032352),28,5,2,no,m,6,m,0.8332373999992342,1,66,test2,2,0.8333382000000711,-48.0
17,lzb,f,19,r,1,(-3.163262682197613e-14, -172.20000000000002),27,-3,11,yes,x,5,x,0.7867474999993647,1,67,test2,2,0.7870365999997375,-48.0
17,lzb,f,19,r,1,(-3.163262682197613e-14, -172.20000000000002),27,-3,11,no,m,6,m,0.8790151999992304,1,68,test2,2,0.8791461000000709,-48.0
17,lzb,f,19,r,1,(-121.76378772032352, -121.76378772032348),26,3,1,yes,x,5,x,0.9570929000001343,1,69,test2,2,0.9574832999996943,-42.0
17,lzb,f,19,r,1,(-172.20000000000002, 2.1088417881317425e-14),25,-25,14,yes,x,5,x,0.509743100000378,1,70,test2,2,0.5098441999998613,-70.0
17,lzb,f,19,r,1,(121.76378772032346, -121.76378772032352),28,-3,11,no,m,6,m,1.060545600000296,1,71,test2,2,1.0610452999999325,-70.0
17,lzb,f,19,r,1,(-121.76378772032352, -121.76378772032348),26,-7,13,yes,x,5,x,0.5042425999999978,1,72,test2,2,0.5043409999998403,-52.0
17,lzb,f,19,r,1,(-121.76378772032352, -121.76378772032348),26,-25,14,no,m,6,m,1.0389703000000736,1,73,test2,2,1.0390717000000222,-52.0
17,lzb,f,19,r,1,(1.0544208940658713e-14, 172.20000000000002),23,3,1,yes,x,5,x,0.5700746000002255,1,74,test2,2,0.5701734000003853,-42.0
17,lzb,f,19,r,1,(121.76378772032346, -121.76378772032352),28,-7,13,no,m,6,m,0.8716848000003665,1,75,test2,2,0.8721156000001429,-42.0
17,lzb,f,19,r,1,(172.20000000000002, 0.0),21,5,2,no,m,6,x,0.9927744999995411,0,76,test2,2,0.9935051000002204,-42.0
17,lzb,f,19,r,1,(-3.163262682197613e-14, -172.20000000000002),27,-5,12,no,m,6,m,0.9093972999999096,1,77,test2,2,0.9099454999995942,-42.0
17,lzb,f,19,r,1,(1.0544208940658713e-14, 172.20000000000002),23,-7,13,no,m,6,m,0.835392299999512,1,78,test2,2,0.8355886999997892,-42.0
17,lzb,f,19,r,1,(172.20000000000002, 0.0),21,25,4,yes,x,5,x,0.6828607999996166,1,79,test2,2,0.6830120000004172,-20.0
17,lzb,f,19,r,1,(-121.76378772032352, -121.76378772032348),26,-3,11,yes,x,5,x,0.6863900999996986,1,80,test2,2,0.6866235999996206,-48.0
17,lzb,f,19,r,1,(121.76378772032349, 121.76378772032349),22,7,3,no,m,6,m,0.8859135000002425,1,81,test2,2,0.8862031000007846,-48.0
17,lzb,f,19,r,1,(121.76378772032346, -121.76378772032352),28,3,1,yes,x,5,m,1.0235295000002225,0,82,test2,2,1.024242399999821,-42.0
17,lzb,f,19,r,1,(-121.76378772032348, 121.76378772032349),24,-5,12,no,m,6,m,0.9410468999994919,1,83,test2,2,0.9417280999996365,-42.0
17,lzb,f,19,r,1,(-172.20000000000002, 2.1088417881317425e-14),25,-3,11,no,m,6,m,1.0651969000000463,1,84,test2,2,1.0657217000007222,-42.0
17,lzb,f,19,r,1,(172.20000000000002, 0.0),21,-7,13,no,m,6,m,0.9121646000003238,1,85,test2,2,0.9122633999995742,-42.0
17,lzb,f,19,r,1,(1.0544208940658713e-14, 172.20000000000002),23,3,1,no,m,6,m,0.8337188999994396,1,86,test2,2,0.8339173000003939,-42.0
17,lzb,f,19,r,1,(-3.163262682197613e-14, -172.20000000000002),27,-25,14,yes,x,5,x,0.5592873000005056,1,87,test2,2,0.5595262000006187,-70.0
17,lzb,f,19,r,1,(-172.20000000000002, 2.1088417881317425e-14),25,25,4,yes,x,5,x,0.48468380000031175,1,88,test2,2,0.4847998999994161,-20.0
17,lzb,f,19,r,1,(121.76378772032349, 121.76378772032349),22,-7,13,yes,x,5,x,0.6237877999992634,1,89,test2,2,0.6240141999996922,-52.0
17,lzb,f,19,r,1,(121.76378772032349, 121.76378772032349),22,-7,13,no,m,6,m,0.8579938000002585,1,90,test2,2,0.8581226999995124,-52.0
17,lzb,f,19,r,1,(121.76378772032349, 121.76378772032349),22,7,3,yes,x,5,x,0.7784119999996619,1,91,test2,2,0.7788427000004958,-38.0
17,lzb,f,19,r,1,(172.20000000000002, 0.0),21,-5,12,yes,x,5,x,0.6912554999998974,1,92,test2,2,0.6919005999998262,-50.0
17,lzb,f,19,r,1,(172.20000000000002, 0.0),21,5,2,yes,x,5,x,0.6049740999997084,1,93,test2,2,0.6052543999994668,-40.0
17,lzb,f,19,r,1,(172.20000000000002, 0.0),21,7,3,yes,x,5,x,0.5247406999997111,1,94,test2,2,0.5250425000003816,-38.0
17,lzb,f,19,r,1,(-172.20000000000002, 2.1088417881317425e-14),25,5,2,no,m,6,m,0.9772939999993469,1,95,test2,2,0.9775245999999242,-38.0
17,lzb,f,19,r,1,(-121.76378772032352, -121.76378772032348),26,25,4,yes,x,5,x,0.6243923000001814,1,96,test2,2,0.6249244000000544,-20.0
17,lzb,f,19,r,1,(-172.20000000000002, 2.1088417881317425e-14),25,7,3,no,m,6,m,1.0173432000001412,1,1,test1,3,1.01746490000005,-20.0
17,lzb,f,19,r,1,(121.76378772032346, -121.76378772032352),28,-5,12,yes,x,5,x,0.5812667999998666,1,2,test1,3,0.5814512000006289,-50.0
17,lzb,f,19,r,1,(-172.20000000000002, 2.1088417881317425e-14),25,3,1,no,m,6,m,0.7985920000000988,1,3,test1,3,0.7988427999998748,-50.0
17,lzb,f,19,r,1,(121.76378772032349, 121.76378772032349),22,-3,11,yes,x,5,m,0.8489305000002787,0,4,test1,3,0.8492448999995759,-48.0
17,lzb,f,19,r,1,(121.76378772032349, 121.76378772032349),22,3,1,no,m,6,m,1.2935689999994793,1,5,test1,3,1.293743799999902,-48.0
17,lzb,f,19,r,1,(172.20000000000002, 0.0),21,5,2,yes,x,5,x,0.9365631000000576,1,6,test1,3,0.9366615999997521,-40.0
17,lzb,f,19,r,1,(-3.163262682197613e-14, -172.20000000000002),27,3,1,no,m,6,m,0.8676107999999658,1,7,test1,3,0.8677311000001282,-40.0
17,lzb,f,19,r,1,(-172.20000000000002, 2.1088417881317425e-14),25,-3,11,yes,x,5,m,0.8249074000004839,0,8,test1,3,0.8250346000004356,-48.0
17,lzb,f,19,r,1,(-3.163262682197613e-14, -172.20000000000002),27,25,4,yes,x,5,x,0.5522295000000668,1,9,test1,3,0.5523612000006324,-20.0
17,lzb,f,19,r,1,(-121.76378772032352, -121.76378772032348),26,3,1,no,m,6,m,1.007005399999798,1,10,test1,3,1.0078272999999172,-20.0
17,lzb,f,19,r,1,(-121.76378772032352, -121.76378772032348),26,-3,11,yes,x,5,x,0.70874189999995,1,11,test1,3,0.708861999999499,-48.0
17,lzb,f,19,r,1,(121.76378772032349, 121.76378772032349),22,7,3,yes,x,5,x,0.7938079999994443,1,12,test1,3,0.793953500000498,-38.0
17,lzb,f,19,r,1,(1.0544208940658713e-14, 172.20000000000002),23,25,4,yes,x,5,x,0.4511862999997902,1,13,test1,3,0.4514219000002413,-20.0
17,lzb,f,19,r,1,(121.76378772032349, 121.76378772032349),22,25,4,no,m,6,m,0.8889230999993742,1,14,test1,3,0.8893323000002056,-20.0
17,lzb,f,19,r,1,(-172.20000000000002, 2.1088417881317425e-14),25,-5,12,no,m,6,m,0.8873157000007268,1,15,test1,3,0.8874722000000475,-20.0
17,lzb,f,19,r,1,(172.20000000000002, 0.0),21,-25,14,yes,x,5,x,0.5471721000003527,1,16,test1,3,0.5473342999994202,-70.0
17,lzb,f,19,r,1,(-121.76378772032352, -121.76378772032348),26,5,2,no,m,6,m,0.7720124000006763,1,17,test1,3,0.7722180999999182,-70.0
17,lzb,f,19,r,1,(1.0544208940658713e-14, 172.20000000000002),23,-25,14,yes,x,5,x,0.4710272999991503,1,18,test1,3,0.47162459999981365,-70.0
17,lzb,f,19,r,1,(-172.20000000000002, 2.1088417881317425e-14),25,-7,13,yes,x,5,x,0.8270904999999402,1,19,test1,3,0.8272516999995787,-52.0
17,lzb,f,19,r,1,(-172.20000000000002, 2.1088417881317425e-14),25,-7,13,no,m,6,m,0.88496269999996,1,20,test1,3,0.8852415000001201,-52.0
17,lzb,f,19,r,1,(121.76378772032346, -121.76378772032352),28,25,4,no,m,6,m,0.8782404000003226,1,21,test1,3,0.878370299999915,-52.0
17,lzb,f,19,r,1,(-121.76378772032348, 121.76378772032349),24,5,2,yes,x,5,x,0.5464535000000978,1,22,test1,3,0.5475266000003103,-40.0
17,lzb,f,19,r,1,(121.76378772032349, 121.76378772032349),22,-5,12,yes,x,5,x,0.6476292999996076,1,23,test1,3,0.64775710000049,-50.0
17,lzb,f,19,r,1,(-172.20000000000002, 2.1088417881317425e-14),25,-5,12,yes,x,5,x,0.565329500000189,1,24,test1,3,0.5663008999999875,-50.0
17,lzb,f,19,r,1,(-3.163262682197613e-14, -172.20000000000002),27,-7,13,yes,x,5,x,0.4822690999999395,1,25,test1,3,0.48236739999993006,-52.0
17,lzb,f,19,r,1,(-172.20000000000002, 2.1088417881317425e-14),25,7,3,yes,x,5,x,0.45233810000081576,1,26,test1,3,0.45278640000015,-38.0
17,lzb,f,19,r,1,(-172.20000000000002, 2.1088417881317425e-14),25,-25,14,yes,x,5,x,0.49278859999958513,1,27,test1,3,0.49290560000008554,-70.0
17,lzb,f,19,r,1,(172.20000000000002, 0.0),21,7,3,yes,x,5,x,0.5572397000005367,1,28,test1,3,0.5573386999994909,-38.0
17,lzb,f,19,r,1,(-121.76378772032348, 121.76378772032349),24,-25,14,yes,x,5,x,0.3998941999998351,1,29,test1,3,0.40009069999996427,-70.0
17,lzb,f,19,r,1,(-121.76378772032352, -121.76378772032348),26,3,1,yes,x,5,m,0.7726925999995728,0,30,test1,3,0.773158500000136,-42.0
17,lzb,f,19,r,1,(-3.163262682197613e-14, -172.20000000000002),27,-5,12,yes,x,5,x,0.6608127999998032,1,31,test1,3,0.6610645000000659,-50.0
17,lzb,f,19,r,1,(1.0544208940658713e-14, 172.20000000000002),23,25,4,yes,x,5,x,1.0201708000004146,1,32,test1,3,1.0205430000005435,-20.0
17,lzb,f,19,r,1,(121.76378772032349, 121.76378772032349),22,25,4,yes,x,5,x,0.4976325000006909,1,33,test1,3,0.49775730000055773,-20.0
17,lzb,f,19,r,1,(172.20000000000002, 0.0),21,-5,12,no,m,6,m,0.9523667000003115,1,34,test1,3,0.952982300000258,-20.0
17,lzb,f,19,r,1,(-121.76378772032348, 121.76378772032349),24,5,2,no,m,6,m,0.7325182000004133,1,35,test1,3,0.7327457999999751,-20.0
17,lzb,f,19,r,1,(-121.76378772032348, 121.76378772032349),24,25,4,yes,x,5,x,0.46474919999945996,1,36,test1,3,0.46506610000051296,-20.0
17,lzb,f,19,r,1,(1.0544208940658713e-14, 172.20000000000002),23,5,2,yes,x,5,x,0.5534904000005554,1,37,test1,3,0.5544556000004377,-40.0
17,lzb,f,19,r,1,(-3.163262682197613e-14, -172.20000000000002),27,25,4,no,m,6,m,0.7947951999994984,1,38,test1,3,0.795816100000593,-40.0
17,lzb,f,19,r,1,(-121.76378772032348, 121.76378772032349),24,3,1,yes,x,5,x,0.7503892000004271,1,39,test1,3,0.75084809999953,-42.0
17,lzb,f,19,r,1,(-3.163262682197613e-14, -172.20000000000002),27,7,3,no,m,6,m,1.003544399999555,1,40,test1,3,1.003961100000197,-42.0
17,lzb,f,19,r,1,(1.0544208940658713e-14, 172.20000000000002),23,5,2,yes,x,5,x,0.7188327000003483,1,41,test1,3,0.719131799999559,-40.0
17,lzb,f,19,r,1,(1.0544208940658713e-14, 172.20000000000002),23,-25,14,no,m,6,m,1.0796337000001586,1,42,test1,3,1.0797684000008303,-40.0
17,lzb,f,19,r,1,(1.0544208940658713e-14, 172.20000000000002),23,-3,11,yes,x,5,x,0.6298453999997946,1,43,test1,3,0.6300007999998343,-48.0
17,lzb,f,19,r,1,(121.76378772032349, 121.76378772032349),22,-3,11,no,m,6,m,0.7702159999998912,1,44,test1,3,0.7705184000005829,-48.0
17,lzb,f,19,r,1,(-3.163262682197613e-14, -172.20000000000002),27,3,1,yes,x,5,x,0.9464973000003738,1,45,test1,3,0.9466019999999844,-42.0
17,lzb,f,19,r,1,(1.0544208940658713e-14, 172.20000000000002),23,-5,12,no,m,6,m,0.67955560000064,1,46,test1,3,0.6800151000006736,-42.0
17,lzb,f,19,r,1,(172.20000000000002, 0.0),21,3,1,yes,x,5,x,1.10929810000016,1,47,test1,3,1.1096083000002182,-42.0
17,lzb,f,19,r,1,(-172.20000000000002, 2.1088417881317425e-14),25,-25,14,no,m,6,m,0.8774055999992925,1,48,test1,3,0.8775213999997504,-42.0
17,lzb,f,19,r,1,(-121.76378772032348, 121.76378772032349),24,-7,13,yes,x,5,x,0.6137450000005629,1,49,test1,3,0.6139812000001257,-52.0
17,lzb,f,19,r,1,(-121.76378772032348, 121.76378772032349),24,-3,11,no,m,6,m,1.0291476000002149,1,50,test1,3,1.029534700000113,-52.0
17,lzb,f,19,r,1,(-121.76378772032352, -121.76378772032348),26,-25,14,yes,x,5,x,0.7105434999994031,1,51,test1,3,0.7108395000004748,-70.0
17,lzb,f,19,r,1,(121.76378772032349, 121.76378772032349),22,-3,11,yes,x,5,x,0.66810119999991,1,52,test1,3,0.6682242999995651,-48.0
17,lzb,f,19,r,1,(-121.76378772032348, 121.76378772032349),24,-5,12,yes,x,5,x,0.4430258000002141,1,53,test1,3,0.44404209999993327,-50.0
17,lzb,f,19,r,1,(121.76378772032349, 121.76378772032349),22,5,2,no,m,6,x,0.5571128999999928,0,54,test1,3,0.5573796999997285,-50.0
17,lzb,f,19,r,1,(1.0544208940658713e-14, 172.20000000000002),23,7,3,yes,x,5,x,0.493196700000226,1,55,test1,3,0.49342260000048555,-38.0
17,lzb,f,19,r,1,(-121.76378772032348, 121.76378772032349),24,-5,12,yes,x,5,x,0.7406652999998187,1,56,test1,3,0.7410696999995707,-50.0
17,lzb,f,19,r,1,(1.0544208940658713e-14, 172.20000000000002),23,5,2,no,m,6,m,0.8948057000006884,1,57,test1,3,0.8949061999992409,-50.0
17,lzb,f,19,r,1,(121.76378772032346, -121.76378772032352),28,-25,14,no,m,6,m,0.9158160999995744,1,58,test1,3,0.9168073000000732,-50.0
17,lzb,f,19,r,1,(1.0544208940658713e-14, 172.20000000000002),23,-5,12,yes,x,5,x,0.5569841999995333,1,59,test1,3,0.5573684999999386,-50.0
17,lzb,f,19,r,1,(121.76378772032349, 121.76378772032349),22,-25,14,yes,x,5,x,0.5817886000004364,1,60,test1,3,0.5818894999993063,-70.0
17,lzb,f,19,r,1,(121.76378772032346, -121.76378772032352),28,25,4,yes,x,5,x,0.5087720999999874,1,61,test1,3,0.5088727000002109,-20.0
17,lzb,f,19,r,1,(-121.76378772032348, 121.76378772032349),24,-3,11,yes,x,5,x,0.5973854000003485,1,62,test1,3,0.597675099999833,-48.0
17,lzb,f,19,r,1,(121.76378772032349, 121.76378772032349),22,-5,12,yes,x,5,x,0.5382169000004069,1,63,test1,3,0.5384472000005189,-50.0
17,lzb,f,19,r,1,(172.20000000000002, 0.0),21,-7,13,yes,x,5,x,0.550563300000249,1,64,test1,3,0.5508616999995866,-52.0
17,lzb,f,19,r,1,(172.20000000000002, 0.0),21,-7,13,yes,x,5,x,0.64681820000078,1,65,test1,3,0.6469186000003901,-52.0
17,lzb,f,19,r,1,(121.76378772032346, -121.76378772032352),28,5,2,yes,x,5,x,0.8270141000002695,1,66,test1,3,0.827146100000391,-40.0
17,lzb,f,19,r,1,(172.20000000000002, 0.0),21,3,1,no,m,6,m,0.8957061999999496,1,67,test1,3,0.8960438000003705,-40.0
17,lzb,f,19,r,1,(1.0544208940658713e-14, 172.20000000000002),23,-3,11,no,m,6,m,1.0966232999999193,1,68,test1,3,1.0969379999996818,-40.0
17,lzb,f,19,r,1,(-172.20000000000002, 2.1088417881317425e-14),25,-5,12,yes,x,5,x,0.6424273000002358,1,69,test1,3,0.6425262000002476,-50.0
17,lzb,f,19,r,1,(172.20000000000002, 0.0),21,-3,11,no,m,6,m,0.9474664999997913,1,70,test1,3,0.9476513999998133,-50.0
17,lzb,f,19,r,1,(-172.20000000000002, 2.1088417881317425e-14),25,-7,13,yes,x,5,x,0.45558770000025106,1,71,test1,3,0.45568809999986115,-52.0
17,lzb,f,19,r,1,(1.0544208940658713e-14, 172.20000000000002),23,7,3,no,m,6,m,0.8709681999998793,1,72,test1,3,0.8710683999997855,-52.0
17,lzb,f,19,r,1,(1.0544208940658713e-14, 172.20000000000002),23,25,4,no,m,6,m,1.0889462000004642,1,73,test1,3,1.089045200000328,-52.0
17,lzb,f,19,r,1,(172.20000000000002, 0.0),21,-25,14,yes,x,5,x,0.48894079999990936,1,74,test1,3,0.48911430000043765,-70.0
17,lzb,f,19,r,1,(172.20000000000002, 0.0),21,-3,11,yes,x,5,x,0.6370237999999517,1,75,test1,3,0.6372350000001461,-48.0
17,lzb,f,19,r,1,(-121.76378772032348, 121.76378772032349),24,3,1,no,m,6,m,0.6931668000006539,1,76,test1,3,0.6934283999999025,-48.0
17,lzb,f,19,r,1,(-3.163262682197613e-14, -172.20000000000002),27,25,4,yes,x,5,x,0.5210340000003271,1,77,test1,3,0.5211965999997119,-20.0
17,lzb,f,19,r,1,(-121.76378772032352, -121.76378772032348),26,-5,12,yes,x,5,x,0.877334200000405,1,78,test1,3,0.8777120000004288,-50.0
17,lzb,f,19,r,1,(-121.76378772032348, 121.76378772032349),24,-7,13,yes,x,5,x,0.6079225000003134,1,79,test1,3,0.6082051000003048,-52.0
17,lzb,f,19,r,1,(121.76378772032346, -121.76378772032352),28,-7,13,yes,x,5,x,0.48574139999982435,1,80,test1,3,0.48586599999998725,-52.0
17,lzb,f,19,r,1,(121.76378772032346, -121.76378772032352),28,7,3,no,m,6,m,0.7090859999998429,1,81,test1,3,0.7096432999996978,-52.0
17,lzb,f,19,r,1,(-3.163262682197613e-14, -172.20000000000002),27,-7,13,yes,x,5,x,0.4527622000005067,1,82,test1,3,0.45295330000044487,-52.0
17,lzb,f,19,r,1,(-121.76378772032348, 121.76378772032349),24,7,3,yes,x,5,x,0.6028912000001583,1,83,test1,3,0.6030501000004733,-38.0
17,lzb,f,19,r,1,(172.20000000000002, 0.0),21,25,4,yes,x,5,x,0.5519119000000501,1,84,test1,3,0.552273299999797,-20.0
17,lzb,f,19,r,1,(121.76378772032349, 121.76378772032349),22,-5,12,no,m,6,m,0.6445981999995638,1,85,test1,3,0.6447540999997727,-20.0
17,lzb,f,19,r,1,(121.76378772032349, 121.76378772032349),22,5,2,yes,x,5,x,0.8546206999999413,1,86,test1,3,0.8548176000003878,-40.0
17,lzb,f,19,r,1,(-121.76378772032348, 121.76378772032349),24,-25,14,no,m,6,m,0.7632664999991903,1,87,test1,3,0.7633829999995214,-40.0
17,lzb,f,19,r,1,(1.0544208940658713e-14, 172.20000000000002),23,-25,14,yes,x,5,x,0.4404361000006247,1,88,test1,3,0.4406610999994882,-70.0
17,lzb,f,19,r,1,(121.76378772032349, 121.76378772032349),22,-7,13,yes,x,5,x,0.4989316000001054,1,89,test1,3,0.4990679000002274,-52.0
17,lzb,f,19,r,1,(-121.76378772032348, 121.76378772032349),24,-7,13,no,m,6,m,0.7656511000004684,1,90,test1,3,0.7658837999997559,-52.0
17,lzb,f,19,r,1,(-172.20000000000002, 2.1088417881317425e-14),25,7,3,yes,x,5,x,0.45870339999964926,1,91,test1,3,0.45885679999992135,-38.0
17,lzb,f,19,r,1,(-121.76378772032352, -121.76378772032348),26,-25,14,yes,x,5,x,0.6422763000000486,1,92,test1,3,0.6425022000003082,-70.0
17,lzb,f,19,r,1,(-121.76378772032352, -121.76378772032348),26,7,3,yes,x,5,x,0.706958300000224,1,93,test1,3,0.7072041000001263,-38.0
17,lzb,f,19,r,1,(-121.76378772032352, -121.76378772032348),26,25,4,yes,x,5,x,0.4884351999999126,1,94,test1,3,0.4885476999997991,-20.0
17,lzb,f,19,r,1,(-3.163262682197613e-14, -172.20000000000002),27,5,2,yes,x,5,x,0.5534356999996817,1,95,test1,3,0.5536671999998362,-40.0
17,lzb,f,19,r,1,(1.0544208940658713e-14, 172.20000000000002),23,-3,11,yes,x,5,x,0.47649879999971745,1,96,test1,3,0.4766277999997328,-48.0
17,lzb,f,19,r,1,(-121.76378772032348, 121.76378772032349),24,25,4,yes,x,5,x,1.2151671999999962,1,1,test2,3,1.215615400000388,-20.0
17,lzb,f,19,r,1,(121.76378772032346, -121.76378772032352),28,-3,11,yes,x,5,m,0.9325717000001532,0,2,test2,3,0.9328137000002243,-48.0
17,lzb,f,19,r,1,(-121.76378772032348, 121.76378772032349),24,-25,14,yes,x,5,x,0.476625199999944,1,3,test2,3,0.4767252000001463,-70.0
17,lzb,f,19,r,1,(172.20000000000002, 0.0),21,-5,12,yes,x,5,x,0.8849457000005714,1,4,test2,3,0.8850613000004159,-50.0
17,lzb,f,19,r,1,(-121.76378772032352, -121.76378772032348),26,-5,12,no,m,6,m,0.8607670999999755,1,5,test2,3,0.861124000000018,-50.0
17,lzb,f,19,r,1,(-3.163262682197613e-14, -172.20000000000002),27,-5,12,yes,x,5,x,0.6788977000005616,1,6,test2,3,0.6791982999993706,-50.0
17,lzb,f,19,r,1,(121.76378772032349, 121.76378772032349),22,3,1,yes,x,5,m,0.7240841999991972,0,7,test2,3,0.724651399999857,-42.0
17,lzb,f,19,r,1,(121.76378772032346, -121.76378772032352),28,5,2,yes,x,5,x,0.6003387999999177,1,8,test2,3,0.600538100000449,-40.0
17,lzb,f,19,r,1,(-121.76378772032352, -121.76378772032348),26,-7,13,no,m,6,m,0.7111359000000448,1,9,test2,3,0.7112329000001409,-40.0
17,lzb,f,19,r,1,(-121.76378772032352, -121.76378772032348),26,5,2,yes,x,5,x,0.5097937999998976,1,10,test2,3,0.5098951000009038,-40.0
17,lzb,f,19,r,1,(-172.20000000000002, 2.1088417881317425e-14),25,-3,11,yes,x,5,x,0.7416047000006074,1,11,test2,3,0.7418397999999797,-48.0
17,lzb,f,19,r,1,(-121.76378772032352, -121.76378772032348),26,7,3,yes,x,5,x,0.5219840999998269,1,12,test2,3,0.5222052999997686,-38.0
17,lzb,f,19,r,1,(-3.163262682197613e-14, -172.20000000000002),27,3,1,yes,x,5,x,0.5783587000005355,1,13,test2,3,0.5787069999996675,-42.0
17,lzb,f,19,r,1,(-172.20000000000002, 2.1088417881317425e-14),25,3,1,yes,x,5,x,0.47693489999983285,1,14,test2,3,0.47722520000024815,-42.0
17,lzb,f,19,r,1,(1.0544208940658713e-14, 172.20000000000002),23,-5,12,yes,x,5,x,0.43455619999986084,1,15,test2,3,0.43477400000028865,-50.0
17,lzb,f,19,r,1,(172.20000000000002, 0.0),21,7,3,no,m,6,x,0.38970009999957256,0,16,test2,3,0.3898155000006227,-50.0
17,lzb,f,19,r,1,(-3.163262682197613e-14, -172.20000000000002),27,-25,14,no,m,6,m,0.674946699999964,1,17,test2,3,0.675213900000017,-50.0
17,lzb,f,19,r,1,(-121.76378772032348, 121.76378772032349),24,3,1,yes,x,5,m,0.6528777000003174,0,18,test2,3,0.6530638999993243,-42.0
17,lzb,f,19,r,1,(121.76378772032349, 121.76378772032349),22,25,4,yes,x,5,x,0.5884394999993674,1,19,test2,3,0.5885559999996985,-20.0
17,lzb,f,19,r,1,(-172.20000000000002, 2.1088417881317425e-14),25,5,2,yes,x,5,x,0.5663136000002851,1,20,test2,3,0.5665308999996341,-40.0
17,lzb,f,19,r,1,(-172.20000000000002, 2.1088417881317425e-14),25,25,4,yes,x,5,x,0.4766481999995449,1,21,test2,3,0.4769407999992836,-20.0
17,lzb,f,19,r,1,(1.0544208940658713e-14, 172.20000000000002),23,-7,13,yes,x,5,x,0.4818083000000115,1,22,test2,3,0.48195839999971213,-52.0
17,lzb,f,19,r,1,(-172.20000000000002, 2.1088417881317425e-14),25,5,2,yes,x,5,x,0.527228500000092,1,23,test2,3,0.5278667000002315,-40.0
17,lzb,f,19,r,1,(-3.163262682197613e-14, -172.20000000000002),27,-25,14,yes,x,5,x,0.3719533000003139,1,24,test2,3,0.3720859000004566,-70.0
17,lzb,f,19,r,1,(121.76378772032349, 121.76378772032349),22,3,1,yes,x,5,m,0.901461699999345,0,25,test2,3,0.9016807000007248,-42.0
17,lzb,f,19,r,1,(-3.163262682197613e-14, -172.20000000000002),27,-7,13,no,m,6,m,0.8639977000002546,1,26,test2,3,0.8642154999997729,-42.0
17,lzb,f,19,r,1,(121.76378772032346, -121.76378772032352),28,-5,12,no,m,6,m,0.7175717999998596,1,27,test2,3,0.7178014000000985,-42.0
17,lzb,f,19,r,1,(121.76378772032349, 121.76378772032349),22,-25,14,yes,x,5,x,0.42836219999935565,1,28,test2,3,0.4284889000000476,-70.0
17,lzb,f,19,r,1,(1.0544208940658713e-14, 172.20000000000002),23,7,3,yes,x,5,x,0.6290988999999172,1,29,test2,3,0.629351399999905,-38.0
17,lzb,f,19,r,1,(121.76378772032346, -121.76378772032352),28,-5,12,yes,x,5,x,0.7396008999994592,1,30,test2,3,0.7397568999995201,-50.0
17,lzb,f,19,r,1,(-172.20000000000002, 2.1088417881317425e-14),25,25,4,no,m,6,m,1.1459055999994234,1,31,test2,3,1.1460097999997743,-50.0
17,lzb,f,19,r,1,(1.0544208940658713e-14, 172.20000000000002),23,3,1,yes,x,5,x,0.5742179999997461,1,32,test2,3,0.5743849999998929,-42.0
17,lzb,f,19,r,1,(-121.76378772032348, 121.76378772032349),24,-3,11,yes,x,5,x,0.7266632000000754,1,33,test2,3,0.7268969999995534,-48.0
17,lzb,f,19,r,1,(121.76378772032346, -121.76378772032352),28,7,3,yes,x,5,x,0.4122179000005417,1,34,test2,3,0.4123096000002988,-38.0
17,lzb,f,19,r,1,(-3.163262682197613e-14, -172.20000000000002),27,5,2,no,m,6,m,0.7974424000003637,1,35,test2,3,0.7976725000007718,-38.0
17,lzb,f,19,r,1,(-121.76378772032352, -121.76378772032348),26,5,2,yes,x,5,x,0.5438351000002513,1,36,test2,3,0.5440638000000035,-40.0
17,lzb,f,19,r,1,(172.20000000000002, 0.0),21,3,1,yes,x,5,x,1.0749304000000848,1,37,test2,3,1.0752840000004653,-42.0
17,lzb,f,19,r,1,(-172.20000000000002, 2.1088417881317425e-14),25,3,1,yes,x,5,x,0.4601612999995268,1,38,test2,3,0.460602199999812,-42.0
17,lzb,f,19,r,1,(-121.76378772032352, -121.76378772032348),26,25,4,no,m,6,m,0.8164039000002958,1,39,test2,3,0.816981200000555,-42.0
17,lzb,f,19,r,1,(-121.76378772032348, 121.76378772032349),24,5,2,yes,x,5,x,0.5790332000005947,1,40,test2,3,0.5792161999997916,-40.0
17,lzb,f,19,r,1,(-121.76378772032352, -121.76378772032348),26,-3,11,no,m,6,m,0.7815490000002683,1,41,test2,3,0.7821868999999424,-40.0
17,lzb,f,19,r,1,(121.76378772032346, -121.76378772032352),28,7,3,yes,x,5,x,0.5161099000006288,1,42,test2,3,0.516213400000197,-38.0
17,lzb,f,19,r,1,(172.20000000000002, 0.0),21,25,4,no,m,6,m,0.8056595999996716,1,43,test2,3,0.805817699999352,-38.0
17,lzb,f,19,r,1,(-121.76378772032348, 121.76378772032349),24,7,3,yes,x,5,x,0.5526762999998027,1,44,test2,3,0.5528449999992517,-38.0
17,lzb,f,19,r,1,(121.76378772032346, -121.76378772032352),28,3,1,yes,x,5,x,0.6561102000005121,1,45,test2,3,0.6562364000001253,-42.0
17,lzb,f,19,r,1,(172.20000000000002, 0.0),21,-3,11,yes,x,5,x,0.59864430000016,1,46,test2,3,0.5988179000005402,-48.0
17,lzb,f,19,r,1,(-121.76378772032348, 121.76378772032349),24,25,4,no,m,6,m,0.8148204999997688,1,47,test2,3,0.815090400000372,-48.0
17,lzb,f,19,r,1,(121.76378772032346, -121.76378772032352),28,3,1,no,m,6,m,0.8446767000004911,1,48,test2,3,0.8449823000000833,-48.0
17,lzb,f,19,r,1,(-3.163262682197613e-14, -172.20000000000002),27,7,3,yes,x,5,x,0.9326956999993854,1,49,test2,3,0.9327984000001379,-38.0
17,lzb,f,19,r,1,(-3.163262682197613e-14, -172.20000000000002),27,7,3,yes,x,5,x,0.4525877000005494,1,50,test2,3,0.45286789999954635,-38.0
17,lzb,f,19,r,1,(-121.76378772032352, -121.76378772032348),26,-7,13,yes,x,5,x,0.4487108999992415,1,51,test2,3,0.44893750000028376,-52.0
17,lzb,f,19,r,1,(-121.76378772032348, 121.76378772032349),24,7,3,no,m,6,x,0.8571765000006053,0,52,test2,3,0.8575663000001441,-52.0
17,lzb,f,19,r,1,(121.76378772032346, -121.76378772032352),28,-25,14,yes,x,5,x,0.5168352999999115,1,53,test2,3,0.5171292999993966,-70.0
17,lzb,f,19,r,1,(121.76378772032349, 121.76378772032349),22,5,2,yes,x,5,x,0.8988266999995176,1,54,test2,3,0.898967599999196,-40.0
17,lzb,f,19,r,1,(-3.163262682197613e-14, -172.20000000000002),27,5,2,yes,x,5,x,0.5457823000006101,1,55,test2,3,0.5459117999998853,-40.0
17,lzb,f,19,r,1,(172.20000000000002, 0.0),21,-25,14,no,m,6,m,0.9783789000002798,1,56,test2,3,0.978552700000364,-40.0
17,lzb,f,19,r,1,(1.0544208940658713e-14, 172.20000000000002),23,-7,13,yes,x,5,x,0.4927789000003031,1,57,test2,3,0.4931583999996292,-52.0
17,lzb,f,19,r,1,(121.76378772032349, 121.76378772032349),22,-25,14,no,m,6,m,0.7777934000005189,1,58,test2,3,0.7779437000008329,-52.0
17,lzb,f,19,r,1,(121.76378772032346, -121.76378772032352),28,-3,11,yes,x,5,x,0.6025033000005351,1,59,test2,3,0.6029658999996172,-48.0
17,lzb,f,19,r,1,(-121.76378772032352, -121.76378772032348),26,-5,12,yes,x,5,x,0.48819730000013806,1,60,test2,3,0.48837190000085684,-50.0
17,lzb,f,19,r,1,(121.76378772032346, -121.76378772032352),28,-25,14,yes,x,5,x,0.4896116999998412,1,61,test2,3,0.48993030000019644,-70.0
17,lzb,f,19,r,1,(121.76378772032346, -121.76378772032352),28,25,4,yes,x,5,x,0.47289980000005016,1,62,test2,3,0.47327359999962937,-20.0
17,lzb,f,19,r,1,(121.76378772032346, -121.76378772032352),28,-7,13,yes,x,5,x,0.6008232999993197,1,63,test2,3,0.6009441000005609,-52.0
17,lzb,f,19,r,1,(-121.76378772032352, -121.76378772032348),26,7,3,no,m,6,m,1.0403009000001475,1,64,test2,3,1.0404162000004362,-52.0
17,lzb,f,19,r,1,(-3.163262682197613e-14, -172.20000000000002),27,-3,11,yes,x,5,m,0.65327889999935,0,65,test2,3,0.6533965999997235,-48.0
17,lzb,f,19,r,1,(121.76378772032346, -121.76378772032352),28,5,2,no,m,6,m,0.6797770000002856,1,66,test2,3,0.6800008999998681,-48.0
17,lzb,f,19,r,1,(-3.163262682197613e-14, -172.20000000000002),27,-3,11,yes,x,5,x,0.630800800000543,1,67,test2,3,0.6309641999996529,-48.0
17,lzb,f,19,r,1,(-3.163262682197613e-14, -172.20000000000002),27,-3,11,no,m,6,m,0.7731547000003047,1,68,test2,3,0.7737659000003987,-48.0
17,lzb,f,19,r,1,(-121.76378772032352, -121.76378772032348),26,3,1,yes,x,5,x,0.7173141000002943,1,69,test2,3,0.7175428000000466,-42.0
17,lzb,f,19,r,1,(-172.20000000000002, 2.1088417881317425e-14),25,-25,14,yes,x,5,x,0.454430499999944,1,70,test2,3,0.45452279999972234,-70.0
17,lzb,f,19,r,1,(121.76378772032346, -121.76378772032352),28,-3,11,no,m,6,m,0.9237622000000556,1,71,test2,3,0.9239038000005166,-70.0
17,lzb,f,19,r,1,(-121.76378772032352, -121.76378772032348),26,-7,13,yes,x,5,x,0.4905425999995714,1,72,test2,3,0.4909342999999353,-52.0
17,lzb,f,19,r,1,(-121.76378772032352, -121.76378772032348),26,-25,14,no,m,6,m,0.9043425999998362,1,73,test2,3,0.9044931999997061,-52.0
17,lzb,f,19,r,1,(1.0544208940658713e-14, 172.20000000000002),23,3,1,yes,x,5,m,0.8765040999996927,0,74,test2,3,0.8766057000002547,-42.0
17,lzb,f,19,r,1,(121.76378772032346, -121.76378772032352),28,-7,13,no,m,6,m,0.7868892000005872,1,75,test2,3,0.787123099999917,-42.0
17,lzb,f,19,r,1,(172.20000000000002, 0.0),21,5,2,no,m,6,m,0.7529211000000942,1,76,test2,3,0.7530477000000246,-42.0
17,lzb,f,19,r,1,(-3.163262682197613e-14, -172.20000000000002),27,-5,12,no,m,6,m,0.8817585999995572,1,77,test2,3,0.8819789999997738,-42.0
17,lzb,f,19,r,1,(1.0544208940658713e-14, 172.20000000000002),23,-7,13,no,m,6,m,0.6840858999994452,1,78,test2,3,0.6844111000000339,-42.0
17,lzb,f,19,r,1,(172.20000000000002, 0.0),21,25,4,yes,x,5,x,0.566475900000114,1,79,test2,3,0.5668423999995866,-20.0
17,lzb,f,19,r,1,(-121.76378772032352, -121.76378772032348),26,-3,11,yes,x,5,x,0.8143888000004154,1,80,test2,3,0.8150036999995791,-48.0
17,lzb,f,19,r,1,(121.76378772032349, 121.76378772032349),22,7,3,no,m,6,m,0.9886945999996897,1,81,test2,3,0.989313700000821,-48.0
17,lzb,f,19,r,1,(121.76378772032346, -121.76378772032352),28,3,1,yes,x,5,m,0.781324599999607,0,82,test2,3,0.7814200000002529,-42.0
17,lzb,f,19,r,1,(-121.76378772032348, 121.76378772032349),24,-5,12,no,m,6,m,1.02148969999962,1,83,test2,3,1.0217247000000498,-42.0
17,lzb,f,19,r,1,(-172.20000000000002, 2.1088417881317425e-14),25,-3,11,no,m,6,m,0.810122699999738,1,84,test2,3,0.8102207000001727,-42.0
17,lzb,f,19,r,1,(172.20000000000002, 0.0),21,-7,13,no,m,6,m,0.8494479000000865,1,85,test2,3,0.8498392000001331,-42.0
17,lzb,f,19,r,1,(1.0544208940658713e-14, 172.20000000000002),23,3,1,no,m,6,m,0.9709554000000935,1,86,test2,3,0.9711452999999892,-42.0
17,lzb,f,19,r,1,(-3.163262682197613e-14, -172.20000000000002),27,-25,14,yes,x,5,x,0.5386022000002413,1,87,test2,3,0.5393708000001425,-70.0
17,lzb,f,19,r,1,(-172.20000000000002, 2.1088417881317425e-14),25,25,4,yes,x,5,x,0.7141752000006818,1,88,test2,3,0.714578099999926,-20.0
17,lzb,f,19,r,1,(121.76378772032349, 121.76378772032349),22,-7,13,yes,x,5,x,0.5184528999998292,1,89,test2,3,0.5187705999996979,-52.0
17,lzb,f,19,r,1,(121.76378772032349, 121.76378772032349),22,-7,13,no,m,6,m,0.7468614999997953,1,90,test2,3,0.7469961000006151,-52.0
17,lzb,f,19,r,1,(121.76378772032349, 121.76378772032349),22,7,3,yes,x,5,x,0.5522778000004109,1,91,test2,3,0.5525076999992962,-38.0
17,lzb,f,19,r,1,(172.20000000000002, 0.0),21,-5,12,yes,x,5,x,0.8683986000005461,1,92,test2,3,0.8686132999991969,-50.0
17,lzb,f,19,r,1,(172.20000000000002, 0.0),21,5,2,yes,x,5,x,0.539173799999844,1,93,test2,3,0.5394212000001062,-40.0
17,lzb,f,19,r,1,(172.20000000000002, 0.0),21,7,3,yes,x,5,x,0.6587119999994684,1,94,test2,3,0.6591955999992933,-38.0
17,lzb,f,19,r,1,(-172.20000000000002, 2.1088417881317425e-14),25,5,2,no,m,6,x,0.9405213999998523,0,95,test2,3,0.9406230999993568,-38.0
17,lzb,f,19,r,1,(-121.76378772032352, -121.76378772032348),26,25,4,yes,x,5,x,0.45072239999990416,1,96,test2,3,0.4508521000007022,-20.0
17,lzb,f,19,r,1,(-172.20000000000002, 2.1088417881317425e-14),25,7,3,no,m,6,m,0.8255141999998159,1,1,test1,4,0.8256450000008044,-20.0
17,lzb,f,19,r,1,(121.76378772032346, -121.76378772032352),28,-5,12,yes,x,5,x,0.6551597999996375,1,2,test1,4,0.6557421999996222,-50.0
17,lzb,f,19,r,1,(-172.20000000000002, 2.1088417881317425e-14),25,3,1,no,m,6,x,0.7484941000002436,0,3,test1,4,0.7486241000005975,-50.0
17,lzb,f,19,r,1,(121.76378772032349, 121.76378772032349),22,-3,11,yes,x,5,x,0.6100223000003098,1,4,test1,4,0.6102895000003628,-48.0
17,lzb,f,19,r,1,(121.76378772032349, 121.76378772032349),22,3,1,no,m,6,m,0.8585180000000037,1,5,test1,4,0.8586945000006381,-48.0
17,lzb,f,19,r,1,(172.20000000000002, 0.0),21,5,2,yes,x,5,x,0.5494601999998849,1,6,test1,4,0.5496556999996756,-40.0
17,lzb,f,19,r,1,(-3.163262682197613e-14, -172.20000000000002),27,3,1,no,m,6,m,0.7045680000001084,1,7,test1,4,0.704973599999903,-40.0
17,lzb,f,19,r,1,(-172.20000000000002, 2.1088417881317425e-14),25,-3,11,yes,x,5,m,1.0529219000000012,0,8,test1,4,1.0530204000006052,-48.0
17,lzb,f,19,r,1,(-3.163262682197613e-14, -172.20000000000002),27,25,4,yes,x,5,x,0.47258489999967424,1,9,test1,4,0.47274860000015906,-20.0
17,lzb,f,19,r,1,(-121.76378772032352, -121.76378772032348),26,3,1,no,m,6,m,0.6622983999995995,1,10,test1,4,0.6625345000002199,-20.0
17,lzb,f,19,r,1,(-121.76378772032352, -121.76378772032348),26,-3,11,yes,x,5,m,0.732110100000682,0,11,test1,4,0.732213899999806,-48.0
17,lzb,f,19,r,1,(121.76378772032349, 121.76378772032349),22,7,3,yes,x,5,x,0.5964885000003051,1,12,test1,4,0.5967581999993854,-38.0
17,lzb,f,19,r,1,(1.0544208940658713e-14, 172.20000000000002),23,25,4,yes,x,5,x,0.4472740999999587,1,13,test1,4,0.44762249999985215,-20.0
17,lzb,f,19,r,1,(121.76378772032349, 121.76378772032349),22,25,4,no,m,6,m,1.0261861999997564,1,14,test1,4,1.026592499999424,-20.0
17,lzb,f,19,r,1,(-172.20000000000002, 2.1088417881317425e-14),25,-5,12,no,m,6,x,0.8915108000001055,0,15,test1,4,0.8917882000005193,-20.0
17,lzb,f,19,r,1,(172.20000000000002, 0.0),21,-25,14,yes,x,5,x,0.5372264999996332,1,16,test1,4,0.5374633000001268,-70.0
17,lzb,f,19,r,1,(-121.76378772032352, -121.76378772032348),26,5,2,no,m,6,m,0.7757006000001638,1,17,test1,4,0.7758933000004617,-70.0
17,lzb,f,19,r,1,(1.0544208940658713e-14, 172.20000000000002),23,-25,14,yes,x,5,x,0.5510377999999037,1,18,test1,4,0.5512636999992537,-70.0
17,lzb,f,19,r,1,(-172.20000000000002, 2.1088417881317425e-14),25,-7,13,yes,x,5,x,0.5362214999995558,1,19,test1,4,0.5363452999999936,-52.0
17,lzb,f,19,r,1,(-172.20000000000002, 2.1088417881317425e-14),25,-7,13,no,m,6,m,0.6843925000002855,1,20,test1,4,0.6846911000002365,-52.0
17,lzb,f,19,r,1,(121.76378772032346, -121.76378772032352),28,25,4,no,m,6,m,0.9194213999999192,1,21,test1,4,0.9196494999996503,-52.0
17,lzb,f,19,r,1,(-121.76378772032348, 121.76378772032349),24,5,2,yes,x,5,x,0.6806645999995453,1,22,test1,4,0.680787500000406,-40.0
17,lzb,f,19,r,1,(121.76378772032349, 121.76378772032349),22,-5,12,yes,x,5,x,0.6883938999999373,1,23,test1,4,0.688689699999486,-50.0
17,lzb,f,19,r,1,(-172.20000000000002, 2.1088417881317425e-14),25,-5,12,yes,x,5,x,0.6059284000002663,1,24,test1,4,0.6060230000002775,-50.0
17,lzb,f,19,r,1,(-3.163262682197613e-14, -172.20000000000002),27,-7,13,yes,x,5,x,0.5185165000002598,1,25,test1,4,0.5186579000001075,-52.0
17,lzb,f,19,r,1,(-172.20000000000002, 2.1088417881317425e-14),25,7,3,yes,x,5,x,0.5072540000001027,1,26,test1,4,0.5074222000002919,-38.0
17,lzb,f,19,r,1,(-172.20000000000002, 2.1088417881317425e-14),25,-25,14,yes,x,5,x,0.7146676000002117,1,27,test1,4,0.7149405000000115,-70.0
17,lzb,f,19,r,1,(172.20000000000002, 0.0),21,7,3,yes,x,5,x,0.5135041999992609,1,28,test1,4,0.5139404000001377,-38.0
17,lzb,f,19,r,1,(-121.76378772032348, 121.76378772032349),24,-25,14,yes,x,5,x,0.5895138999994742,1,29,test1,4,0.5897334000001138,-70.0
17,lzb,f,19,r,1,(-121.76378772032352, -121.76378772032348),26,3,1,yes,x,5,m,0.8606148999997458,0,30,test1,4,0.8608672999998817,-42.0
17,lzb,f,19,r,1,(-3.163262682197613e-14, -172.20000000000002),27,-5,12,yes,x,5,x,0.8554072000006272,1,31,test1,4,0.8557591999997385,-50.0
17,lzb,f,19,r,1,(1.0544208940658713e-14, 172.20000000000002),23,25,4,yes,x,5,x,0.5502490999997462,1,32,test1,4,0.5508331999999427,-20.0
17,lzb,f,19,r,1,(121.76378772032349, 121.76378772032349),22,25,4,yes,x,5,x,0.4925657999992836,1,33,test1,4,0.4926885000004404,-20.0
17,lzb,f,19,r,1,(172.20000000000002, 0.0),21,-5,12,no,m,6,m,0.6561162999996668,1,34,test1,4,0.6567835000005289,-20.0
17,lzb,f,19,r,1,(-121.76378772032348, 121.76378772032349),24,5,2,no,m,6,m,0.7039647000001423,1,35,test1,4,0.704202300000361,-20.0
17,lzb,f,19,r,1,(-121.76378772032348, 121.76378772032349),24,25,4,yes,x,5,x,0.48417239999980666,1,36,test1,4,0.48435589999917283,-20.0
17,lzb,f,19,r,1,(1.0544208940658713e-14, 172.20000000000002),23,5,2,yes,x,5,x,0.5241691000001083,1,37,test1,4,0.5244774000002508,-40.0
17,lzb,f,19,r,1,(-3.163262682197613e-14, -172.20000000000002),27,25,4,no,m,6,m,0.8429978999993182,1,38,test1,4,0.8433194999997795,-40.0
17,lzb,f,19,r,1,(-121.76378772032348, 121.76378772032349),24,3,1,yes,x,5,x,0.6828134999996109,1,39,test1,4,0.683092399999623,-42.0
17,lzb,f,19,r,1,(-3.163262682197613e-14, -172.20000000000002),27,7,3,no,m,6,m,0.6933685000003607,1,40,test1,4,0.6935239000004003,-42.0
17,lzb,f,19,r,1,(1.0544208940658713e-14, 172.20000000000002),23,5,2,yes,x,5,x,0.4579846999995425,1,41,test1,4,0.45808499999930063,-40.0
17,lzb,f,19,r,1,(1.0544208940658713e-14, 172.20000000000002),23,-25,14,no,m,6,m,0.7952471999997215,1,42,test1,4,0.7954906000004485,-40.0
17,lzb,f,19,r,1,(1.0544208940658713e-14, 172.20000000000002),23,-3,11,yes,x,5,x,0.7223432000000685,1,43,test1,4,0.7224460000006729,-48.0
17,lzb,f,19,r,1,(121.76378772032349, 121.76378772032349),22,-3,11,no,m,6,m,0.8527787000002718,1,44,test1,4,0.8529998000003616,-48.0
17,lzb,f,19,r,1,(-3.163262682197613e-14, -172.20000000000002),27,3,1,yes,x,5,m,0.7916297000001578,0,45,test1,4,0.791857500000333,-42.0
17,lzb,f,19,r,1,(1.0544208940658713e-14, 172.20000000000002),23,-5,12,no,m,6,m,0.8859511000000566,1,46,test1,4,0.886060499999985,-42.0
17,lzb,f,19,r,1,(172.20000000000002, 0.0),21,3,1,yes,x,5,m,0.898819299999559,0,47,test1,4,0.8989792000002126,-42.0
17,lzb,f,19,r,1,(-172.20000000000002, 2.1088417881317425e-14),25,-25,14,no,m,6,m,0.982496199999332,1,48,test1,4,0.9827358000002278,-42.0
17,lzb,f,19,r,1,(-121.76378772032348, 121.76378772032349),24,-7,13,yes,x,5,x,0.6514809999998761,1,49,test1,4,0.6517198999999891,-52.0
17,lzb,f,19,r,1,(-121.76378772032348, 121.76378772032349),24,-3,11,no,m,6,m,1.0357170999996015,1,50,test1,4,1.0358648000001267,-52.0
17,lzb,f,19,r,1,(-121.76378772032352, -121.76378772032348),26,-25,14,yes,x,5,x,0.5322561000002679,1,51,test1,4,0.5324533000002702,-70.0
17,lzb,f,19,r,1,(121.76378772032349, 121.76378772032349),22,-3,11,yes,x,5,x,0.9482672000003731,1,52,test1,4,0.9490140999996584,-48.0
17,lzb,f,19,r,1,(-121.76378772032348, 121.76378772032349),24,-5,12,yes,x,5,x,0.530120800000077,1,53,test1,4,0.5302378999995199,-50.0
17,lzb,f,19,r,1,(121.76378772032349, 121.76378772032349),22,5,2,no,m,6,m,1.0829314000002341,1,54,test1,4,1.083128599999327,-50.0
17,lzb,f,19,r,1,(1.0544208940658713e-14, 172.20000000000002),23,7,3,yes,x,5,x,0.49080079999930604,1,55,test1,4,0.49094890000014857,-38.0
17,lzb,f,19,r,1,(-121.76378772032348, 121.76378772032349),24,-5,12,yes,x,5,x,0.5598091000001659,1,56,test1,4,0.5599046999996062,-50.0
17,lzb,f,19,r,1,(1.0544208940658713e-14, 172.20000000000002),23,5,2,no,m,6,m,0.7703102999994371,1,57,test1,4,0.7704082000000199,-50.0
17,lzb,f,19,r,1,(121.76378772032346, -121.76378772032352),28,-25,14,no,m,6,m,0.8419734999997672,1,58,test1,4,0.8423889999994572,-50.0
17,lzb,f,19,r,1,(1.0544208940658713e-14, 172.20000000000002),23,-5,12,yes,x,5,x,0.6116689999998925,1,59,test1,4,0.6119042000000263,-50.0
17,lzb,f,19,r,1,(121.76378772032349, 121.76378772032349),22,-25,14,yes,x,5,x,0.5604928000002474,1,60,test1,4,0.5607129999998506,-70.0
17,lzb,f,19,r,1,(121.76378772032346, -121.76378772032352),28,25,4,yes,x,5,x,0.53442030000042,1,61,test1,4,0.5345456999993985,-20.0
17,lzb,f,19,r,1,(-121.76378772032348, 121.76378772032349),24,-3,11,yes,x,5,x,0.6092832000003909,1,62,test1,4,0.6096952999996574,-48.0
17,lzb,f,19,r,1,(121.76378772032349, 121.76378772032349),22,-5,12,yes,x,5,x,0.5974624999998923,1,63,test1,4,0.5975786000008156,-50.0
17,lzb,f,19,r,1,(172.20000000000002, 0.0),21,-7,13,yes,x,5,x,0.527142100000674,1,64,test1,4,0.5275160000001051,-52.0
17,lzb,f,19,r,1,(172.20000000000002, 0.0),21,-7,13,yes,x,5,x,0.5702049999999872,1,65,test1,4,0.5705219999999827,-52.0
17,lzb,f,19,r,1,(121.76378772032346, -121.76378772032352),28,5,2,yes,x,5,x,0.6506956000002901,1,66,test1,4,0.6513153000005332,-40.0
17,lzb,f,19,r,1,(172.20000000000002, 0.0),21,3,1,no,m,6,m,1.00023020000026,1,67,test1,4,1.0011566000002858,-40.0
17,lzb,f,19,r,1,(1.0544208940658713e-14, 172.20000000000002),23,-3,11,no,m,6,m,0.9083559000000605,1,68,test1,4,0.9085769000002983,-40.0
17,lzb,f,19,r,1,(-172.20000000000002, 2.1088417881317425e-14),25,-5,12,yes,x,5,x,0.7514456999997492,1,69,test1,4,0.7517987000001085,-50.0
17,lzb,f,19,r,1,(172.20000000000002, 0.0),21,-3,11,no,m,6,m,0.9492014000006748,1,70,test1,4,0.9498735999995915,-50.0
17,lzb,f,19,r,1,(-172.20000000000002, 2.1088417881317425e-14),25,-7,13,yes,x,5,x,0.6167701999993369,1,71,test1,4,0.6171537999998691,-52.0
17,lzb,f,19,r,1,(1.0544208940658713e-14, 172.20000000000002),23,7,3,no,m,6,m,0.9357324000002336,1,72,test1,4,0.9362070999995922,-52.0
17,lzb,f,19,r,1,(1.0544208940658713e-14, 172.20000000000002),23,25,4,no,m,6,m,0.7429938000004768,1,73,test1,4,0.7432447000001048,-52.0
17,lzb,f,19,r,1,(172.20000000000002, 0.0),21,-25,14,yes,x,5,x,0.6759489000005487,1,74,test1,4,0.6760601000005408,-70.0
17,lzb,f,19,r,1,(172.20000000000002, 0.0),21,-3,11,yes,x,5,x,0.6623165999999401,1,75,test1,4,0.6625912000008611,-48.0
17,lzb,f,19,r,1,(-121.76378772032348, 121.76378772032349),24,3,1,no,m,6,m,1.1387887000000774,1,76,test1,4,1.1389460999998846,-48.0
17,lzb,f,19,r,1,(-3.163262682197613e-14, -172.20000000000002),27,25,4,yes,x,5,x,0.567638800000168,1,77,test1,4,0.5677992999999333,-20.0
17,lzb,f,19,r,1,(-121.76378772032352, -121.76378772032348),26,-5,12,yes,x,5,x,0.6295820000004824,1,78,test1,4,0.6299403000002712,-50.0
17,lzb,f,19,r,1,(-121.76378772032348, 121.76378772032349),24,-7,13,yes,x,5,x,0.5457302999993772,1,79,test1,4,0.5458290000005945,-52.0
17,lzb,f,19,r,1,(121.76378772032346, -121.76378772032352),28,-7,13,yes,x,5,x,0.5993284000005588,1,80,test1,4,0.5994498999998541,-52.0
17,lzb,f,19,r,1,(121.76378772032346, -121.76378772032352),28,7,3,no,m,6,m,0.7627566000001025,1,81,test1,4,0.762954499999978,-52.0
17,lzb,f,19,r,1,(-3.163262682197613e-14, -172.20000000000002),27,-7,13,yes,x,5,x,0.8608970999994199,1,82,test1,4,0.8611359999995329,-52.0
17,lzb,f,19,r,1,(-121.76378772032348, 121.76378772032349),24,7,3,yes,x,5,x,0.6282457999996041,1,83,test1,4,0.6283606999995754,-38.0
17,lzb,f,19,r,1,(172.20000000000002, 0.0),21,25,4,yes,x,5,x,0.5658938999995371,1,84,test1,4,0.5665486999996574,-20.0
17,lzb,f,19,r,1,(121.76378772032349, 121.76378772032349),22,-5,12,no,m,6,m,0.7285022999994908,1,85,test1,4,0.7285996000000523,-20.0
17,lzb,f,19,r,1,(121.76378772032349, 121.76378772032349),22,5,2,yes,x,5,m,0.7731459999995423,0,86,test1,4,0.7732503000006545,-40.0
17,lzb,f,19,r,1,(-121.76378772032348, 121.76378772032349),24,-25,14,no,m,6,m,0.9220799000004263,1,87,test1,4,0.922181200000523,-40.0
17,lzb,f,19,r,1,(1.0544208940658713e-14, 172.20000000000002),23,-25,14,yes,x,5,x,0.5585257000002457,1,88,test1,4,0.5586532000006628,-70.0
17,lzb,f,19,r,1,(121.76378772032349, 121.76378772032349),22,-7,13,yes,x,5,x,0.5774233000001914,1,89,test1,4,0.5776661999998396,-52.0
17,lzb,f,19,r,1,(-121.76378772032348, 121.76378772032349),24,-7,13,no,m,6,m,1.0184706000000006,1,90,test1,4,1.0185705000003509,-52.0
17,lzb,f,19,r,1,(-172.20000000000002, 2.1088417881317425e-14),25,7,3,yes,x,5,x,0.9045784999998432,1,91,test1,4,0.9048038999999335,-38.0
17,lzb,f,19,r,1,(-121.76378772032352, -121.76378772032348),26,-25,14,yes,x,5,x,0.49009360000036395,1,92,test1,4,0.49024999999983265,-70.0
17,lzb,f,19,r,1,(-121.76378772032352, -121.76378772032348),26,7,3,yes,x,5,x,1.0197931000002427,1,93,test1,4,1.0200180000001637,-38.0
17,lzb,f,19,r,1,(-121.76378772032352, -121.76378772032348),26,25,4,yes,x,5,x,0.4041864999999234,1,94,test1,4,0.40434969999932946,-20.0
17,lzb,f,19,r,1,(-3.163262682197613e-14, -172.20000000000002),27,5,2,yes,x,5,x,1.1045411000004606,1,95,test1,4,1.1048326000000088,-40.0
17,lzb,f,19,r,1,(1.0544208940658713e-14, 172.20000000000002),23,-3,11,yes,x,5,m,1.44375940000009,0,96,test1,4,1.4439956000005623,-48.0
17,lzb,f,19,r,1,(-121.76378772032348, 121.76378772032349),24,25,4,yes,x,5,x,0.516455799999676,1,1,test2,4,0.5166809999991528,-20.0
17,lzb,f,19,r,1,(121.76378772032346, -121.76378772032352),28,-3,11,yes,x,5,x,0.8408605999993597,1,2,test2,4,0.8411665000003268,-48.0
17,lzb,f,19,r,1,(-121.76378772032348, 121.76378772032349),24,-25,14,yes,x,5,x,0.41748769999867363,1,3,test2,4,0.4175881000010122,-70.0
17,lzb,f,19,r,1,(172.20000000000002, 0.0),21,-5,12,yes,x,5,x,0.6932980999990832,1,4,test2,4,0.6937436000007438,-50.0
17,lzb,f,19,r,1,(-121.76378772032352, -121.76378772032348),26,-5,12,no,m,6,m,0.9839685999995709,1,5,test2,4,0.9842282000008709,-50.0
17,lzb,f,19,r,1,(-3.163262682197613e-14, -172.20000000000002),27,-5,12,yes,x,5,x,0.5150310000008176,1,6,test2,4,0.5155045999999857,-50.0
17,lzb,f,19,r,1,(121.76378772032349, 121.76378772032349),22,3,1,yes,x,5,x,0.7282341000009183,1,7,test2,4,0.7288145999991684,-42.0
17,lzb,f,19,r,1,(121.76378772032346, -121.76378772032352),28,5,2,yes,x,5,x,0.6661557999996148,1,8,test2,4,0.6663293000001431,-40.0
17,lzb,f,19,r,1,(-121.76378772032352, -121.76378772032348),26,-7,13,no,m,6,x,0.9617366000002221,0,9,test2,4,0.9618772000012541,-40.0
17,lzb,f,19,r,1,(-121.76378772032352, -121.76378772032348),26,5,2,yes,x,5,x,0.5674859000009747,1,10,test2,4,0.5679311999992933,-40.0
17,lzb,f,19,r,1,(-172.20000000000002, 2.1088417881317425e-14),25,-3,11,yes,x,5,x,0.5979962999990676,1,11,test2,4,0.5982268000007025,-48.0
17,lzb,f,19,r,1,(-121.76378772032352, -121.76378772032348),26,7,3,yes,x,5,x,0.6182446000002528,1,12,test2,4,0.6183481000007305,-38.0
17,lzb,f,19,r,1,(-3.163262682197613e-14, -172.20000000000002),27,3,1,yes,x,5,m,0.794868499999211,0,13,test2,4,0.7949688000007882,-42.0
17,lzb,f,19,r,1,(-172.20000000000002, 2.1088417881317425e-14),25,3,1,yes,x,5,x,0.7665560000004916,1,14,test2,4,0.7667844999996305,-42.0
17,lzb,f,19,r,1,(1.0544208940658713e-14, 172.20000000000002),23,-5,12,yes,x,5,x,0.5871537000002718,1,15,test2,4,0.5873222000009264,-50.0
17,lzb,f,19,r,1,(172.20000000000002, 0.0),21,7,3,no,m,6,m,0.8273081000006641,1,16,test2,4,0.8274099000009301,-50.0
17,lzb,f,19,r,1,(-3.163262682197613e-14, -172.20000000000002),27,-25,14,no,m,6,m,0.8428873000011663,1,17,test2,4,0.8431662999992113,-50.0
17,lzb,f,19,r,1,(-121.76378772032348, 121.76378772032349),24,3,1,yes,x,5,x,0.8913832000016555,1,18,test2,4,0.8917385999993712,-42.0
17,lzb,f,19,r,1,(121.76378772032349, 121.76378772032349),22,25,4,yes,x,5,x,0.5242756000006921,1,19,test2,4,0.5243751000016346,-20.0
17,lzb,f,19,r,1,(-172.20000000000002, 2.1088417881317425e-14),25,5,2,yes,x,5,x,0.6024144000002707,1,20,test2,4,0.6026575000014418,-40.0
17,lzb,f,19,r,1,(-172.20000000000002, 2.1088417881317425e-14),25,25,4,yes,x,5,x,0.5176745000007941,1,21,test2,4,0.5181818000000931,-20.0
17,lzb,f,19,r,1,(1.0544208940658713e-14, 172.20000000000002),23,-7,13,yes,x,5,x,0.6117191000012099,1,22,test2,4,0.612064900000405,-52.0
17,lzb,f,19,r,1,(-172.20000000000002, 2.1088417881317425e-14),25,5,2,yes,x,5,x,0.48238640000090527,1,23,test2,4,0.4824962000002415,-40.0
17,lzb,f,19,r,1,(-3.163262682197613e-14, -172.20000000000002),27,-25,14,yes,x,5,x,0.45715759999984584,1,24,test2,4,0.45725169999968784,-70.0
17,lzb,f,19,r,1,(121.76378772032349, 121.76378772032349),22,3,1,yes,x,5,x,0.8313024999988556,1,25,test2,4,0.831601399999272,-42.0
17,lzb,f,19,r,1,(-3.163262682197613e-14, -172.20000000000002),27,-7,13,no,m,6,m,0.9637079000003723,1,26,test2,4,0.9643240999994305,-42.0
17,lzb,f,19,r,1,(121.76378772032346, -121.76378772032352),28,-5,12,no,m,6,m,0.7226569000013114,1,27,test2,4,0.7228820000000269,-42.0
17,lzb,f,19,r,1,(121.76378772032349, 121.76378772032349),22,-25,14,yes,x,5,x,0.4985266000003321,1,28,test2,4,0.4986333000015293,-70.0
17,lzb,f,19,r,1,(1.0544208940658713e-14, 172.20000000000002),23,7,3,yes,x,5,x,0.5465605000008509,1,29,test2,4,0.5467146000009961,-38.0
17,lzb,f,19,r,1,(121.76378772032346, -121.76378772032352),28,-5,12,yes,x,5,x,0.7447322000007262,1,30,test2,4,0.7449206999990565,-50.0
17,lzb,f,19,r,1,(-172.20000000000002, 2.1088417881317425e-14),25,25,4,no,m,6,m,0.9250269000003755,1,31,test2,4,0.9253453000001173,-50.0
17,lzb,f,19,r,1,(1.0544208940658713e-14, 172.20000000000002),23,3,1,yes,x,5,x,0.830463400001463,1,32,test2,4,0.8305959999997867,-42.0
17,lzb,f,19,r,1,(-121.76378772032348, 121.76378772032349),24,-3,11,yes,x,5,x,0.9287468000002264,1,33,test2,4,0.9288429000007454,-48.0
17,lzb,f,19,r,1,(121.76378772032346, -121.76378772032352),28,7,3,yes,x,5,x,0.6431644000003871,1,34,test2,4,0.6434566999996605,-38.0
17,lzb,f,19,r,1,(-3.163262682197613e-14, -172.20000000000002),27,5,2,no,m,6,m,0.907961199998681,1,35,test2,4,0.90861330000007,-38.0
17,lzb,f,19,r,1,(-121.76378772032352, -121.76378772032348),26,5,2,yes,x,5,x,0.9793065000012575,1,36,test2,4,0.9797870999991574,-40.0
17,lzb,f,19,r,1,(172.20000000000002, 0.0),21,3,1,yes,x,5,m,1.0987205999990692,0,37,test2,4,1.0990172999991046,-42.0
17,lzb,f,19,r,1,(-172.20000000000002, 2.1088417881317425e-14),25,3,1,yes,x,5,x,0.8492475000002742,1,38,test2,4,0.8494080999989819,-42.0
17,lzb,f,19,r,1,(-121.76378772032352, -121.76378772032348),26,25,4,no,m,6,m,0.9730949999993754,1,39,test2,4,0.9732155000001512,-42.0
17,lzb,f,19,r,1,(-121.76378772032348, 121.76378772032349),24,5,2,yes,x,5,x,0.6668284999996104,1,40,test2,4,0.6670501000007789,-40.0
17,lzb,f,19,r,1,(-121.76378772032352, -121.76378772032348),26,-3,11,no,m,6,m,0.8418222999989666,1,41,test2,4,0.8420298000000912,-40.0
17,lzb,f,19,r,1,(121.76378772032346, -121.76378772032352),28,7,3,yes,x,5,x,0.6187133000003087,1,42,test2,4,0.6188728000015544,-38.0
17,lzb,f,19,r,1,(172.20000000000002, 0.0),21,25,4,no,m,6,m,0.820872700000109,1,43,test2,4,0.8211135999990802,-38.0
17,lzb,f,19,r,1,(-121.76378772032348, 121.76378772032349),24,7,3,yes,x,5,x,0.5336513999991439,1,44,test2,4,0.5339657000004081,-38.0
17,lzb,f,19,r,1,(121.76378772032346, -121.76378772032352),28,3,1,yes,x,5,x,0.7790004999988014,1,45,test2,4,0.7791039000003366,-42.0
17,lzb,f,19,r,1,(172.20000000000002, 0.0),21,-3,11,yes,x,5,x,0.6428174000011495,1,46,test2,4,0.6431444999998348,-48.0
17,lzb,f,19,r,1,(-121.76378772032348, 121.76378772032349),24,25,4,no,m,6,m,0.7224863999999798,1,47,test2,4,0.7225838999984262,-48.0
17,lzb,f,19,r,1,(121.76378772032346, -121.76378772032352),28,3,1,no,m,6,m,0.947419500000251,1,48,test2,4,0.947839100001147,-48.0
17,lzb,f,19,r,1,(-3.163262682197613e-14, -172.20000000000002),27,7,3,yes,x,5,x,0.566901099999086,1,49,test2,4,0.56739319999906,-38.0
17,lzb,f,19,r,1,(-3.163262682197613e-14, -172.20000000000002),27,7,3,yes,x,5,x,0.5023746999995637,1,50,test2,4,0.5026856000004045,-38.0
17,lzb,f,19,r,1,(-121.76378772032352, -121.76378772032348),26,-7,13,yes,x,5,x,0.46092480000152136,1,51,test2,4,0.46104920000107086,-52.0
17,lzb,f,19,r,1,(-121.76378772032348, 121.76378772032349),24,7,3,no,m,6,m,0.7550460999991628,1,52,test2,4,0.7551725000012084,-52.0
17,lzb,f,19,r,1,(121.76378772032346, -121.76378772032352),28,-25,14,yes,x,5,x,0.5329123000010441,1,53,test2,4,0.5330940000003466,-70.0
17,lzb,f,19,r,1,(121.76378772032349, 121.76378772032349),22,5,2,yes,x,5,x,0.8116334999995161,1,54,test2,4,0.8119082000011986,-40.0
17,lzb,f,19,r,1,(-3.163262682197613e-14, -172.20000000000002),27,5,2,yes,x,5,x,0.6926172000003135,1,55,test2,4,0.6927808000000368,-40.0
17,lzb,f,19,r,1,(172.20000000000002, 0.0),21,-25,14,no,m,6,m,0.753121599998849,1,56,test2,4,0.7532233999991149,-40.0
17,lzb,f,19,r,1,(1.0544208940658713e-14, 172.20000000000002),23,-7,13,yes,x,5,x,0.43484669999998005,1,57,test2,4,0.435009099999661,-52.0
17,lzb,f,19,r,1,(121.76378772032349, 121.76378772032349),22,-25,14,no,m,6,m,0.7092450000000099,1,58,test2,4,0.7093784999997297,-52.0
