subj_id,subj_name,subj_gender ,subj_age,subj_handedness,subj_runNum,tar_l_x,tar_l_y,loc_code,tar_ori,tar_code,tar_pre ,cor_response,pre_code,subj_response,RT,correct,trial_num,type,bloc_num,dur, real_tar
18,cyh,f,19,r,1,(-172.20000000000002, 2.1088417881317425e-14),25,3,1,yes,x,5,None,None,0,1,prac,0,1.9800953000085428,-42.0
18,cyh,f,19,r,1,(172.20000000000002, 0.0),21,25,4,yes,x,5,None,None,0,2,prac,0,1.9802243000012822,-20.0
18,cyh,f,19,r,1,(-3.163262682197613e-14, -172.20000000000002),27,25,4,yes,x,5,x,0.9494309000147041,1,3,prac,0,0.9497383999987505,-20.0
18,cyh,f,19,r,1,(121.76378772032346, -121.76378772032352),28,-5,12,yes,x,5,m,0.602739299996756,0,4,prac,0,0.6028806999966037,-50.0
18,cyh,f,19,r,1,(-121.76378772032348, 121.76378772032349),24,-25,14,yes,x,5,x,0.5374240000091959,1,5,prac,0,0.5375385000079405,-70.0
18,cyh,f,19,r,1,(-3.163262682197613e-14, -172.20000000000002),27,-25,14,no,m,6,m,1.2532485999981873,1,6,prac,0,1.253907700011041,-70.0
18,cyh,f,19,r,1,(172.20000000000002, 0.0),21,-3,11,no,m,6,m,1.0547820999927353,1,7,prac,0,1.054883400007384,-70.0
18,cyh,f,19,r,1,(1.0544208940658713e-14, 172.20000000000002),23,-25,14,yes,x,5,x,0.5268389999982901,1,8,prac,0,0.5271521999966353,-70.0
18,cyh,f,19,r,1,(-121.76378772032348, 121.76378772032349),24,5,2,no,m,6,x,0.5850400000053924,0,9,prac,0,0.58528979998664,-70.0
18,cyh,f,19,r,1,(-172.20000000000002, 2.1088417881317425e-14),25,-7,13,yes,x,5,x,0.6559419000113849,1,10,prac,0,0.6561632999801077,-52.0
18,cyh,f,19,r,1,(172.20000000000002, 0.0),21,-5,12,yes,x,5,m,0.7146211999934167,0,11,prac,0,0.7148313999932725,-50.0
18,cyh,f,19,r,1,(-121.76378772032352, -121.76378772032348),26,7,3,yes,x,5,x,0.6905473999795504,1,12,prac,0,0.6906523999932688,-38.0
18,cyh,f,19,r,1,(1.0544208940658713e-14, 172.20000000000002),23,-25,14,no,m,6,m,0.7697403999918606,1,13,prac,0,0.770263700018404,-38.0
18,cyh,f,19,r,1,(-121.76378772032352, -121.76378772032348),26,25,4,yes,x,5,x,0.5639190999791026,1,14,prac,0,0.564237000013236,-20.0
18,cyh,f,19,r,1,(-121.76378772032352, -121.76378772032348),26,-3,11,yes,x,5,m,0.7456614999973681,0,15,prac,0,0.7458186000003479,-48.0
18,cyh,f,19,r,1,(-121.76378772032348, 121.76378772032349),24,25,4,yes,x,5,x,0.5571288999926765,1,16,prac,0,0.5572431000182405,-20.0
18,cyh,f,19,r,1,(172.20000000000002, 0.0),21,-7,13,yes,x,5,m,0.8209468999993987,0,17,prac,0,0.8212288000213448,-52.0
18,cyh,f,19,r,1,(121.76378772032349, 121.76378772032349),22,-5,12,no,m,6,m,0.8731767999997828,1,18,prac,0,0.8732776000106242,-52.0
18,cyh,f,19,r,1,(-3.163262682197613e-14, -172.20000000000002),27,7,3,no,m,6,m,1.203958900005091,1,19,prac,0,1.2040798000234645,-52.0
18,cyh,f,19,r,1,(121.76378772032349, 121.76378772032349),22,3,1,yes,x,5,m,1.4623238999920432,0,20,prac,0,1.4626062999886926,-42.0
18,cyh,f,19,r,1,(121.76378772032346, -121.76378772032352),28,-5,12,no,m,6,m,1.0656006999779493,1,1,test1,1,1.0660377999884076,-42.0
18,cyh,f,19,r,1,(121.76378772032346, -121.76378772032352),28,-7,13,yes,x,5,m,0.7999318999936804,0,2,test1,1,0.8001425999973435,-52.0
18,cyh,f,19,r,1,(121.76378772032346, -121.76378772032352),28,-3,11,yes,x,5,x,0.8642007000162266,1,3,test1,1,0.8644382999918889,-48.0
18,cyh,f,19,r,1,(121.76378772032349, 121.76378772032349),22,3,1,no,m,6,m,0.7914594000030775,1,4,test1,1,0.791556899988791,-48.0
18,cyh,f,19,r,1,(-3.163262682197613e-14, -172.20000000000002),27,5,2,no,m,6,m,0.9417990000220016,1,5,test1,1,0.9420346999831963,-48.0
18,cyh,f,19,r,1,(-172.20000000000002, 2.1088417881317425e-14),25,-7,13,yes,x,5,x,0.780432200001087,1,6,test1,1,0.7806056999834254,-52.0
18,cyh,f,19,r,1,(121.76378772032349, 121.76378772032349),22,-25,14,yes,x,5,x,0.5746493000187911,1,7,test1,1,0.574896699981764,-70.0
18,cyh,f,19,r,1,(-121.76378772032352, -121.76378772032348),26,5,2,yes,x,5,x,0.9376852000132203,1,8,test1,1,0.9380558999837376,-40.0
18,cyh,f,19,r,1,(-121.76378772032352, -121.76378772032348),26,3,1,yes,x,5,m,1.1815863000229,0,9,test1,1,1.1819934000086505,-42.0
18,cyh,f,19,r,1,(121.76378772032349, 121.76378772032349),22,3,1,yes,x,5,m,1.3533581999945454,0,10,test1,1,1.3535784000123385,-42.0
18,cyh,f,19,r,1,(1.0544208940658713e-14, 172.20000000000002),23,3,1,yes,x,5,m,0.8341333999997005,0,11,test1,1,0.8344559000106528,-42.0
18,cyh,f,19,r,1,(1.0544208940658713e-14, 172.20000000000002),23,-25,14,no,m,6,m,0.8713996000005864,1,12,test1,1,0.8714953000016976,-42.0
18,cyh,f,19,r,1,(172.20000000000002, 0.0),21,-3,11,yes,x,5,x,1.2999996000144165,1,13,test1,1,1.3002243999799248,-48.0
18,cyh,f,19,r,1,(-121.76378772032352, -121.76378772032348),26,7,3,no,m,6,m,1.0554582000186201,1,14,test1,1,1.0555575999896973,-48.0
18,cyh,f,19,r,1,(-121.76378772032348, 121.76378772032349),24,3,1,no,m,6,m,1.0621423000120558,1,15,test1,1,1.0623615000222344,-48.0
18,cyh,f,19,r,1,(121.76378772032349, 121.76378772032349),22,-5,12,yes,x,5,m,0.9565478999866173,0,16,test1,1,0.956822199979797,-50.0
18,cyh,f,19,r,1,(1.0544208940658713e-14, 172.20000000000002),23,25,4,no,m,6,m,0.8340086999814957,1,17,test1,1,0.8342547999927774,-50.0
18,cyh,f,19,r,1,(-121.76378772032348, 121.76378772032349),24,-7,13,yes,x,5,x,0.9033379000029527,1,18,test1,1,0.9034351999871433,-52.0
18,cyh,f,19,r,1,(121.76378772032346, -121.76378772032352),28,5,2,yes,x,5,m,0.8294498999894131,0,19,test1,1,0.8296161000034772,-40.0
18,cyh,f,19,r,1,(172.20000000000002, 0.0),21,-25,14,yes,x,5,x,0.6097391000075731,1,20,test1,1,0.6101243000011891,-70.0
18,cyh,f,19,r,1,(-121.76378772032352, -121.76378772032348),26,25,4,yes,x,5,x,0.5194269999919925,1,21,test1,1,0.5197335000266321,-20.0
18,cyh,f,19,r,1,(121.76378772032346, -121.76378772032352),28,-7,13,yes,x,5,x,1.1264161000144668,1,22,test1,1,1.126528299995698,-52.0
18,cyh,f,19,r,1,(-3.163262682197613e-14, -172.20000000000002),27,7,3,yes,x,5,x,0.5444648000120651,1,23,test1,1,0.5445842999906745,-38.0
18,cyh,f,19,r,1,(121.76378772032346, -121.76378772032352),28,5,2,no,m,6,m,1.03209799999604,1,24,test1,1,1.0324488999904133,-38.0
18,cyh,f,19,r,1,(121.76378772032349, 121.76378772032349),22,-3,11,yes,x,5,m,1.1320960999873932,0,25,test1,1,1.1322125000006054,-48.0
18,cyh,f,19,r,1,(172.20000000000002, 0.0),21,-7,13,yes,x,5,x,0.5896919000078924,1,26,test1,1,0.5899139999819454,-52.0
18,cyh,f,19,r,1,(1.0544208940658713e-14, 172.20000000000002),23,3,1,no,m,6,m,0.9117607999942265,1,27,test1,1,0.9119543000124395,-52.0
18,cyh,f,19,r,1,(-121.76378772032352, -121.76378772032348),26,-5,12,no,m,6,m,1.3324694999901112,1,28,test1,1,1.3329813000163995,-52.0
18,cyh,f,19,r,1,(121.76378772032349, 121.76378772032349),22,-7,13,yes,x,5,x,0.9278318999859039,1,29,test1,1,0.9282887999725062,-52.0
18,cyh,f,19,r,1,(-3.163262682197613e-14, -172.20000000000002),27,-25,14,yes,x,5,x,0.5869187000207603,1,30,test1,1,0.5870305999997072,-70.0
18,cyh,f,19,r,1,(-121.76378772032348, 121.76378772032349),24,5,2,no,m,6,m,0.7749717000115197,1,31,test1,1,0.7751959000015631,-70.0
18,cyh,f,19,r,1,(1.0544208940658713e-14, 172.20000000000002),23,-7,13,yes,x,5,x,1.0825449999829289,1,32,test1,1,1.0830177000025287,-52.0
18,cyh,f,19,r,1,(-3.163262682197613e-14, -172.20000000000002),27,3,1,yes,x,5,x,1.3198001999990083,1,33,test1,1,1.320035300013842,-42.0
18,cyh,f,19,r,1,(121.76378772032349, 121.76378772032349),22,-7,13,yes,x,5,x,1.2055152999819256,1,34,test1,1,1.2056582000222988,-52.0
18,cyh,f,19,r,1,(121.76378772032349, 121.76378772032349),22,-3,11,no,m,6,m,1.2999380999826826,1,35,test1,1,1.3003887000086252,-52.0
18,cyh,f,19,r,1,(172.20000000000002, 0.0),21,7,3,yes,x,5,x,0.7925332000013441,1,36,test1,1,0.7927250000066124,-38.0
18,cyh,f,19,r,1,(-3.163262682197613e-14, -172.20000000000002),27,-7,13,no,m,6,m,0.9193484999996144,1,37,test1,1,0.9194503999897279,-38.0
18,cyh,f,19,r,1,(-172.20000000000002, 2.1088417881317425e-14),25,-3,11,yes,x,5,m,1.2117467999923974,0,38,test1,1,1.212404099991545,-48.0
18,cyh,f,19,r,1,(-121.76378772032348, 121.76378772032349),24,-25,14,no,m,6,m,1.4793226000037976,1,39,test1,1,1.4795309999899473,-48.0
18,cyh,f,19,r,1,(-121.76378772032352, -121.76378772032348),26,-25,14,yes,x,5,x,0.5968938999867532,1,40,test1,1,0.5970235000131652,-70.0
18,cyh,f,19,r,1,(121.76378772032346, -121.76378772032352),28,3,1,yes,x,5,m,0.9239899000094738,0,41,test1,1,0.9242225000052713,-42.0
18,cyh,f,19,r,1,(1.0544208940658713e-14, 172.20000000000002),23,5,2,no,m,6,m,1.2858589999959804,1,42,test1,1,1.286047100002179,-42.0
18,cyh,f,19,r,1,(1.0544208940658713e-14, 172.20000000000002),23,5,2,yes,x,5,x,0.6457467000000179,1,43,test1,1,0.6458664999809116,-40.0
18,cyh,f,19,r,1,(-3.163262682197613e-14, -172.20000000000002),27,-5,12,no,m,6,m,1.7740099000220653,1,44,test1,1,1.7741431000176817,-40.0
18,cyh,f,19,r,1,(-172.20000000000002, 2.1088417881317425e-14),25,-3,11,yes,x,5,m,1.5361126999778207,0,45,test1,1,1.5364888999902178,-48.0
18,cyh,f,19,r,1,(-172.20000000000002, 2.1088417881317425e-14),25,3,1,no,m,6,m,1.6976616000174545,1,46,test1,1,1.6977760999870952,-48.0
18,cyh,f,19,r,1,(172.20000000000002, 0.0),21,7,3,no,m,6,m,1.2947797999950126,1,47,test1,1,1.294877699983772,-48.0
18,cyh,f,19,r,1,(121.76378772032349, 121.76378772032349),22,7,3,yes,x,5,x,0.9975370000174735,1,48,test1,1,0.9976376999984495,-38.0
18,cyh,f,19,r,1,(172.20000000000002, 0.0),21,5,2,no,m,6,m,1.7133210000174586,1,49,test1,1,1.7136694000218995,-38.0
18,cyh,f,19,r,1,(172.20000000000002, 0.0),21,-7,13,no,m,6,None,None,0,50,test1,1,1.9800940999994054,-38.0
18,cyh,f,19,r,1,(-172.20000000000002, 2.1088417881317425e-14),25,3,1,yes,x,5,m,0.8326668000081554,0,51,test1,1,0.8328978000208735,-42.0
18,cyh,f,19,r,1,(-121.76378772032352, -121.76378772032348),26,-5,12,yes,x,5,x,1.142847700015409,1,52,test1,1,1.1429886000114493,-50.0
18,cyh,f,19,r,1,(-172.20000000000002, 2.1088417881317425e-14),25,5,2,yes,x,5,m,1.3055930999980774,0,53,test1,1,1.3058054000139236,-40.0
18,cyh,f,19,r,1,(-172.20000000000002, 2.1088417881317425e-14),25,7,3,yes,x,5,x,0.7981023999745958,1,54,test1,1,0.7985914000018965,-38.0
18,cyh,f,19,r,1,(121.76378772032349, 121.76378772032349),22,3,1,yes,x,5,m,1.5043664000113495,0,55,test1,1,1.5044670999923255,-42.0
18,cyh,f,19,r,1,(-121.76378772032352, -121.76378772032348),26,5,2,yes,x,5,x,0.8220355000230484,1,56,test1,1,0.8223768000025302,-40.0
18,cyh,f,19,r,1,(-121.76378772032348, 121.76378772032349),24,5,2,yes,x,5,x,1.0045260000042617,1,57,test1,1,1.0046935999998823,-40.0
18,cyh,f,19,r,1,(1.0544208940658713e-14, 172.20000000000002),23,25,4,yes,x,5,x,0.5999777000106405,1,58,test1,1,0.6000885000103153,-20.0
18,cyh,f,19,r,1,(-121.76378772032352, -121.76378772032348),26,-3,11,no,m,6,m,1.784063099999912,1,59,test1,1,1.784367900021607,-20.0
18,cyh,f,19,r,1,(-172.20000000000002, 2.1088417881317425e-14),25,-25,14,no,m,6,None,None,0,60,test1,1,1.9801202999951784,-20.0
18,cyh,f,19,r,1,(172.20000000000002, 0.0),21,3,1,no,m,6,m,1.0747097000130452,1,61,test1,1,1.07487250000122,-20.0
18,cyh,f,19,r,1,(172.20000000000002, 0.0),21,-25,14,no,m,6,m,1.6979900000151247,1,62,test1,1,1.6981163999880664,-20.0
18,cyh,f,19,r,1,(-121.76378772032348, 121.76378772032349),24,-5,12,no,m,6,m,1.3925187999848276,1,63,test1,1,1.392744800017681,-20.0
18,cyh,f,19,r,1,(1.0544208940658713e-14, 172.20000000000002),23,-7,13,yes,x,5,x,0.7400158000236843,1,64,test1,1,0.7401165000046603,-52.0
18,cyh,f,19,r,1,(172.20000000000002, 0.0),21,3,1,yes,x,5,m,1.0510215999966022,0,65,test1,1,1.0511509999923874,-42.0
18,cyh,f,19,r,1,(1.0544208940658713e-14, 172.20000000000002),23,7,3,yes,x,5,x,0.5725175999978092,1,66,test1,1,0.5726419000129681,-38.0
18,cyh,f,19,r,1,(1.0544208940658713e-14, 172.20000000000002),23,3,1,yes,x,5,x,0.7186282000038773,1,67,test1,1,0.718742500001099,-42.0
18,cyh,f,19,r,1,(172.20000000000002, 0.0),21,25,4,no,m,6,m,1.2021150999935344,1,68,test1,1,1.2030908000015188,-42.0
18,cyh,f,19,r,1,(172.20000000000002, 0.0),21,7,3,yes,x,5,x,1.0210120000119787,1,69,test1,1,1.021116299991263,-38.0
18,cyh,f,19,r,1,(121.76378772032346, -121.76378772032352),28,-3,11,yes,x,5,m,1.2208408000005875,0,70,test1,1,1.2210143000120297,-48.0
18,cyh,f,19,r,1,(-172.20000000000002, 2.1088417881317425e-14),25,-5,12,yes,x,5,m,0.9937597000098322,0,71,test1,1,0.9939319999830332,-50.0
18,cyh,f,19,r,1,(1.0544208940658713e-14, 172.20000000000002),23,-5,12,yes,x,5,x,0.6533696999831591,1,72,test1,1,0.6536500999936834,-50.0
18,cyh,f,19,r,1,(-121.76378772032348, 121.76378772032349),24,-3,11,no,m,6,m,1.5219325000070967,1,73,test1,1,1.5222582000133116,-50.0
18,cyh,f,19,r,1,(-121.76378772032348, 121.76378772032349),24,-7,13,yes,x,5,x,0.8560661000083201,1,74,test1,1,0.85629679998965,-52.0
18,cyh,f,19,r,1,(-121.76378772032352, -121.76378772032348),26,7,3,yes,x,5,x,0.6421188999956939,1,75,test1,1,0.6422989999991842,-38.0
18,cyh,f,19,r,1,(1.0544208940658713e-14, 172.20000000000002),23,7,3,no,m,6,m,1.1477858000143897,1,76,test1,1,1.147893599991221,-38.0
18,cyh,f,19,r,1,(-172.20000000000002, 2.1088417881317425e-14),25,5,2,no,m,6,m,1.2790296000021044,1,77,test1,1,1.2793719999899622,-38.0
18,cyh,f,19,r,1,(1.0544208940658713e-14, 172.20000000000002),23,-5,12,no,m,6,m,0.7994022000057157,1,78,test1,1,0.7995015000051353,-38.0
18,cyh,f,19,r,1,(-3.163262682197613e-14, -172.20000000000002),27,25,4,yes,x,5,x,0.5673333000158891,1,79,test1,1,0.567593100015074,-20.0
18,cyh,f,19,r,1,(121.76378772032349, 121.76378772032349),22,5,2,yes,x,5,x,1.2142509999976028,1,80,test1,1,1.2144046000030357,-40.0
18,cyh,f,19,r,1,(121.76378772032349, 121.76378772032349),22,-5,12,no,m,6,m,1.4636269999900833,1,81,test1,1,1.463729000010062,-40.0
18,cyh,f,19,r,1,(172.20000000000002, 0.0),21,-5,12,no,m,6,m,1.6281816000118852,1,82,test1,1,1.6282939000229817,-40.0
18,cyh,f,19,r,1,(-121.76378772032352, -121.76378772032348),26,-25,14,no,m,6,m,1.4839665000035893,1,83,test1,1,1.4841106999956537,-40.0
18,cyh,f,19,r,1,(-172.20000000000002, 2.1088417881317425e-14),25,-5,12,no,m,6,m,1.5110468000057153,1,84,test1,1,1.5111510000133421,-40.0
18,cyh,f,19,r,1,(-172.20000000000002, 2.1088417881317425e-14),25,25,4,yes,x,5,x,0.5755429999844637,1,85,test1,1,0.5756727000116371,-20.0
18,cyh,f,19,r,1,(-3.163262682197613e-14, -172.20000000000002),27,7,3,no,m,6,m,0.9800051999918651,1,86,test1,1,0.980495299998438,-20.0
18,cyh,f,19,r,1,(1.0544208940658713e-14, 172.20000000000002),23,-7,13,no,m,6,m,1.4436530999955721,1,87,test1,1,1.4438627999916207,-20.0
18,cyh,f,19,r,1,(121.76378772032346, -121.76378772032352),28,3,1,yes,x,5,None,None,0,88,test1,1,1.980090900004143,-42.0
18,cyh,f,19,r,1,(172.20000000000002, 0.0),21,25,4,yes,x,5,x,0.5257489000214264,1,89,test1,1,0.5258488999970723,-20.0
18,cyh,f,19,r,1,(-172.20000000000002, 2.1088417881317425e-14),25,-7,13,no,m,6,m,0.9708012999908533,1,90,test1,1,0.9714268999814522,-20.0
18,cyh,f,19,r,1,(-3.163262682197613e-14, -172.20000000000002),27,25,4,no,m,6,m,1.0788945000094827,1,91,test1,1,1.0792411000002176,-20.0
18,cyh,f,19,r,1,(-3.163262682197613e-14, -172.20000000000002),27,-7,13,yes,x,5,x,0.7982902999792714,1,92,test1,1,0.7984532999980729,-52.0
18,cyh,f,19,r,1,(121.76378772032349, 121.76378772032349),22,-25,14,no,m,6,m,1.0988884999824222,1,93,test1,1,1.0989909000054467,-52.0
18,cyh,f,19,r,1,(-121.76378772032348, 121.76378772032349),24,25,4,no,m,6,m,1.062729199999012,1,94,test1,1,1.062835000018822,-52.0
18,cyh,f,19,r,1,(1.0544208940658713e-14, 172.20000000000002),23,-25,14,yes,x,5,x,0.6230932000034954,1,95,test1,1,0.6233003000088502,-70.0
18,cyh,f,19,r,1,(121.76378772032349, 121.76378772032349),22,25,4,yes,x,5,x,0.9044915999984369,1,96,test1,1,0.904710199974943,-20.0
18,cyh,f,19,r,1,(-121.76378772032352, -121.76378772032348),26,5,2,no,m,6,m,0.7751965000061318,1,1,test2,1,0.7752991000015754,-20.0
18,cyh,f,19,r,1,(-172.20000000000002, 2.1088417881317425e-14),25,-3,11,no,m,6,m,1.0078129000030458,1,2,test2,1,1.0079126000055112,-20.0
18,cyh,f,19,r,1,(121.76378772032349, 121.76378772032349),22,7,3,yes,x,5,x,0.5682154999813065,1,3,test2,1,0.568419500021264,-38.0
18,cyh,f,19,r,1,(-121.76378772032348, 121.76378772032349),24,3,1,yes,x,5,x,1.031801999983145,1,4,test2,1,1.0319254000205547,-42.0
18,cyh,f,19,r,1,(1.0544208940658713e-14, 172.20000000000002),23,7,3,yes,x,5,x,0.5404646000242792,1,5,test2,1,0.5405656000075396,-38.0
18,cyh,f,19,r,1,(-172.20000000000002, 2.1088417881317425e-14),25,5,2,yes,x,5,x,1.0880699999979697,1,6,test2,1,1.0882135999854654,-40.0
18,cyh,f,19,r,1,(-121.76378772032348, 121.76378772032349),24,7,3,yes,x,5,x,0.5998638000164647,1,7,test2,1,0.6001658000168391,-38.0
18,cyh,f,19,r,1,(121.76378772032346, -121.76378772032352),28,25,4,yes,x,5,x,0.47528820001753047,1,8,test2,1,0.47538580000400543,-20.0
18,cyh,f,19,r,1,(-172.20000000000002, 2.1088417881317425e-14),25,-25,14,yes,x,5,x,0.44504190000589006,1,9,test2,1,0.44513790000928566,-70.0
18,cyh,f,19,r,1,(121.76378772032349, 121.76378772032349),22,25,4,no,m,6,m,0.8654718000034336,1,10,test2,1,0.8655978000024334,-70.0
18,cyh,f,19,r,1,(-121.76378772032348, 121.76378772032349),24,25,4,yes,x,5,x,0.5202902000164613,1,11,test2,1,0.5205159999895841,-20.0
18,cyh,f,19,r,1,(121.76378772032349, 121.76378772032349),22,-25,14,yes,x,5,x,0.494706600002246,1,12,test2,1,0.4949818999739364,-70.0
18,cyh,f,19,r,1,(-121.76378772032352, -121.76378772032348),26,-7,13,yes,x,5,x,0.9436557999870274,1,13,test2,1,0.9439419999835081,-52.0
18,cyh,f,19,r,1,(-3.163262682197613e-14, -172.20000000000002),27,5,2,yes,x,5,x,0.8763730000064243,1,14,test2,1,0.8765038000128698,-40.0
18,cyh,f,19,r,1,(-3.163262682197613e-14, -172.20000000000002),27,-5,12,yes,x,5,x,0.8863580000179354,1,15,test2,1,0.8865833999880124,-50.0
18,cyh,f,19,r,1,(1.0544208940658713e-14, 172.20000000000002),23,-3,11,no,m,6,m,0.8763763000024483,1,16,test2,1,0.8766055000014603,-50.0
18,cyh,f,19,r,1,(-121.76378772032352, -121.76378772032348),26,-7,13,no,m,6,m,1.126124299975345,1,17,test2,1,1.126496600016253,-50.0
18,cyh,f,19,r,1,(172.20000000000002, 0.0),21,5,2,yes,x,5,x,0.9648070000112057,1,18,test2,1,0.9650082000007387,-40.0
18,cyh,f,19,r,1,(121.76378772032346, -121.76378772032352),28,-5,12,yes,x,5,x,1.0061950999952387,1,19,test2,1,1.0064580999896862,-50.0
18,cyh,f,19,r,1,(-121.76378772032352, -121.76378772032348),26,-7,13,yes,x,5,x,0.6649350000079721,1,20,test2,1,0.6651600999757648,-52.0
18,cyh,f,19,r,1,(172.20000000000002, 0.0),21,-7,13,yes,x,5,x,0.5441510000091512,1,21,test2,1,0.5443163000163622,-52.0
18,cyh,f,19,r,1,(-172.20000000000002, 2.1088417881317425e-14),25,7,3,no,m,6,m,1.2164154999773018,1,22,test2,1,1.2165762999793515,-52.0
18,cyh,f,19,r,1,(-3.163262682197613e-14, -172.20000000000002),27,3,1,no,m,6,m,1.6624165999819525,1,23,test2,1,1.6627014999976382,-52.0
18,cyh,f,19,r,1,(1.0544208940658713e-14, 172.20000000000002),23,25,4,yes,x,5,x,0.5250479000096675,1,24,test2,1,0.5252301000000443,-20.0
18,cyh,f,19,r,1,(121.76378772032349, 121.76378772032349),22,5,2,yes,x,5,x,0.8485648999921978,1,25,test2,1,0.8486625000077765,-40.0
18,cyh,f,19,r,1,(-172.20000000000002, 2.1088417881317425e-14),25,25,4,yes,x,5,x,0.5364381000108551,1,26,test2,1,0.5365568000124767,-20.0
18,cyh,f,19,r,1,(121.76378772032349, 121.76378772032349),22,25,4,yes,x,5,x,0.5103243000048678,1,27,test2,1,0.5104232000012416,-20.0
18,cyh,f,19,r,1,(121.76378772032346, -121.76378772032352),28,-25,14,no,m,6,m,1.5162873000081163,1,28,test2,1,1.5164097000088077,-20.0
18,cyh,f,19,r,1,(172.20000000000002, 0.0),21,25,4,yes,x,5,x,0.4676030999980867,1,29,test2,1,0.4677025999990292,-20.0
18,cyh,f,19,r,1,(-172.20000000000002, 2.1088417881317425e-14),25,7,3,yes,x,5,x,0.737569999997504,1,30,test2,1,0.7378824000188615,-38.0
18,cyh,f,19,r,1,(121.76378772032349, 121.76378772032349),22,-7,13,no,m,6,m,1.1934414000133984,1,31,test2,1,1.193669400003273,-38.0
18,cyh,f,19,r,1,(1.0544208940658713e-14, 172.20000000000002),23,5,2,yes,x,5,x,1.0472830999933649,1,32,test2,1,1.0479202999849804,-40.0
18,cyh,f,19,r,1,(1.0544208940658713e-14, 172.20000000000002),23,-3,11,yes,x,5,x,0.9759371999825817,1,33,test2,1,0.9763233000121545,-48.0
18,cyh,f,19,r,1,(-3.163262682197613e-14, -172.20000000000002),27,-3,11,yes,x,5,x,1.5425893999927212,1,34,test2,1,1.5426876999845263,-48.0
18,cyh,f,19,r,1,(1.0544208940658713e-14, 172.20000000000002),23,-5,12,yes,x,5,x,0.7120157999743242,1,35,test2,1,0.7124209000030532,-50.0
18,cyh,f,19,r,1,(-121.76378772032348, 121.76378772032349),24,-3,11,yes,x,5,m,1.1044172999972943,0,36,test2,1,1.1046408000111114,-48.0
18,cyh,f,19,r,1,(-121.76378772032348, 121.76378772032349),24,7,3,no,m,6,m,1.3555391000118107,1,37,test2,1,1.3559176999842748,-48.0
18,cyh,f,19,r,1,(-121.76378772032352, -121.76378772032348),26,-3,11,yes,x,5,m,0.9903658000112046,0,38,test2,1,0.9906486999825574,-48.0
18,cyh,f,19,r,1,(121.76378772032346, -121.76378772032352),28,-5,12,yes,x,5,x,1.329946599988034,1,39,test2,1,1.3304247000196483,-50.0
18,cyh,f,19,r,1,(-172.20000000000002, 2.1088417881317425e-14),25,-5,12,yes,x,5,x,1.4562737000233028,1,40,test2,1,1.4563856000022497,-50.0
18,cyh,f,19,r,1,(172.20000000000002, 0.0),21,5,2,yes,x,5,x,0.9437261999992188,1,41,test2,1,0.9439411000057589,-40.0
18,cyh,f,19,r,1,(-3.163262682197613e-14, -172.20000000000002),27,7,3,yes,x,5,x,0.5180959999852348,1,42,test2,1,0.5185535000055097,-38.0
18,cyh,f,19,r,1,(-3.163262682197613e-14, -172.20000000000002),27,25,4,yes,x,5,x,0.4609619999828283,1,43,test2,1,0.4611804000160191,-20.0
18,cyh,f,19,r,1,(121.76378772032349, 121.76378772032349),22,-3,11,yes,x,5,x,1.4344362000119872,1,44,test2,1,1.4351254000212066,-48.0
18,cyh,f,19,r,1,(-172.20000000000002, 2.1088417881317425e-14),25,-25,14,yes,x,5,x,0.442167100001825,1,45,test2,1,0.44267190000391565,-70.0
18,cyh,f,19,r,1,(172.20000000000002, 0.0),21,3,1,yes,x,5,x,1.0813466000254266,1,46,test2,1,1.0814600000157952,-42.0
18,cyh,f,19,r,1,(121.76378772032346, -121.76378772032352),28,-3,11,no,m,6,m,1.620169999980135,1,47,test2,1,1.6204098999733105,-42.0
18,cyh,f,19,r,1,(-121.76378772032348, 121.76378772032349),24,5,2,yes,x,5,x,1.493045599985635,1,48,test2,1,1.4933259999961592,-40.0
18,cyh,f,19,r,1,(-121.76378772032348, 121.76378772032349),24,25,4,yes,x,5,x,0.4802385999937542,1,49,test2,1,0.48036539999884553,-20.0
18,cyh,f,19,r,1,(-3.163262682197613e-14, -172.20000000000002),27,-3,11,no,m,6,m,1.2219474000157788,1,50,test2,1,1.2222485000093002,-20.0
18,cyh,f,19,r,1,(-3.163262682197613e-14, -172.20000000000002),27,-25,14,yes,x,5,x,0.45444380000117235,1,51,test2,1,0.454602599987993,-70.0
18,cyh,f,19,r,1,(-121.76378772032352, -121.76378772032348),26,25,4,no,m,6,m,1.7434253999963403,1,52,test2,1,1.7437268999929074,-70.0
18,cyh,f,19,r,1,(121.76378772032346, -121.76378772032352),28,25,4,no,m,6,m,1.1627942000050098,1,53,test2,1,1.1630722999980208,-70.0
18,cyh,f,19,r,1,(-121.76378772032352, -121.76378772032348),26,-5,12,yes,x,5,x,0.9024364000069909,1,54,test2,1,0.9026738999818917,-50.0
18,cyh,f,19,r,1,(-121.76378772032348, 121.76378772032349),24,-5,12,yes,x,5,x,0.8117540999955963,1,55,test2,1,0.811965999979293,-50.0
18,cyh,f,19,r,1,(-121.76378772032348, 121.76378772032349),24,-7,13,no,m,6,None,None,0,56,test2,1,1.9800894999934826,-50.0
18,cyh,f,19,r,1,(1.0544208940658713e-14, 172.20000000000002),23,-3,11,yes,x,5,x,1.0578372000018135,1,57,test2,1,1.0579392000217922,-48.0
18,cyh,f,19,r,1,(172.20000000000002, 0.0),21,-5,12,yes,x,5,x,0.7313570000114851,1,58,test2,1,0.7316357999807224,-50.0
18,cyh,f,19,r,1,(121.76378772032346, -121.76378772032352),28,7,3,yes,x,5,x,0.9535130999865942,1,59,test2,1,0.953647100017406,-38.0
18,cyh,f,19,r,1,(121.76378772032346, -121.76378772032352),28,3,1,no,m,6,m,0.930588599992916,1,60,test2,1,0.9308087000099476,-38.0
18,cyh,f,19,r,1,(172.20000000000002, 0.0),21,-3,11,yes,x,5,x,0.8133484999998473,1,61,test2,1,0.8135302999871783,-48.0
18,cyh,f,19,r,1,(-121.76378772032348, 121.76378772032349),24,7,3,yes,x,5,x,0.6240067999751773,1,62,test2,1,0.6246260000043549,-38.0
18,cyh,f,19,r,1,(121.76378772032349, 121.76378772032349),22,5,2,no,m,6,m,1.4704009999986738,1,63,test2,1,1.470501300005708,-38.0
18,cyh,f,19,r,1,(121.76378772032349, 121.76378772032349),22,7,3,no,m,6,m,1.3096930999890901,1,64,test2,1,1.3100442999857478,-38.0
18,cyh,f,19,r,1,(-3.163262682197613e-14, -172.20000000000002),27,3,1,yes,x,5,m,1.0254494000109844,0,65,test2,1,1.0255793000105768,-42.0
18,cyh,f,19,r,1,(-172.20000000000002, 2.1088417881317425e-14),25,-7,13,yes,x,5,x,0.756100200000219,1,66,test2,1,0.7563073000055738,-52.0
18,cyh,f,19,r,1,(121.76378772032346, -121.76378772032352),28,-25,14,yes,x,5,x,0.6282660000142641,1,67,test2,1,0.6283622999908403,-70.0
18,cyh,f,19,r,1,(-121.76378772032352, -121.76378772032348),26,25,4,yes,x,5,x,0.4915091000148095,1,68,test2,1,0.49162439999054186,-20.0
18,cyh,f,19,r,1,(121.76378772032346, -121.76378772032352),28,-25,14,yes,x,5,x,0.49266889999853447,1,69,test2,1,0.4930711999768391,-70.0
18,cyh,f,19,r,1,(-172.20000000000002, 2.1088417881317425e-14),25,25,4,no,m,6,m,1.4705143000173848,1,70,test2,1,1.4712090000102762,-70.0
18,cyh,f,19,r,1,(-121.76378772032348, 121.76378772032349),24,-25,14,yes,x,5,x,0.45604369998909533,1,71,test2,1,0.4565854000102263,-70.0
18,cyh,f,19,r,1,(-3.163262682197613e-14, -172.20000000000002),27,-5,12,yes,x,5,x,0.6637120000086725,1,72,test2,1,0.6643585000128951,-50.0
18,cyh,f,19,r,1,(-172.20000000000002, 2.1088417881317425e-14),25,3,1,yes,x,5,m,1.4098577999975532,0,73,test2,1,1.4105226999963634,-42.0
18,cyh,f,19,r,1,(-121.76378772032352, -121.76378772032348),26,7,3,yes,x,5,x,0.5768161000160035,1,74,test2,1,0.5769305999856442,-38.0
18,cyh,f,19,r,1,(121.76378772032346, -121.76378772032352),28,25,4,yes,x,5,x,0.563262699986808,1,75,test2,1,0.5633927999879234,-20.0
18,cyh,f,19,r,1,(121.76378772032346, -121.76378772032352),28,5,2,yes,x,5,x,1.0445269999909215,1,76,test2,1,1.0447598000173457,-40.0
18,cyh,f,19,r,1,(-121.76378772032352, -121.76378772032348),26,-3,11,yes,x,5,None,None,0,77,test2,1,1.9800896999950055,-48.0
18,cyh,f,19,r,1,(172.20000000000002, 0.0),21,-5,12,yes,x,5,x,1.6533882000076119,1,78,test2,1,1.6535608999838587,-50.0
18,cyh,f,19,r,1,(121.76378772032346, -121.76378772032352),28,-7,13,no,m,6,x,1.2795167999865953,0,79,test2,1,1.279815600020811,-50.0
18,cyh,f,19,r,1,(-3.163262682197613e-14, -172.20000000000002),27,5,2,yes,x,5,x,0.7365434000093956,1,80,test2,1,0.7369791000091936,-40.0
18,cyh,f,19,r,1,(-121.76378772032352, -121.76378772032348),26,3,1,yes,x,5,x,0.9063006999786012,1,81,test2,1,0.9065638000029139,-42.0
18,cyh,f,19,r,1,(-121.76378772032348, 121.76378772032349),24,-25,14,yes,x,5,x,0.7041086999815889,1,82,test2,1,0.7042105000000447,-70.0
18,cyh,f,19,r,1,(1.0544208940658713e-14, 172.20000000000002),23,-25,14,yes,x,5,x,0.4760479000105988,1,83,test2,1,0.47641780000412837,-70.0
18,cyh,f,19,r,1,(-121.76378772032352, -121.76378772032348),26,-25,14,yes,x,5,x,0.4503770000010263,1,84,test2,1,0.4507930999970995,-70.0
18,cyh,f,19,r,1,(172.20000000000002, 0.0),21,-25,14,yes,x,5,x,0.49053270000149496,1,85,test2,1,0.4908223999955226,-70.0
18,cyh,f,19,r,1,(-121.76378772032352, -121.76378772032348),26,3,1,no,m,6,x,1.3080034000158776,0,86,test2,1,1.3083056000177749,-70.0
18,cyh,f,19,r,1,(-3.163262682197613e-14, -172.20000000000002),27,-7,13,yes,x,5,x,0.49008109999704175,1,87,test2,1,0.4902068999945186,-52.0
18,cyh,f,19,r,1,(-121.76378772032348, 121.76378772032349),24,3,1,yes,x,5,m,1.0171504999743775,0,88,test2,1,1.0173875999753363,-42.0
18,cyh,f,19,r,1,(-3.163262682197613e-14, -172.20000000000002),27,-3,11,yes,x,5,m,0.6741420999751426,0,89,test2,1,0.674390999978641,-48.0
18,cyh,f,19,r,1,(121.76378772032346, -121.76378772032352),28,7,3,yes,x,5,x,0.6332947999762837,1,90,test2,1,0.6335276000027079,-38.0
18,cyh,f,19,r,1,(-3.163262682197613e-14, -172.20000000000002),27,-25,14,no,m,6,m,1.1029753999901004,1,91,test2,1,1.1034531999903265,-38.0
18,cyh,f,19,r,1,(-121.76378772032348, 121.76378772032349),24,-5,12,yes,x,5,x,1.2565886999946088,1,92,test2,1,1.2566872999886982,-50.0
18,cyh,f,19,r,1,(172.20000000000002, 0.0),21,-3,11,no,m,6,m,1.0942380000196863,1,93,test2,1,1.0944070999976248,-50.0
18,cyh,f,19,r,1,(121.76378772032346, -121.76378772032352),28,7,3,no,m,6,m,0.8706855000054929,1,94,test2,1,0.870917099993676,-50.0
18,cyh,f,19,r,1,(121.76378772032349, 121.76378772032349),22,-5,12,yes,x,5,x,1.0942308999947272,1,95,test2,1,1.0946087000193074,-50.0
18,cyh,f,19,r,1,(-121.76378772032348, 121.76378772032349),24,-3,11,yes,x,5,m,1.104067899985239,0,96,test2,1,1.104194199986523,-48.0
18,cyh,f,19,r,1,(121.76378772032346, -121.76378772032352),28,-5,12,no,m,6,m,1.458771900011925,1,1,test1,2,1.4588939000095706,-48.0
18,cyh,f,19,r,1,(121.76378772032346, -121.76378772032352),28,-7,13,yes,x,5,x,0.6400769999891054,1,2,test1,2,0.6402051000040956,-52.0
18,cyh,f,19,r,1,(121.76378772032346, -121.76378772032352),28,-3,11,yes,x,5,x,0.9338681999943219,1,3,test1,2,0.9339972999878228,-48.0
18,cyh,f,19,r,1,(121.76378772032349, 121.76378772032349),22,3,1,no,m,6,m,1.7159870000032242,1,4,test1,2,1.7161182999843732,-48.0
18,cyh,f,19,r,1,(-3.163262682197613e-14, -172.20000000000002),27,5,2,no,m,6,m,0.687547400011681,1,5,test1,2,0.6878534999850672,-48.0
18,cyh,f,19,r,1,(-172.20000000000002, 2.1088417881317425e-14),25,-7,13,yes,x,5,x,0.8873964000085834,1,6,test1,2,0.8880051999876741,-52.0
18,cyh,f,19,r,1,(121.76378772032349, 121.76378772032349),22,-25,14,yes,x,5,x,0.5682940999977291,1,7,test1,2,0.5684276999963913,-70.0
18,cyh,f,19,r,1,(-121.76378772032352, -121.76378772032348),26,5,2,yes,x,5,x,1.100160899979528,1,8,test1,2,1.10028169999714,-40.0
18,cyh,f,19,r,1,(-121.76378772032352, -121.76378772032348),26,3,1,yes,x,5,x,0.8366527000034694,1,9,test1,2,0.8367813999939244,-42.0
18,cyh,f,19,r,1,(121.76378772032349, 121.76378772032349),22,3,1,yes,x,5,m,0.9178008000017144,0,10,test1,2,0.9179163000080734,-42.0
18,cyh,f,19,r,1,(1.0544208940658713e-14, 172.20000000000002),23,3,1,yes,x,5,m,1.6143338000110816,0,11,test1,2,1.6145538999990094,-42.0
18,cyh,f,19,r,1,(1.0544208940658713e-14, 172.20000000000002),23,-25,14,no,m,6,None,None,0,12,test1,2,1.9800944000016898,-42.0
18,cyh,f,19,r,1,(172.20000000000002, 0.0),21,-3,11,yes,x,5,x,0.9686586000025272,1,13,test1,2,0.9689444999967236,-48.0
18,cyh,f,19,r,1,(-121.76378772032352, -121.76378772032348),26,7,3,no,m,6,m,1.139595200016629,1,14,test1,2,1.1397465000045486,-48.0
18,cyh,f,19,r,1,(-121.76378772032348, 121.76378772032349),24,3,1,no,m,6,m,0.7839716000016779,1,15,test1,2,0.7843837000255007,-48.0
18,cyh,f,19,r,1,(121.76378772032349, 121.76378772032349),22,-5,12,yes,x,5,x,0.7494251999887638,1,16,test1,2,0.7495905000250787,-50.0
18,cyh,f,19,r,1,(1.0544208940658713e-14, 172.20000000000002),23,25,4,no,m,6,m,1.196658100001514,1,17,test1,2,1.196899200003827,-50.0
18,cyh,f,19,r,1,(-121.76378772032348, 121.76378772032349),24,-7,13,yes,x,5,x,0.6925159000093117,1,18,test1,2,0.6926802999805659,-52.0
18,cyh,f,19,r,1,(121.76378772032346, -121.76378772032352),28,5,2,yes,x,5,x,1.2631484000012279,1,19,test1,2,1.2633482000092044,-40.0
18,cyh,f,19,r,1,(172.20000000000002, 0.0),21,-25,14,yes,x,5,x,0.5133017999760341,1,20,test1,2,0.5136457000044174,-70.0
18,cyh,f,19,r,1,(-121.76378772032352, -121.76378772032348),26,25,4,yes,x,5,x,0.5695429999905173,1,21,test1,2,0.5698351000028197,-20.0
18,cyh,f,19,r,1,(121.76378772032346, -121.76378772032352),28,-7,13,yes,x,5,x,0.9358314000128303,1,22,test1,2,0.9359363999974448,-52.0
18,cyh,f,19,r,1,(-3.163262682197613e-14, -172.20000000000002),27,7,3,yes,x,5,x,0.5118222000019159,1,23,test1,2,0.5121413999877404,-38.0
18,cyh,f,19,r,1,(121.76378772032346, -121.76378772032352),28,5,2,no,m,6,m,1.2183463999826927,1,24,test1,2,1.21904219998396,-38.0
18,cyh,f,19,r,1,(121.76378772032349, 121.76378772032349),22,-3,11,yes,x,5,x,1.1302410999778658,1,25,test1,2,1.1305936000135262,-48.0
18,cyh,f,19,r,1,(172.20000000000002, 0.0),21,-7,13,yes,x,5,x,0.5355867999896873,1,26,test1,2,0.5358183000062127,-52.0
18,cyh,f,19,r,1,(1.0544208940658713e-14, 172.20000000000002),23,3,1,no,m,6,m,1.1751425999973435,1,27,test1,2,1.1752444000157993,-52.0
18,cyh,f,19,r,1,(-121.76378772032352, -121.76378772032348),26,-5,12,no,m,6,x,0.7251017999951728,0,28,test1,2,0.7253369000100065,-52.0
18,cyh,f,19,r,1,(121.76378772032349, 121.76378772032349),22,-7,13,yes,x,5,x,0.5953297999803908,1,29,test1,2,0.5955541000002995,-52.0
18,cyh,f,19,r,1,(-3.163262682197613e-14, -172.20000000000002),27,-25,14,yes,x,5,x,0.45870540000032634,1,30,test1,2,0.4591357000172138,-70.0
18,cyh,f,19,r,1,(-121.76378772032348, 121.76378772032349),24,5,2,no,m,6,m,1.0862311000237241,1,31,test1,2,1.0866712999995798,-70.0
18,cyh,f,19,r,1,(1.0544208940658713e-14, 172.20000000000002),23,-7,13,yes,x,5,x,0.6869911999965552,1,32,test1,2,0.6872127999959048,-52.0
18,cyh,f,19,r,1,(-3.163262682197613e-14, -172.20000000000002),27,3,1,yes,x,5,m,1.3238966000208165,0,33,test1,2,1.3241301999951247,-42.0
18,cyh,f,19,r,1,(121.76378772032349, 121.76378772032349),22,-7,13,yes,x,5,x,0.5564140999922529,1,34,test1,2,0.5566270000126678,-52.0
18,cyh,f,19,r,1,(121.76378772032349, 121.76378772032349),22,-3,11,no,m,6,m,1.1007578000135254,1,35,test1,2,1.1008584999945015,-52.0
18,cyh,f,19,r,1,(172.20000000000002, 0.0),21,7,3,yes,x,5,x,0.9284582000109367,1,36,test1,2,0.9286222000082489,-38.0
18,cyh,f,19,r,1,(-3.163262682197613e-14, -172.20000000000002),27,-7,13,no,m,6,m,0.9952815000142436,1,37,test1,2,0.9954904999758583,-38.0
18,cyh,f,19,r,1,(-172.20000000000002, 2.1088417881317425e-14),25,-3,11,yes,x,5,m,1.2639740000013262,0,38,test1,2,1.2642290999938268,-48.0
18,cyh,f,19,r,1,(-121.76378772032348, 121.76378772032349),24,-25,14,no,m,6,m,1.6085438999871258,1,39,test1,2,1.6087174999993294,-48.0
18,cyh,f,19,r,1,(-121.76378772032352, -121.76378772032348),26,-25,14,yes,x,5,x,0.5239531000261195,1,40,test1,2,0.5241017000225838,-70.0
18,cyh,f,19,r,1,(121.76378772032346, -121.76378772032352),28,3,1,yes,x,5,m,0.9775048000155948,0,41,test1,2,0.9776015999959782,-42.0
18,cyh,f,19,r,1,(1.0544208940658713e-14, 172.20000000000002),23,5,2,no,m,6,m,1.4732015999907162,1,42,test1,2,1.4733302000095136,-42.0
18,cyh,f,19,r,1,(1.0544208940658713e-14, 172.20000000000002),23,5,2,yes,x,5,x,0.772188599978108,1,43,test1,2,0.773279300017748,-40.0
18,cyh,f,19,r,1,(-3.163262682197613e-14, -172.20000000000002),27,-5,12,no,m,6,m,1.196971500001382,1,44,test1,2,1.1975900000252295,-40.0
18,cyh,f,19,r,1,(-172.20000000000002, 2.1088417881317425e-14),25,-3,11,yes,x,5,x,1.2101910000201315,1,45,test1,2,1.2108580000058282,-48.0
18,cyh,f,19,r,1,(-172.20000000000002, 2.1088417881317425e-14),25,3,1,no,m,6,m,1.159991499996977,1,46,test1,2,1.16028969999752,-48.0
18,cyh,f,19,r,1,(172.20000000000002, 0.0),21,7,3,no,m,6,m,1.6721025999868289,1,47,test1,2,1.6722403999883682,-48.0
18,cyh,f,19,r,1,(121.76378772032349, 121.76378772032349),22,7,3,yes,x,5,x,0.8362812999985181,1,48,test1,2,0.8364121000049636,-38.0
18,cyh,f,19,r,1,(172.20000000000002, 0.0),21,5,2,no,m,6,m,0.9459666000038851,1,49,test1,2,0.9466475000081118,-38.0
18,cyh,f,19,r,1,(172.20000000000002, 0.0),21,-7,13,no,m,6,m,1.2561993999988772,1,50,test1,2,1.2563210999942385,-38.0
18,cyh,f,19,r,1,(-172.20000000000002, 2.1088417881317425e-14),25,3,1,yes,x,5,x,1.123373900016304,1,51,test1,2,1.1234925000171643,-42.0
18,cyh,f,19,r,1,(-121.76378772032352, -121.76378772032348),26,-5,12,yes,x,5,x,0.847236100002192,1,52,test1,2,0.8474597999884281,-50.0
18,cyh,f,19,r,1,(-172.20000000000002, 2.1088417881317425e-14),25,5,2,yes,x,5,x,0.7990375999943353,1,53,test1,2,0.799141099996632,-40.0
18,cyh,f,19,r,1,(-172.20000000000002, 2.1088417881317425e-14),25,7,3,yes,x,5,x,0.604756200016709,1,54,test1,2,0.6051118000177667,-38.0
18,cyh,f,19,r,1,(121.76378772032349, 121.76378772032349),22,3,1,yes,x,5,m,1.0935188000148628,0,55,test1,2,1.094018000003416,-42.0
18,cyh,f,19,r,1,(-121.76378772032352, -121.76378772032348),26,5,2,yes,x,5,x,0.6619648000050802,1,56,test1,2,0.662199700018391,-40.0
18,cyh,f,19,r,1,(-121.76378772032348, 121.76378772032349),24,5,2,yes,x,5,x,1.3454556000069715,1,57,test1,2,1.3456204000103753,-40.0
18,cyh,f,19,r,1,(1.0544208940658713e-14, 172.20000000000002),23,25,4,yes,x,5,x,0.4790138000098523,1,58,test1,2,0.47926969997934066,-20.0
18,cyh,f,19,r,1,(-121.76378772032352, -121.76378772032348),26,-3,11,no,m,6,m,1.2399326000013389,1,59,test1,2,1.2400720000150613,-20.0
18,cyh,f,19,r,1,(-172.20000000000002, 2.1088417881317425e-14),25,-25,14,no,m,6,m,1.3218699999852106,1,60,test1,2,1.3221238999976777,-20.0
18,cyh,f,19,r,1,(172.20000000000002, 0.0),21,3,1,no,m,6,m,1.8964110999950208,1,61,test1,2,1.896604399982607,-20.0
18,cyh,f,19,r,1,(172.20000000000002, 0.0),21,-25,14,no,m,6,m,1.6317408999893814,1,62,test1,2,1.6319034000043757,-20.0
18,cyh,f,19,r,1,(-121.76378772032348, 121.76378772032349),24,-5,12,no,m,6,m,1.8976983999891672,1,63,test1,2,1.8978249999927357,-20.0
18,cyh,f,19,r,1,(1.0544208940658713e-14, 172.20000000000002),23,-7,13,yes,x,5,x,0.9480068999982905,1,64,test1,2,0.9482367999735288,-52.0
18,cyh,f,19,r,1,(172.20000000000002, 0.0),21,3,1,yes,x,5,m,1.3534288000082597,0,65,test1,2,1.3538466999889351,-42.0
18,cyh,f,19,r,1,(1.0544208940658713e-14, 172.20000000000002),23,7,3,yes,x,5,x,0.7341477999871131,1,66,test1,2,0.7344535999873187,-38.0
18,cyh,f,19,r,1,(1.0544208940658713e-14, 172.20000000000002),23,3,1,yes,x,5,x,1.1154657999868505,1,67,test1,2,1.1159193000057712,-42.0
18,cyh,f,19,r,1,(172.20000000000002, 0.0),21,25,4,no,m,6,None,None,0,68,test1,2,1.9800845999852754,-42.0
18,cyh,f,19,r,1,(172.20000000000002, 0.0),21,7,3,yes,x,5,x,0.8235349000024144,1,69,test1,2,0.8237633000244386,-38.0
18,cyh,f,19,r,1,(121.76378772032346, -121.76378772032352),28,-3,11,yes,x,5,m,0.6902205999940634,0,70,test1,2,0.6904518000083044,-48.0
18,cyh,f,19,r,1,(-172.20000000000002, 2.1088417881317425e-14),25,-5,12,yes,x,5,x,0.9198131999874022,1,71,test1,2,0.9199731000117026,-50.0
18,cyh,f,19,r,1,(1.0544208940658713e-14, 172.20000000000002),23,-5,12,yes,x,5,x,0.6321545999962837,1,72,test1,2,0.632334499998251,-50.0
18,cyh,f,19,r,1,(-121.76378772032348, 121.76378772032349),24,-3,11,no,m,6,m,1.184084200009238,1,73,test1,2,1.1845349000068381,-50.0
18,cyh,f,19,r,1,(-121.76378772032348, 121.76378772032349),24,-7,13,yes,x,5,x,0.685722900001565,1,74,test1,2,0.6864132999908179,-52.0
18,cyh,f,19,r,1,(-121.76378772032352, -121.76378772032348),26,7,3,yes,x,5,x,0.7703747999912594,1,75,test1,2,0.7704765000089537,-38.0
18,cyh,f,19,r,1,(1.0544208940658713e-14, 172.20000000000002),23,7,3,no,m,6,m,1.2678458000009414,1,76,test1,2,1.268160399980843,-38.0
18,cyh,f,19,r,1,(-172.20000000000002, 2.1088417881317425e-14),25,5,2,no,m,6,m,1.0645917000074405,1,77,test1,2,1.0648269000230357,-38.0
18,cyh,f,19,r,1,(1.0544208940658713e-14, 172.20000000000002),23,-5,12,no,m,6,m,1.1732566000137012,1,78,test1,2,1.173585299984552,-38.0
18,cyh,f,19,r,1,(-3.163262682197613e-14, -172.20000000000002),27,25,4,yes,x,5,x,0.5702569000131916,1,79,test1,2,0.5704419999965467,-20.0
18,cyh,f,19,r,1,(121.76378772032349, 121.76378772032349),22,5,2,yes,x,5,x,0.9250945999810938,1,80,test1,2,0.9256177000061143,-40.0
18,cyh,f,19,r,1,(121.76378772032349, 121.76378772032349),22,-5,12,no,m,6,m,1.2362405000021681,1,81,test1,2,1.23646130002453,-40.0
18,cyh,f,19,r,1,(172.20000000000002, 0.0),21,-5,12,no,m,6,m,1.237060699990252,1,82,test1,2,1.237174200010486,-40.0
18,cyh,f,19,r,1,(-121.76378772032352, -121.76378772032348),26,-25,14,no,m,6,m,1.1052527999854647,1,83,test1,2,1.1053533000231255,-40.0
18,cyh,f,19,r,1,(-172.20000000000002, 2.1088417881317425e-14),25,-5,12,no,m,6,m,1.3006521000061184,1,84,test1,2,1.3009419000009075,-40.0
18,cyh,f,19,r,1,(-172.20000000000002, 2.1088417881317425e-14),25,25,4,yes,x,5,x,0.6541518000012729,1,85,test1,2,0.6542925999965519,-20.0
18,cyh,f,19,r,1,(-3.163262682197613e-14, -172.20000000000002),27,7,3,no,m,6,m,0.9401147000025958,1,86,test1,2,0.9404296999855433,-20.0
18,cyh,f,19,r,1,(1.0544208940658713e-14, 172.20000000000002),23,-7,13,no,m,6,m,0.6019010000163689,1,87,test1,2,0.6019997000112198,-20.0
18,cyh,f,19,r,1,(121.76378772032346, -121.76378772032352),28,3,1,yes,x,5,m,1.0736037000024226,0,88,test1,2,1.0737344000081066,-42.0
18,cyh,f,19,r,1,(172.20000000000002, 0.0),21,25,4,yes,x,5,x,0.55648930001189,1,89,test1,2,0.5567353999940678,-20.0
18,cyh,f,19,r,1,(-172.20000000000002, 2.1088417881317425e-14),25,-7,13,no,m,6,m,0.6804788000008557,1,90,test1,2,0.6808459000021685,-20.0
18,cyh,f,19,r,1,(-3.163262682197613e-14, -172.20000000000002),27,25,4,no,m,6,m,1.0945746999932453,1,91,test1,2,1.0946703999943566,-20.0
18,cyh,f,19,r,1,(-3.163262682197613e-14, -172.20000000000002),27,-7,13,yes,x,5,x,0.6396677000157069,1,92,test1,2,0.6400081999890972,-52.0
18,cyh,f,19,r,1,(121.76378772032349, 121.76378772032349),22,-25,14,no,m,6,m,1.310520400002133,1,93,test1,2,1.3111191999923903,-52.0
18,cyh,f,19,r,1,(-121.76378772032348, 121.76378772032349),24,25,4,no,m,6,m,1.1336334999941755,1,94,test1,2,1.134496799990302,-52.0
18,cyh,f,19,r,1,(1.0544208940658713e-14, 172.20000000000002),23,-25,14,yes,x,5,x,0.6118007999903057,1,95,test1,2,0.6119197999942116,-70.0
18,cyh,f,19,r,1,(121.76378772032349, 121.76378772032349),22,25,4,yes,x,5,x,0.4564830000163056,1,96,test1,2,0.4565846000041347,-20.0
18,cyh,f,19,r,1,(-121.76378772032352, -121.76378772032348),26,5,2,no,m,6,m,1.2680232000129763,1,1,test2,2,1.2682551999751013,-20.0
18,cyh,f,19,r,1,(-172.20000000000002, 2.1088417881317425e-14),25,-3,11,no,m,6,m,1.23130119999405,1,2,test2,2,1.2314151000173297,-20.0
18,cyh,f,19,r,1,(121.76378772032349, 121.76378772032349),22,7,3,yes,x,5,x,0.47433120000641793,1,3,test2,2,0.4746047999942675,-38.0
18,cyh,f,19,r,1,(-121.76378772032348, 121.76378772032349),24,3,1,yes,x,5,x,0.7647180999920238,1,4,test2,2,0.7648154000053182,-42.0
18,cyh,f,19,r,1,(1.0544208940658713e-14, 172.20000000000002),23,7,3,yes,x,5,x,0.5927016000205185,1,5,test2,2,0.5928694999893196,-38.0
18,cyh,f,19,r,1,(-172.20000000000002, 2.1088417881317425e-14),25,5,2,yes,x,5,x,1.0278328999993391,1,6,test2,2,1.0280588000023272,-40.0
18,cyh,f,19,r,1,(-121.76378772032348, 121.76378772032349),24,7,3,yes,x,5,x,0.5680192999716382,1,7,test2,2,0.5683491999807302,-38.0
18,cyh,f,19,r,1,(121.76378772032346, -121.76378772032352),28,25,4,yes,x,5,x,0.5095279999950435,1,8,test2,2,0.5100661999895237,-20.0
18,cyh,f,19,r,1,(-172.20000000000002, 2.1088417881317425e-14),25,-25,14,yes,x,5,x,0.4602649000007659,1,9,test2,2,0.4603785999934189,-70.0
18,cyh,f,19,r,1,(121.76378772032349, 121.76378772032349),22,25,4,no,m,6,m,0.6825383999967016,1,10,test2,2,0.6827302000019699,-70.0
18,cyh,f,19,r,1,(-121.76378772032348, 121.76378772032349),24,25,4,yes,x,5,x,0.4822954000264872,1,11,test2,2,0.48253290000138804,-20.0
18,cyh,f,19,r,1,(121.76378772032349, 121.76378772032349),22,-25,14,yes,x,5,x,0.4611852999951225,1,12,test2,2,0.46140440000453964,-70.0
18,cyh,f,19,r,1,(-121.76378772032352, -121.76378772032348),26,-7,13,yes,x,5,x,0.8242139000212774,1,13,test2,2,0.8245082000212278,-52.0
18,cyh,f,19,r,1,(-3.163262682197613e-14, -172.20000000000002),27,5,2,yes,x,5,x,1.0437530999770388,1,14,test2,2,1.0438774999929592,-40.0
18,cyh,f,19,r,1,(-3.163262682197613e-14, -172.20000000000002),27,-5,12,yes,x,5,x,0.800698699982604,1,15,test2,2,0.801020899991272,-50.0
18,cyh,f,19,r,1,(1.0544208940658713e-14, 172.20000000000002),23,-3,11,no,m,6,x,1.3806211999908555,0,16,test2,2,1.3808508999936748,-50.0
18,cyh,f,19,r,1,(-121.76378772032352, -121.76378772032348),26,-7,13,no,m,6,m,1.3561653999786358,1,17,test2,2,1.3563388000184204,-50.0
18,cyh,f,19,r,1,(172.20000000000002, 0.0),21,5,2,yes,x,5,x,0.9990765999828,1,18,test2,2,0.9994576000026427,-40.0
18,cyh,f,19,r,1,(121.76378772032346, -121.76378772032352),28,-5,12,yes,x,5,x,1.0468225000076927,1,19,test2,2,1.0472130000125617,-50.0
18,cyh,f,19,r,1,(-121.76378772032352, -121.76378772032348),26,-7,13,yes,x,5,x,1.0650168000138365,1,20,test2,2,1.0656297999958042,-52.0
18,cyh,f,19,r,1,(172.20000000000002, 0.0),21,-7,13,yes,x,5,x,1.962113399989903,1,21,test2,2,1.962779599998612,-52.0
18,cyh,f,19,r,1,(-172.20000000000002, 2.1088417881317425e-14),25,7,3,no,m,6,m,1.0743212999950629,1,22,test2,2,1.0744441999995615,-52.0
18,cyh,f,19,r,1,(-3.163262682197613e-14, -172.20000000000002),27,3,1,no,m,6,m,1.0562331000110134,1,23,test2,2,1.0564094000146724,-52.0
18,cyh,f,19,r,1,(1.0544208940658713e-14, 172.20000000000002),23,25,4,yes,x,5,x,0.45201139998971485,1,24,test2,2,0.45212510001147166,-20.0
18,cyh,f,19,r,1,(121.76378772032349, 121.76378772032349),22,5,2,yes,x,5,x,0.6240311000146903,1,25,test2,2,0.6243170000088867,-40.0
18,cyh,f,19,r,1,(-172.20000000000002, 2.1088417881317425e-14),25,25,4,yes,x,5,x,0.4616655000136234,1,26,test2,2,0.4618178000091575,-20.0
18,cyh,f,19,r,1,(121.76378772032349, 121.76378772032349),22,25,4,yes,x,5,x,0.44653030001791194,1,27,test2,2,0.446662300004391,-20.0
18,cyh,f,19,r,1,(121.76378772032346, -121.76378772032352),28,-25,14,no,m,6,m,1.0320976999937557,1,28,test2,2,1.0322240999958012,-20.0
18,cyh,f,19,r,1,(172.20000000000002, 0.0),21,25,4,yes,x,5,x,0.6452793999924324,1,29,test2,2,0.6455590999976266,-20.0
18,cyh,f,19,r,1,(-172.20000000000002, 2.1088417881317425e-14),25,7,3,yes,x,5,x,0.7617456000007223,1,30,test2,2,0.7618691000097897,-38.0
18,cyh,f,19,r,1,(121.76378772032349, 121.76378772032349),22,-7,13,no,m,6,m,0.9603647000039928,1,31,test2,2,0.9605174000025727,-38.0
18,cyh,f,19,r,1,(1.0544208940658713e-14, 172.20000000000002),23,5,2,yes,x,5,x,0.5938888000091538,1,32,test2,2,0.5946521000005305,-40.0
18,cyh,f,19,r,1,(1.0544208940658713e-14, 172.20000000000002),23,-3,11,yes,x,5,x,0.8611994999810122,1,33,test2,2,0.8614879999950062,-48.0
18,cyh,f,19,r,1,(-3.163262682197613e-14, -172.20000000000002),27,-3,11,yes,x,5,m,1.0678004000219516,0,34,test2,2,1.0680025000183377,-48.0
18,cyh,f,19,r,1,(1.0544208940658713e-14, 172.20000000000002),23,-5,12,yes,x,5,x,0.5611342000192963,1,35,test2,2,0.5618579000001773,-50.0
18,cyh,f,19,r,1,(-121.76378772032348, 121.76378772032349),24,-3,11,yes,x,5,x,0.7712501999922097,1,36,test2,2,0.771519600006286,-48.0
18,cyh,f,19,r,1,(-121.76378772032348, 121.76378772032349),24,7,3,no,m,6,m,1.270976999978302,1,37,test2,2,1.2717146999784745,-48.0
18,cyh,f,19,r,1,(-121.76378772032352, -121.76378772032348),26,-3,11,yes,x,5,x,0.9348087999969721,1,38,test2,2,0.9350216000166256,-48.0
18,cyh,f,19,r,1,(121.76378772032346, -121.76378772032352),28,-5,12,yes,x,5,x,1.1230223000166006,1,39,test2,2,1.1232560999924317,-50.0
18,cyh,f,19,r,1,(-172.20000000000002, 2.1088417881317425e-14),25,-5,12,yes,x,5,x,0.9487255999993067,1,40,test2,2,0.9491051000077277,-50.0
18,cyh,f,19,r,1,(172.20000000000002, 0.0),21,5,2,yes,x,5,x,1.3575569999811705,1,41,test2,2,1.3577264999912586,-40.0
18,cyh,f,19,r,1,(-3.163262682197613e-14, -172.20000000000002),27,7,3,yes,x,5,x,0.5195038999954704,1,42,test2,2,0.5197916000033729,-38.0
18,cyh,f,19,r,1,(-3.163262682197613e-14, -172.20000000000002),27,25,4,yes,x,5,x,0.43634390001534484,1,43,test2,2,0.4365539000136778,-20.0
18,cyh,f,19,r,1,(121.76378772032349, 121.76378772032349),22,-3,11,yes,x,5,x,0.9774416000000201,1,44,test2,2,0.978094099991722,-48.0
18,cyh,f,19,r,1,(-172.20000000000002, 2.1088417881317425e-14),25,-25,14,yes,x,5,x,0.44276879998506047,1,45,test2,2,0.44290100000216626,-70.0
18,cyh,f,19,r,1,(172.20000000000002, 0.0),21,3,1,yes,x,5,m,1.2014724000182468,0,46,test2,2,1.2017075000039767,-42.0
18,cyh,f,19,r,1,(121.76378772032346, -121.76378772032352),28,-3,11,no,m,6,m,1.0946834000060335,1,47,test2,2,1.0949123000027612,-42.0
18,cyh,f,19,r,1,(-121.76378772032348, 121.76378772032349),24,5,2,yes,x,5,m,1.1064196999941487,0,48,test2,2,1.1067483999941032,-40.0
18,cyh,f,19,r,1,(-121.76378772032348, 121.76378772032349),24,25,4,yes,x,5,x,0.4382259999983944,1,49,test2,2,0.4386178000131622,-20.0
18,cyh,f,19,r,1,(-3.163262682197613e-14, -172.20000000000002),27,-3,11,no,m,6,m,1.469841100013582,1,50,test2,2,1.4702814999909606,-20.0
18,cyh,f,19,r,1,(-3.163262682197613e-14, -172.20000000000002),27,-25,14,yes,x,5,x,0.4510769999760669,1,51,test2,2,0.4512961999862455,-70.0
18,cyh,f,19,r,1,(-121.76378772032352, -121.76378772032348),26,25,4,no,m,6,m,0.9714193000108935,1,52,test2,2,0.9716731999942567,-70.0
18,cyh,f,19,r,1,(121.76378772032346, -121.76378772032352),28,25,4,no,m,6,m,0.9457888999895658,1,53,test2,2,0.9458923999918625,-70.0
18,cyh,f,19,r,1,(-121.76378772032352, -121.76378772032348),26,-5,12,yes,x,5,x,1.0165839999972377,1,54,test2,2,1.0168507999915164,-50.0
18,cyh,f,19,r,1,(-121.76378772032348, 121.76378772032349),24,-5,12,yes,x,5,x,0.9517016999889165,1,55,test2,2,0.9518653999839444,-50.0
18,cyh,f,19,r,1,(-121.76378772032348, 121.76378772032349),24,-7,13,no,m,6,m,1.003370599995833,1,56,test2,2,1.003473299992038,-50.0
18,cyh,f,19,r,1,(1.0544208940658713e-14, 172.20000000000002),23,-3,11,yes,x,5,m,0.9472603999893181,0,57,test2,2,0.9474199999822304,-48.0
18,cyh,f,19,r,1,(172.20000000000002, 0.0),21,-5,12,yes,x,5,x,1.0730955000035465,1,58,test2,2,1.0735702000092715,-50.0
18,cyh,f,19,r,1,(121.76378772032346, -121.76378772032352),28,7,3,yes,x,5,x,0.7606801000074483,1,59,test2,2,0.7607786000007764,-38.0
18,cyh,f,19,r,1,(121.76378772032346, -121.76378772032352),28,3,1,no,m,6,m,1.1921983999782242,1,60,test2,2,1.192437699995935,-38.0
18,cyh,f,19,r,1,(172.20000000000002, 0.0),21,-3,11,yes,x,5,m,1.275930400006473,0,61,test2,2,1.2761648999876343,-48.0
18,cyh,f,19,r,1,(-121.76378772032348, 121.76378772032349),24,7,3,yes,x,5,x,0.4852320000063628,1,62,test2,2,0.4856164999946486,-38.0
18,cyh,f,19,r,1,(121.76378772032349, 121.76378772032349),22,5,2,no,m,6,m,1.049222900008317,1,63,test2,2,1.0496063999889884,-38.0
18,cyh,f,19,r,1,(121.76378772032349, 121.76378772032349),22,7,3,no,m,6,m,1.6663944000029005,1,64,test2,2,1.66704440000467,-38.0
18,cyh,f,19,r,1,(-3.163262682197613e-14, -172.20000000000002),27,3,1,yes,x,5,x,1.3658058000146411,1,65,test2,2,1.366039799991995,-42.0
18,cyh,f,19,r,1,(-172.20000000000002, 2.1088417881317425e-14),25,-7,13,yes,x,5,x,1.0896028999995906,1,66,test2,2,1.0902179999975488,-52.0
18,cyh,f,19,r,1,(121.76378772032346, -121.76378772032352),28,-25,14,yes,x,5,x,0.49233879998791963,1,67,test2,2,0.49256829998921603,-70.0
18,cyh,f,19,r,1,(-121.76378772032352, -121.76378772032348),26,25,4,yes,x,5,x,0.4026041000033729,1,68,test2,2,0.402734600007534,-20.0
18,cyh,f,19,r,1,(121.76378772032346, -121.76378772032352),28,-25,14,yes,x,5,x,0.44235480000497773,1,69,test2,2,0.44258209998952225,-70.0
18,cyh,f,19,r,1,(-172.20000000000002, 2.1088417881317425e-14),25,25,4,no,m,6,m,1.0313141999940854,1,70,test2,2,1.0314533000055235,-70.0
18,cyh,f,19,r,1,(-121.76378772032348, 121.76378772032349),24,-25,14,yes,x,5,x,0.5352561999752652,1,71,test2,2,0.5354843999957666,-70.0
18,cyh,f,19,r,1,(-3.163262682197613e-14, -172.20000000000002),27,-5,12,yes,x,5,x,1.0928138000017498,1,72,test2,2,1.0929419999883976,-50.0
18,cyh,f,19,r,1,(-172.20000000000002, 2.1088417881317425e-14),25,3,1,yes,x,5,x,1.951742400007788,1,73,test2,2,1.951844200026244,-42.0
18,cyh,f,19,r,1,(-121.76378772032352, -121.76378772032348),26,7,3,yes,x,5,x,0.6142060999991372,1,74,test2,2,0.6146750999905635,-38.0
18,cyh,f,19,r,1,(121.76378772032346, -121.76378772032352),28,25,4,yes,x,5,x,0.5970849999866914,1,75,test2,2,0.5974564000207465,-20.0
18,cyh,f,19,r,1,(121.76378772032346, -121.76378772032352),28,5,2,yes,x,5,x,0.9212456000095699,1,76,test2,2,0.9215936999826226,-40.0
18,cyh,f,19,r,1,(-121.76378772032352, -121.76378772032348),26,-3,11,yes,x,5,x,1.17306390000158,1,77,test2,2,1.1732229000190273,-48.0
18,cyh,f,19,r,1,(172.20000000000002, 0.0),21,-5,12,yes,x,5,x,0.5975587999855634,1,78,test2,2,0.5977688999846578,-50.0
18,cyh,f,19,r,1,(121.76378772032346, -121.76378772032352),28,-7,13,no,m,6,m,0.9076509000151418,1,79,test2,2,0.9078827999765053,-50.0
18,cyh,f,19,r,1,(-3.163262682197613e-14, -172.20000000000002),27,5,2,yes,x,5,x,0.5630826000124216,1,80,test2,2,0.5631799999973737,-40.0
18,cyh,f,19,r,1,(-121.76378772032352, -121.76378772032348),26,3,1,yes,x,5,x,1.2439006000058725,1,81,test2,2,1.244138699985342,-42.0
18,cyh,f,19,r,1,(-121.76378772032348, 121.76378772032349),24,-25,14,yes,x,5,x,0.5348136999818962,1,82,test2,2,0.5351665999914985,-70.0
18,cyh,f,19,r,1,(1.0544208940658713e-14, 172.20000000000002),23,-25,14,yes,x,5,x,0.582438599987654,1,83,test2,2,0.582663599983789,-70.0
18,cyh,f,19,r,1,(-121.76378772032352, -121.76378772032348),26,-25,14,yes,x,5,x,0.5681061000213958,1,84,test2,2,0.5685010999732185,-70.0
18,cyh,f,19,r,1,(172.20000000000002, 0.0),21,-25,14,yes,x,5,x,1.0895984999951907,1,85,test2,2,1.0905194000224583,-70.0
18,cyh,f,19,r,1,(-121.76378772032352, -121.76378772032348),26,3,1,no,m,6,m,0.7560076999943703,1,86,test2,2,0.7561035999970045,-70.0
18,cyh,f,19,r,1,(-3.163262682197613e-14, -172.20000000000002),27,-7,13,yes,x,5,x,0.48260809999192134,1,87,test2,2,0.48272909998195246,-52.0
18,cyh,f,19,r,1,(-121.76378772032348, 121.76378772032349),24,3,1,yes,x,5,x,1.1942551000101957,1,88,test2,2,1.1945470000209752,-42.0
18,cyh,f,19,r,1,(-3.163262682197613e-14, -172.20000000000002),27,-3,11,yes,x,5,m,1.668630200001644,0,89,test2,2,1.6689091000007465,-48.0
18,cyh,f,19,r,1,(121.76378772032346, -121.76378772032352),28,7,3,yes,x,5,x,1.0022026000078768,1,90,test2,2,1.00236899999436,-38.0
18,cyh,f,19,r,1,(-3.163262682197613e-14, -172.20000000000002),27,-25,14,no,m,6,m,1.3224936999904457,1,91,test2,2,1.322655299998587,-38.0
18,cyh,f,19,r,1,(-121.76378772032348, 121.76378772032349),24,-5,12,yes,x,5,x,0.892503500013845,1,92,test2,2,0.8927961000008509,-50.0
18,cyh,f,19,r,1,(172.20000000000002, 0.0),21,-3,11,no,m,6,m,0.8412364000105299,1,93,test2,2,0.8414489999995567,-50.0
18,cyh,f,19,r,1,(121.76378772032346, -121.76378772032352),28,7,3,no,m,6,m,1.299637200019788,1,94,test2,2,1.2999356999935117,-50.0
18,cyh,f,19,r,1,(121.76378772032349, 121.76378772032349),22,-5,12,yes,x,5,x,1.0586122999957297,1,95,test2,2,1.0588556000147946,-50.0
18,cyh,f,19,r,1,(-121.76378772032348, 121.76378772032349),24,-3,11,yes,x,5,m,1.0951498000067659,0,96,test2,2,1.0952517999976408,-48.0
18,cyh,f,19,r,1,(121.76378772032346, -121.76378772032352),28,-5,12,no,m,6,x,1.485073799995007,0,1,test1,3,1.4852207000076305,-48.0
18,cyh,f,19,r,1,(121.76378772032346, -121.76378772032352),28,-7,13,yes,x,5,x,0.6721864999854006,1,2,test1,3,0.6722869999939576,-52.0
18,cyh,f,19,r,1,(121.76378772032346, -121.76378772032352),28,-3,11,yes,x,5,x,1.043084800010547,1,3,test1,3,1.0435021999874152,-48.0
18,cyh,f,19,r,1,(121.76378772032349, 121.76378772032349),22,3,1,no,m,6,x,1.5089365000021644,0,4,test1,3,1.5093191000050865,-48.0
18,cyh,f,19,r,1,(-3.163262682197613e-14, -172.20000000000002),27,5,2,no,m,6,m,1.8567840000032447,1,5,test1,3,1.8571179999853484,-48.0
18,cyh,f,19,r,1,(-172.20000000000002, 2.1088417881317425e-14),25,-7,13,yes,x,5,x,0.9081712999904994,1,6,test1,3,0.9084007999917958,-52.0
18,cyh,f,19,r,1,(121.76378772032349, 121.76378772032349),22,-25,14,yes,x,5,x,0.5308597999974154,1,7,test1,3,0.5309832000057213,-70.0
18,cyh,f,19,r,1,(-121.76378772032352, -121.76378772032348),26,5,2,yes,x,5,x,0.9276866000145674,1,8,test1,3,0.9279134999960661,-40.0
18,cyh,f,19,r,1,(-121.76378772032352, -121.76378772032348),26,3,1,yes,x,5,x,1.4531096999999136,1,9,test1,3,1.4532119999930728,-42.0
18,cyh,f,19,r,1,(121.76378772032349, 121.76378772032349),22,3,1,yes,x,5,m,1.4183022000070196,0,10,test1,3,1.4184154999966267,-42.0
18,cyh,f,19,r,1,(1.0544208940658713e-14, 172.20000000000002),23,3,1,yes,x,5,x,1.2931549999921117,1,11,test1,3,1.2932940000027884,-42.0
18,cyh,f,19,r,1,(1.0544208940658713e-14, 172.20000000000002),23,-25,14,no,m,6,m,1.1666981000162195,1,12,test1,3,1.1670774999947753,-42.0
18,cyh,f,19,r,1,(172.20000000000002, 0.0),21,-3,11,yes,x,5,x,1.327704099996481,1,13,test1,3,1.3278402000141796,-48.0
18,cyh,f,19,r,1,(-121.76378772032352, -121.76378772032348),26,7,3,no,m,6,m,1.9284169000166003,1,14,test1,3,1.9285272999841254,-48.0
18,cyh,f,19,r,1,(-121.76378772032348, 121.76378772032349),24,3,1,no,m,6,m,1.3756897000130266,1,15,test1,3,1.375853500008816,-48.0
18,cyh,f,19,r,1,(121.76378772032349, 121.76378772032349),22,-5,12,yes,x,5,x,0.5912735000019893,1,16,test1,3,0.5914538000070024,-50.0
18,cyh,f,19,r,1,(1.0544208940658713e-14, 172.20000000000002),23,25,4,no,m,6,m,1.3821213000046555,1,17,test1,3,1.3823622000054456,-50.0
18,cyh,f,19,r,1,(-121.76378772032348, 121.76378772032349),24,-7,13,yes,x,5,x,1.0967965000018012,1,18,test1,3,1.0969902999931946,-52.0
18,cyh,f,19,r,1,(121.76378772032346, -121.76378772032352),28,5,2,yes,x,5,x,0.9350540000014007,1,19,test1,3,0.9352207999909297,-40.0
18,cyh,f,19,r,1,(172.20000000000002, 0.0),21,-25,14,yes,x,5,x,0.47705929999938235,1,20,test1,3,0.47716020001098514,-70.0
18,cyh,f,19,r,1,(-121.76378772032352, -121.76378772032348),26,25,4,yes,x,5,x,0.5924701000039931,1,21,test1,3,0.5928054000250995,-20.0
18,cyh,f,19,r,1,(121.76378772032346, -121.76378772032352),28,-7,13,yes,x,5,x,0.9881091999995988,1,22,test1,3,0.9882091000035871,-52.0
18,cyh,f,19,r,1,(-3.163262682197613e-14, -172.20000000000002),27,7,3,yes,x,5,x,0.5324507000041194,1,23,test1,3,0.5326596000231802,-38.0
18,cyh,f,19,r,1,(121.76378772032346, -121.76378772032352),28,5,2,no,m,6,m,1.13750689997687,1,24,test1,3,1.138133900007233,-38.0
18,cyh,f,19,r,1,(121.76378772032349, 121.76378772032349),22,-3,11,yes,x,5,m,1.1662545000144746,0,25,test1,3,1.1663982000027318,-48.0
18,cyh,f,19,r,1,(172.20000000000002, 0.0),21,-7,13,yes,x,5,x,0.7185074000153691,1,26,test1,3,0.7188179999939166,-52.0
18,cyh,f,19,r,1,(1.0544208940658713e-14, 172.20000000000002),23,3,1,no,m,6,m,1.4694676000217441,1,27,test1,3,1.4696199000172783,-52.0
18,cyh,f,19,r,1,(-121.76378772032352, -121.76378772032348),26,-5,12,no,m,6,m,1.3760443000064697,1,28,test1,3,1.3763752999948338,-52.0
18,cyh,f,19,r,1,(121.76378772032349, 121.76378772032349),22,-7,13,yes,x,5,x,0.8302772000024561,1,29,test1,3,0.8303764000011142,-52.0
18,cyh,f,19,r,1,(-3.163262682197613e-14, -172.20000000000002),27,-25,14,yes,x,5,x,0.6936157000018284,1,30,test1,3,0.6937730000063311,-70.0
18,cyh,f,19,r,1,(-121.76378772032348, 121.76378772032349),24,5,2,no,m,6,m,0.9842304000048898,1,31,test1,3,0.984349900012603,-70.0
18,cyh,f,19,r,1,(1.0544208940658713e-14, 172.20000000000002),23,-7,13,yes,x,5,x,0.9847129000118002,1,32,test1,3,0.9851631999772508,-52.0
18,cyh,f,19,r,1,(-3.163262682197613e-14, -172.20000000000002),27,3,1,yes,x,5,m,1.3743593000108376,0,33,test1,3,1.374500000005355,-42.0
18,cyh,f,19,r,1,(121.76378772032349, 121.76378772032349),22,-7,13,yes,x,5,x,0.6417582000140101,1,34,test1,3,0.6419161999947391,-52.0
18,cyh,f,19,r,1,(121.76378772032349, 121.76378772032349),22,-3,11,no,m,6,m,1.6123575000092387,1,35,test1,3,1.6124775999924168,-52.0
18,cyh,f,19,r,1,(172.20000000000002, 0.0),21,7,3,yes,x,5,x,0.7090762000007089,1,36,test1,3,0.7093478000024334,-38.0
18,cyh,f,19,r,1,(-3.163262682197613e-14, -172.20000000000002),27,-7,13,no,m,6,m,1.317241999990074,1,37,test1,3,1.3175381000037305,-38.0
18,cyh,f,19,r,1,(-172.20000000000002, 2.1088417881317425e-14),25,-3,11,yes,x,5,m,1.0737096999946516,0,38,test1,3,1.0738107999786735,-48.0
18,cyh,f,19,r,1,(-121.76378772032348, 121.76378772032349),24,-25,14,no,m,6,m,1.754603200010024,1,39,test1,3,1.7547371000109706,-48.0
18,cyh,f,19,r,1,(-121.76378772032352, -121.76378772032348),26,-25,14,yes,x,5,x,0.6007103000010829,1,40,test1,3,0.6013729000114836,-70.0
18,cyh,f,19,r,1,(121.76378772032346, -121.76378772032352),28,3,1,yes,x,5,m,1.6610745000070892,0,41,test1,3,1.6616858000052162,-42.0
18,cyh,f,19,r,1,(1.0544208940658713e-14, 172.20000000000002),23,5,2,no,m,6,m,1.1422317000105977,1,42,test1,3,1.142449699982535,-42.0
18,cyh,f,19,r,1,(1.0544208940658713e-14, 172.20000000000002),23,5,2,yes,x,5,x,0.6178409999993164,1,43,test1,3,0.6179558000003453,-40.0
18,cyh,f,19,r,1,(-3.163262682197613e-14, -172.20000000000002),27,-5,12,no,m,6,m,1.1645450000069104,1,44,test1,3,1.164646699995501,-40.0
18,cyh,f,19,r,1,(-172.20000000000002, 2.1088417881317425e-14),25,-3,11,yes,x,5,m,1.2886283999832813,0,45,test1,3,1.288776700006565,-48.0
18,cyh,f,19,r,1,(-172.20000000000002, 2.1088417881317425e-14),25,3,1,no,m,6,m,1.309489700011909,1,46,test1,3,1.3096989000041503,-48.0
18,cyh,f,19,r,1,(172.20000000000002, 0.0),21,7,3,no,m,6,m,0.9362183000193909,1,47,test1,3,0.93631550000282,-48.0
18,cyh,f,19,r,1,(121.76378772032349, 121.76378772032349),22,7,3,yes,x,5,x,0.6630236999772023,1,48,test1,3,0.6635137000121176,-38.0
18,cyh,f,19,r,1,(172.20000000000002, 0.0),21,5,2,no,m,6,m,1.3084001000097487,1,49,test1,3,1.308712199999718,-38.0
18,cyh,f,19,r,1,(172.20000000000002, 0.0),21,-7,13,no,m,6,m,1.2556756999983918,1,50,test1,3,1.255769399984274,-38.0
18,cyh,f,19,r,1,(-172.20000000000002, 2.1088417881317425e-14),25,3,1,yes,x,5,x,1.3504012000048533,1,51,test1,3,1.3505322999844793,-42.0
18,cyh,f,19,r,1,(-121.76378772032352, -121.76378772032348),26,-5,12,yes,x,5,x,0.9126766000117641,1,52,test1,3,0.9129467000020668,-50.0
18,cyh,f,19,r,1,(-172.20000000000002, 2.1088417881317425e-14),25,5,2,yes,x,5,x,1.2604783000133466,1,53,test1,3,1.2605801000026986,-40.0
18,cyh,f,19,r,1,(-172.20000000000002, 2.1088417881317425e-14),25,7,3,yes,x,5,x,0.5347011999983806,1,54,test1,3,0.5348318000033032,-38.0
18,cyh,f,19,r,1,(121.76378772032349, 121.76378772032349),22,3,1,yes,x,5,x,1.1449848000193015,1,55,test1,3,1.1450988000142388,-42.0
18,cyh,f,19,r,1,(-121.76378772032352, -121.76378772032348),26,5,2,yes,x,5,x,0.5812191000150051,1,56,test1,3,0.581442299997434,-40.0
18,cyh,f,19,r,1,(-121.76378772032348, 121.76378772032349),24,5,2,yes,x,5,x,1.0037294999929145,1,57,test1,3,1.0040175000031013,-40.0
18,cyh,f,19,r,1,(1.0544208940658713e-14, 172.20000000000002),23,25,4,yes,x,5,x,0.722644900000887,1,58,test1,3,0.7229386999970302,-20.0
18,cyh,f,19,r,1,(-121.76378772032352, -121.76378772032348),26,-3,11,no,m,6,m,1.7945768000208773,1,59,test1,3,1.794721300015226,-20.0
18,cyh,f,19,r,1,(-172.20000000000002, 2.1088417881317425e-14),25,-25,14,no,m,6,m,1.3778071000124328,1,60,test1,3,1.3780215000151657,-20.0
18,cyh,f,19,r,1,(172.20000000000002, 0.0),21,3,1,no,m,6,m,1.2414927000063471,1,61,test1,3,1.241591400001198,-20.0
18,cyh,f,19,r,1,(172.20000000000002, 0.0),21,-25,14,no,m,6,m,1.0017371000139974,1,62,test1,3,1.0019869999960065,-20.0
18,cyh,f,19,r,1,(-121.76378772032348, 121.76378772032349),24,-5,12,no,m,6,m,1.3987310000229627,1,63,test1,3,1.3989998000033665,-20.0
18,cyh,f,19,r,1,(1.0544208940658713e-14, 172.20000000000002),23,-7,13,yes,x,5,x,0.6657623999926727,1,64,test1,3,0.6659916999924462,-52.0
18,cyh,f,19,r,1,(172.20000000000002, 0.0),21,3,1,yes,x,5,m,1.2160594000015408,0,65,test1,3,1.2163939999882132,-42.0
18,cyh,f,19,r,1,(1.0544208940658713e-14, 172.20000000000002),23,7,3,yes,x,5,x,0.7086333000042941,1,66,test1,3,0.7088017999776639,-38.0
18,cyh,f,19,r,1,(1.0544208940658713e-14, 172.20000000000002),23,3,1,yes,x,5,x,1.0534439999901224,1,67,test1,3,1.0535574000095949,-42.0
18,cyh,f,19,r,1,(172.20000000000002, 0.0),21,25,4,no,m,6,m,1.4983461999800056,1,68,test1,3,1.4984464999870397,-42.0
18,cyh,f,19,r,1,(172.20000000000002, 0.0),21,7,3,yes,x,5,x,0.6544466000050306,1,69,test1,3,0.6545463999791536,-38.0
18,cyh,f,19,r,1,(121.76378772032346, -121.76378772032352),28,-3,11,yes,x,5,x,1.4982191000017338,1,70,test1,3,1.4983166999882087,-48.0
18,cyh,f,19,r,1,(-172.20000000000002, 2.1088417881317425e-14),25,-5,12,yes,x,5,x,1.5824646000110079,1,71,test1,3,1.582769600005122,-50.0
18,cyh,f,19,r,1,(1.0544208940658713e-14, 172.20000000000002),23,-5,12,yes,x,5,x,1.0288653000025079,1,72,test1,3,1.0294847000041045,-50.0
18,cyh,f,19,r,1,(-121.76378772032348, 121.76378772032349),24,-3,11,no,m,6,m,1.5219033999892417,1,73,test1,3,1.5220050000061747,-50.0
18,cyh,f,19,r,1,(-121.76378772032348, 121.76378772032349),24,-7,13,yes,x,5,x,0.8863633000000846,1,74,test1,3,0.886464800016256,-52.0
18,cyh,f,19,r,1,(-121.76378772032352, -121.76378772032348),26,7,3,yes,x,5,x,0.6654008999757934,1,75,test1,3,0.6658170000009704,-38.0
18,cyh,f,19,r,1,(1.0544208940658713e-14, 172.20000000000002),23,7,3,no,m,6,m,1.4395040999806952,1,76,test1,3,1.4396340000093915,-38.0
18,cyh,f,19,r,1,(-172.20000000000002, 2.1088417881317425e-14),25,5,2,no,m,6,m,1.6236011000000872,1,77,test1,3,1.6237874000216834,-38.0
18,cyh,f,19,r,1,(1.0544208940658713e-14, 172.20000000000002),23,-5,12,no,m,6,x,1.5204646000056528,0,78,test1,3,1.5205852999933995,-38.0
18,cyh,f,19,r,1,(-3.163262682197613e-14, -172.20000000000002),27,25,4,yes,x,5,x,0.61727940000128,1,79,test1,3,0.6173931999946944,-20.0
18,cyh,f,19,r,1,(121.76378772032349, 121.76378772032349),22,5,2,yes,x,5,x,0.7892073999973945,1,80,test1,3,0.7894381000078283,-40.0
18,cyh,f,19,r,1,(121.76378772032349, 121.76378772032349),22,-5,12,no,m,6,m,1.541166900016833,1,81,test1,3,1.5413356999924872,-40.0
18,cyh,f,19,r,1,(172.20000000000002, 0.0),21,-5,12,no,m,6,m,1.6465421000029892,1,82,test1,3,1.6466676999989431,-40.0
18,cyh,f,19,r,1,(-121.76378772032352, -121.76378772032348),26,-25,14,no,m,6,m,1.3921068999916315,1,83,test1,3,1.392237699998077,-40.0
18,cyh,f,19,r,1,(-172.20000000000002, 2.1088417881317425e-14),25,-5,12,no,m,6,m,0.9110725999926217,1,84,test1,3,0.9113795000012033,-40.0
18,cyh,f,19,r,1,(-172.20000000000002, 2.1088417881317425e-14),25,25,4,yes,x,5,x,0.5384335999842733,1,85,test1,3,0.5385313000006136,-20.0
18,cyh,f,19,r,1,(-3.163262682197613e-14, -172.20000000000002),27,7,3,no,m,6,m,0.5922381000127643,1,86,test1,3,0.5923607000149786,-20.0
18,cyh,f,19,r,1,(1.0544208940658713e-14, 172.20000000000002),23,-7,13,no,m,6,m,0.5746964999998454,1,87,test1,3,0.5748297999962233,-20.0
18,cyh,f,19,r,1,(121.76378772032346, -121.76378772032352),28,3,1,yes,x,5,x,1.0993638999934774,1,88,test1,3,1.0997850999992806,-42.0
18,cyh,f,19,r,1,(172.20000000000002, 0.0),21,25,4,yes,x,5,x,0.5108216000080574,1,89,test1,3,0.5110400000121444,-20.0
18,cyh,f,19,r,1,(-172.20000000000002, 2.1088417881317425e-14),25,-7,13,no,m,6,m,0.6108244999777526,1,90,test1,3,0.610921400017105,-20.0
18,cyh,f,19,r,1,(-3.163262682197613e-14, -172.20000000000002),27,25,4,no,m,6,m,0.7121612999762874,1,91,test1,3,0.7122884999844246,-20.0
18,cyh,f,19,r,1,(-3.163262682197613e-14, -172.20000000000002),27,-7,13,yes,x,5,x,0.6322039999940898,1,92,test1,3,0.6323245999810752,-52.0
18,cyh,f,19,r,1,(121.76378772032349, 121.76378772032349),22,-25,14,no,m,6,m,1.006438899989007,1,93,test1,3,1.0066463999974076,-52.0
18,cyh,f,19,r,1,(-121.76378772032348, 121.76378772032349),24,25,4,no,m,6,m,0.8008785999845713,1,94,test1,3,0.8011861999984831,-52.0
18,cyh,f,19,r,1,(1.0544208940658713e-14, 172.20000000000002),23,-25,14,yes,x,5,x,0.4984519999998156,1,95,test1,3,0.4987785999837797,-70.0
18,cyh,f,19,r,1,(121.76378772032349, 121.76378772032349),22,25,4,yes,x,5,x,0.46776739999768324,1,96,test1,3,0.46808719998807646,-20.0
18,cyh,f,19,r,1,(-121.76378772032352, -121.76378772032348),26,5,2,no,m,6,m,0.9942325000010896,1,1,test2,3,0.9943923000246286,-20.0
18,cyh,f,19,r,1,(-172.20000000000002, 2.1088417881317425e-14),25,-3,11,no,m,6,m,0.633731700014323,1,2,test2,3,0.6341580000007525,-20.0
18,cyh,f,19,r,1,(121.76378772032349, 121.76378772032349),22,7,3,yes,x,5,x,0.5073199000034947,1,3,test2,3,0.5074672999908216,-38.0
18,cyh,f,19,r,1,(-121.76378772032348, 121.76378772032349),24,3,1,yes,x,5,m,0.7279103000182658,0,4,test2,3,0.7280478999891784,-42.0
18,cyh,f,19,r,1,(1.0544208940658713e-14, 172.20000000000002),23,7,3,yes,x,5,x,0.5292444000078831,1,5,test2,3,0.5293448999873362,-38.0
18,cyh,f,19,r,1,(-172.20000000000002, 2.1088417881317425e-14),25,5,2,yes,x,5,x,1.003712200006703,1,6,test2,3,1.0040412000089418,-40.0
18,cyh,f,19,r,1,(-121.76378772032348, 121.76378772032349),24,7,3,yes,x,5,x,0.541666900011478,1,7,test2,3,0.541880000004312,-38.0
18,cyh,f,19,r,1,(121.76378772032346, -121.76378772032352),28,25,4,yes,x,5,x,0.47827330001746304,1,8,test2,3,0.4784303999913391,-20.0
18,cyh,f,19,r,1,(-172.20000000000002, 2.1088417881317425e-14),25,-25,14,yes,x,5,x,0.4698967000003904,1,9,test2,3,0.46999569999752566,-70.0
18,cyh,f,19,r,1,(121.76378772032349, 121.76378772032349),22,25,4,no,m,6,m,0.8881015999941155,1,10,test2,3,0.8882419999863487,-70.0
18,cyh,f,19,r,1,(-121.76378772032348, 121.76378772032349),24,25,4,yes,x,5,x,0.4179543000063859,1,11,test2,3,0.41816639999160543,-20.0
18,cyh,f,19,r,1,(121.76378772032349, 121.76378772032349),22,-25,14,yes,x,5,x,0.5784981999895535,1,12,test2,3,0.5786592999938875,-70.0
18,cyh,f,19,r,1,(-121.76378772032352, -121.76378772032348),26,-7,13,yes,x,5,x,0.6463949999888428,1,13,test2,3,0.6465625000128057,-52.0
18,cyh,f,19,r,1,(-3.163262682197613e-14, -172.20000000000002),27,5,2,yes,x,5,x,0.5614663999876939,1,14,test2,3,0.5620076000050176,-40.0
18,cyh,f,19,r,1,(-3.163262682197613e-14, -172.20000000000002),27,-5,12,yes,x,5,x,0.9037684999930207,1,15,test2,3,0.9038814000086859,-50.0
18,cyh,f,19,r,1,(1.0544208940658713e-14, 172.20000000000002),23,-3,11,no,m,6,m,1.116236600006232,1,16,test2,3,1.1165273000078741,-50.0
18,cyh,f,19,r,1,(-121.76378772032352, -121.76378772032348),26,-7,13,no,m,6,m,0.9611503999913111,1,17,test2,3,0.9614015999832191,-50.0
18,cyh,f,19,r,1,(172.20000000000002, 0.0),21,5,2,yes,x,5,x,0.6501854000089224,1,18,test2,3,0.6506048000010196,-40.0
18,cyh,f,19,r,1,(121.76378772032346, -121.76378772032352),28,-5,12,yes,x,5,x,1.3745921999798156,1,19,test2,3,1.3747128999966662,-50.0
18,cyh,f,19,r,1,(-121.76378772032352, -121.76378772032348),26,-7,13,yes,x,5,x,0.689656600006856,1,20,test2,3,0.6897596000053454,-52.0
18,cyh,f,19,r,1,(172.20000000000002, 0.0),21,-7,13,yes,x,5,x,0.6152471000095829,1,21,test2,3,0.6156558000075165,-52.0
18,cyh,f,19,r,1,(-172.20000000000002, 2.1088417881317425e-14),25,7,3,no,m,6,m,0.8915685999963898,1,22,test2,3,0.8922266000008676,-52.0
18,cyh,f,19,r,1,(-3.163262682197613e-14, -172.20000000000002),27,3,1,no,m,6,m,0.6019923000130802,1,23,test2,3,0.6023876000253949,-52.0
18,cyh,f,19,r,1,(1.0544208940658713e-14, 172.20000000000002),23,25,4,yes,x,5,x,0.4583815000078175,1,24,test2,3,0.45848229998955503,-20.0
18,cyh,f,19,r,1,(121.76378772032349, 121.76378772032349),22,5,2,yes,x,5,x,0.6289383000112139,1,25,test2,3,0.6291746000060812,-40.0
18,cyh,f,19,r,1,(-172.20000000000002, 2.1088417881317425e-14),25,25,4,yes,x,5,x,0.4097645999863744,1,26,test2,3,0.4100914000009652,-20.0
18,cyh,f,19,r,1,(121.76378772032349, 121.76378772032349),22,25,4,yes,x,5,x,0.4590666999865789,1,27,test2,3,0.4596445000206586,-20.0
18,cyh,f,19,r,1,(121.76378772032346, -121.76378772032352),28,-25,14,no,m,6,m,0.8098391000239644,1,28,test2,3,0.8102408999984618,-20.0
18,cyh,f,19,r,1,(172.20000000000002, 0.0),21,25,4,yes,x,5,x,0.516370299999835,1,29,test2,3,0.5167131999915,-20.0
18,cyh,f,19,r,1,(-172.20000000000002, 2.1088417881317425e-14),25,7,3,yes,x,5,x,0.5151735000254121,1,30,test2,3,0.5152791000145953,-38.0
18,cyh,f,19,r,1,(121.76378772032349, 121.76378772032349),22,-7,13,no,m,6,m,0.7382810999988578,1,31,test2,3,0.7385647000046447,-38.0
18,cyh,f,19,r,1,(1.0544208940658713e-14, 172.20000000000002),23,5,2,yes,x,5,x,0.8036483000032604,1,32,test2,3,0.8037527999840677,-40.0
18,cyh,f,19,r,1,(1.0544208940658713e-14, 172.20000000000002),23,-3,11,yes,x,5,m,0.8070001000014599,0,33,test2,3,0.8071056999906432,-48.0
18,cyh,f,19,r,1,(-3.163262682197613e-14, -172.20000000000002),27,-3,11,yes,x,5,m,0.8626451999880373,0,34,test2,3,0.8627837999956682,-48.0
18,cyh,f,19,r,1,(1.0544208940658713e-14, 172.20000000000002),23,-5,12,yes,x,5,m,0.6304057999805082,0,35,test2,3,0.6306696999818087,-50.0
18,cyh,f,19,r,1,(-121.76378772032348, 121.76378772032349),24,-3,11,yes,x,5,x,1.0819877999892924,1,36,test2,3,1.0820903000130784,-48.0
18,cyh,f,19,r,1,(-121.76378772032348, 121.76378772032349),24,7,3,no,m,6,x,1.9083009000169113,0,37,test2,3,1.908510799985379,-48.0
18,cyh,f,19,r,1,(-121.76378772032352, -121.76378772032348),26,-3,11,yes,x,5,m,1.6549250000098255,0,38,test2,3,1.6550285999837797,-48.0
18,cyh,f,19,r,1,(121.76378772032346, -121.76378772032352),28,-5,12,yes,x,5,x,0.9790957999939565,1,39,test2,3,0.9793341000040527,-50.0
18,cyh,f,19,r,1,(-172.20000000000002, 2.1088417881317425e-14),25,-5,12,yes,x,5,x,0.5950197000056505,1,40,test2,3,0.5951193999790121,-50.0
18,cyh,f,19,r,1,(172.20000000000002, 0.0),21,5,2,yes,x,5,x,0.6114793999877293,1,41,test2,3,0.6115780999825802,-40.0
18,cyh,f,19,r,1,(-3.163262682197613e-14, -172.20000000000002),27,7,3,yes,x,5,x,0.4901950999919791,1,42,test2,3,0.4902918000007048,-38.0
18,cyh,f,19,r,1,(-3.163262682197613e-14, -172.20000000000002),27,25,4,yes,x,5,x,0.42594490002375096,1,43,test2,3,0.42607080002198927,-20.0
18,cyh,f,19,r,1,(121.76378772032349, 121.76378772032349),22,-3,11,yes,x,5,x,0.7971566000196617,1,44,test2,3,0.7974488000036217,-48.0
18,cyh,f,19,r,1,(-172.20000000000002, 2.1088417881317425e-14),25,-25,14,yes,x,5,x,0.42581739998422563,1,45,test2,3,0.42613919998984784,-70.0
18,cyh,f,19,r,1,(172.20000000000002, 0.0),21,3,1,yes,x,5,x,0.912749499984784,1,46,test2,3,0.9128825000079814,-42.0
18,cyh,f,19,r,1,(121.76378772032346, -121.76378772032352),28,-3,11,no,m,6,m,1.1581146999960765,1,47,test2,3,1.1583738999906927,-42.0
18,cyh,f,19,r,1,(-121.76378772032348, 121.76378772032349),24,5,2,yes,x,5,x,0.4983522999973502,1,48,test2,3,0.4985670000023674,-40.0
18,cyh,f,19,r,1,(-121.76378772032348, 121.76378772032349),24,25,4,yes,x,5,x,0.4470693000184838,1,49,test2,3,0.4471710000070743,-20.0
18,cyh,f,19,r,1,(-3.163262682197613e-14, -172.20000000000002),27,-3,11,no,m,6,m,1.1509136999957263,1,50,test2,3,1.1510446000029333,-20.0
18,cyh,f,19,r,1,(-3.163262682197613e-14, -172.20000000000002),27,-25,14,yes,x,5,x,0.44723220000742003,1,51,test2,3,0.44751779999933206,-70.0
18,cyh,f,19,r,1,(-121.76378772032352, -121.76378772032348),26,25,4,no,m,6,m,0.8385236999893095,1,52,test2,3,0.8393008999992162,-70.0
18,cyh,f,19,r,1,(121.76378772032346, -121.76378772032352),28,25,4,no,m,6,m,0.9120584999909624,1,53,test2,3,0.912550699984422,-70.0
18,cyh,f,19,r,1,(-121.76378772032352, -121.76378772032348),26,-5,12,yes,x,5,x,0.619703699980164,1,54,test2,3,0.6198096000007354,-50.0
18,cyh,f,19,r,1,(-121.76378772032348, 121.76378772032349),24,-5,12,yes,x,5,x,0.5859858000185341,1,55,test2,3,0.5860878999810666,-50.0
18,cyh,f,19,r,1,(-121.76378772032348, 121.76378772032349),24,-7,13,no,m,6,m,0.780780799977947,1,56,test2,3,0.7810020999750122,-50.0
18,cyh,f,19,r,1,(1.0544208940658713e-14, 172.20000000000002),23,-3,11,yes,x,5,m,1.086861800024053,0,57,test2,3,1.087093799986178,-48.0
18,cyh,f,19,r,1,(172.20000000000002, 0.0),21,-5,12,yes,x,5,x,0.7163151999993715,1,58,test2,3,0.7165598999999929,-50.0
18,cyh,f,19,r,1,(121.76378772032346, -121.76378772032352),28,7,3,yes,x,5,x,0.8496050999965519,1,59,test2,3,0.8497728000220377,-38.0
18,cyh,f,19,r,1,(121.76378772032346, -121.76378772032352),28,3,1,no,m,6,m,1.1784816999861505,1,60,test2,3,1.178709899977548,-38.0
18,cyh,f,19,r,1,(172.20000000000002, 0.0),21,-3,11,yes,x,5,x,0.8064838999998756,1,61,test2,3,0.8067367000039667,-48.0
18,cyh,f,19,r,1,(-121.76378772032348, 121.76378772032349),24,7,3,yes,x,5,x,0.5102153000188991,1,62,test2,3,0.5103146999899764,-38.0
18,cyh,f,19,r,1,(121.76378772032349, 121.76378772032349),22,5,2,no,m,6,m,0.72056829999201,1,63,test2,3,0.7206760999979451,-38.0
18,cyh,f,19,r,1,(121.76378772032349, 121.76378772032349),22,7,3,no,m,6,x,1.0903821000247262,0,64,test2,3,1.0904790999775287,-38.0
18,cyh,f,19,r,1,(-3.163262682197613e-14, -172.20000000000002),27,3,1,yes,x,5,x,0.9837862999993376,1,65,test2,3,0.9838890999963041,-42.0
18,cyh,f,19,r,1,(-172.20000000000002, 2.1088417881317425e-14),25,-7,13,yes,x,5,x,0.46751670000958256,1,66,test2,3,0.46775340000749566,-52.0
18,cyh,f,19,r,1,(121.76378772032346, -121.76378772032352),28,-25,14,yes,x,5,x,0.493967899994459,1,67,test2,3,0.49428239997359924,-70.0
18,cyh,f,19,r,1,(-121.76378772032352, -121.76378772032348),26,25,4,yes,x,5,x,0.40335820001200773,1,68,test2,3,0.4035673000034876,-20.0
18,cyh,f,19,r,1,(121.76378772032346, -121.76378772032352),28,-25,14,yes,x,5,x,0.405898500001058,1,69,test2,3,0.40611169999465346,-70.0
18,cyh,f,19,r,1,(-172.20000000000002, 2.1088417881317425e-14),25,25,4,no,m,6,m,0.7691577000077814,1,70,test2,3,0.7693648999847937,-70.0
18,cyh,f,19,r,1,(-121.76378772032348, 121.76378772032349),24,-25,14,yes,x,5,x,0.4071172999974806,1,71,test2,3,0.40735080000013113,-70.0
18,cyh,f,19,r,1,(-3.163262682197613e-14, -172.20000000000002),27,-5,12,yes,x,5,x,0.49216309998882934,1,72,test2,3,0.49229329999070615,-50.0
18,cyh,f,19,r,1,(-172.20000000000002, 2.1088417881317425e-14),25,3,1,yes,x,5,x,0.7924622000136878,1,73,test2,3,0.7925658999884035,-42.0
18,cyh,f,19,r,1,(-121.76378772032352, -121.76378772032348),26,7,3,yes,x,5,x,0.4069655000057537,1,74,test2,3,0.4071068000048399,-38.0
18,cyh,f,19,r,1,(121.76378772032346, -121.76378772032352),28,25,4,yes,x,5,x,0.5459815000067465,1,75,test2,3,0.5462505000177771,-20.0
18,cyh,f,19,r,1,(121.76378772032346, -121.76378772032352),28,5,2,yes,x,5,m,0.8788287999923341,0,76,test2,3,0.8790479000017513,-40.0
18,cyh,f,19,r,1,(-121.76378772032352, -121.76378772032348),26,-3,11,yes,x,5,x,0.8472508999984711,1,77,test2,3,0.8473544000007678,-48.0
18,cyh,f,19,r,1,(172.20000000000002, 0.0),21,-5,12,yes,x,5,x,1.1161627000255976,1,78,test2,3,1.116276700020535,-50.0
18,cyh,f,19,r,1,(121.76378772032346, -121.76378772032352),28,-7,13,no,m,6,m,0.8140174000000115,1,79,test2,3,0.814177699998254,-50.0
18,cyh,f,19,r,1,(-3.163262682197613e-14, -172.20000000000002),27,5,2,yes,x,5,x,0.6511698999966029,1,80,test2,3,0.6512655999977142,-40.0
18,cyh,f,19,r,1,(-121.76378772032352, -121.76378772032348),26,3,1,yes,x,5,x,0.8469212000200059,1,81,test2,3,0.8470230999810155,-42.0
18,cyh,f,19,r,1,(-121.76378772032348, 121.76378772032349),24,-25,14,yes,x,5,x,0.5321947999764234,1,82,test2,3,0.5323929000005592,-70.0
18,cyh,f,19,r,1,(1.0544208940658713e-14, 172.20000000000002),23,-25,14,yes,x,5,x,0.5181783999723848,1,83,test2,3,0.5184139999910258,-70.0
18,cyh,f,19,r,1,(-121.76378772032352, -121.76378772032348),26,-25,14,yes,x,5,x,0.5394080000114627,1,84,test2,3,0.5400169999920763,-70.0
18,cyh,f,19,r,1,(172.20000000000002, 0.0),21,-25,14,yes,x,5,x,0.5539368000172544,1,85,test2,3,0.5540326000191271,-70.0
18,cyh,f,19,r,1,(-121.76378772032352, -121.76378772032348),26,3,1,no,m,6,m,1.0004091000009794,1,86,test2,3,1.0005365000106394,-70.0
18,cyh,f,19,r,1,(-3.163262682197613e-14, -172.20000000000002),27,-7,13,yes,x,5,x,0.5336409000155982,1,87,test2,3,0.533883700001752,-52.0
18,cyh,f,19,r,1,(-121.76378772032348, 121.76378772032349),24,3,1,yes,x,5,m,1.1087083000165876,0,88,test2,3,1.108875000005355,-42.0
18,cyh,f,19,r,1,(-3.163262682197613e-14, -172.20000000000002),27,-3,11,yes,x,5,x,1.0867773999925703,1,89,test2,3,1.0871487999975216,-48.0
18,cyh,f,19,r,1,(121.76378772032346, -121.76378772032352),28,7,3,yes,x,5,x,0.8637643000110984,1,90,test2,3,0.86389949999284,-38.0
18,cyh,f,19,r,1,(-3.163262682197613e-14, -172.20000000000002),27,-25,14,no,m,6,m,0.7781694000004791,1,91,test2,3,0.7782716999936383,-38.0
18,cyh,f,19,r,1,(-121.76378772032348, 121.76378772032349),24,-5,12,yes,x,5,x,0.4978599000023678,1,92,test2,3,0.49801889999071136,-50.0
18,cyh,f,19,r,1,(172.20000000000002, 0.0),21,-3,11,no,m,6,m,0.6765168000129052,1,93,test2,3,0.6766138999955729,-50.0
18,cyh,f,19,r,1,(121.76378772032346, -121.76378772032352),28,7,3,no,m,6,m,1.0463664999988396,1,94,test2,3,1.0468908000038937,-50.0
18,cyh,f,19,r,1,(121.76378772032349, 121.76378772032349),22,-5,12,yes,x,5,x,1.1392332999967039,1,95,test2,3,1.1393825999984983,-50.0
18,cyh,f,19,r,1,(-121.76378772032348, 121.76378772032349),24,-3,11,yes,x,5,x,0.9301542000030167,1,96,test2,3,0.9302573000022676,-48.0
18,cyh,f,19,r,1,(121.76378772032346, -121.76378772032352),28,-5,12,no,m,6,x,1.120940499997232,0,1,test1,4,1.1215596000256483,-48.0
18,cyh,f,19,r,1,(121.76378772032346, -121.76378772032352),28,-7,13,yes,x,5,x,0.7017001000058372,1,2,test1,4,0.7018346999830101,-52.0
18,cyh,f,19,r,1,(121.76378772032346, -121.76378772032352),28,-3,11,yes,x,5,x,1.9649569999892265,1,3,test1,4,1.9653418000089005,-48.0
18,cyh,f,19,r,1,(121.76378772032349, 121.76378772032349),22,3,1,no,m,6,m,1.5906066999887116,1,4,test1,4,1.59073769999668,-48.0
18,cyh,f,19,r,1,(-3.163262682197613e-14, -172.20000000000002),27,5,2,no,m,6,m,1.4578450999979395,1,5,test1,4,1.4583880999998655,-48.0
18,cyh,f,19,r,1,(-172.20000000000002, 2.1088417881317425e-14),25,-7,13,yes,x,5,x,1.2529384999943431,1,6,test1,4,1.253331000014441,-52.0
18,cyh,f,19,r,1,(121.76378772032349, 121.76378772032349),22,-25,14,yes,x,5,x,0.6321491000126116,1,7,test1,4,0.6322938000084832,-70.0
18,cyh,f,19,r,1,(-121.76378772032352, -121.76378772032348),26,5,2,yes,x,5,x,1.0722252000123262,1,8,test1,4,1.0726164000225253,-40.0
18,cyh,f,19,r,1,(-121.76378772032352, -121.76378772032348),26,3,1,yes,x,5,m,1.215598000009777,0,9,test1,4,1.215959599998314,-42.0
18,cyh,f,19,r,1,(121.76378772032349, 121.76378772032349),22,3,1,yes,x,5,x,1.0614439999917522,1,10,test1,4,1.0615398999943864,-42.0
18,cyh,f,19,r,1,(1.0544208940658713e-14, 172.20000000000002),23,3,1,yes,x,5,x,1.275350600015372,1,11,test1,4,1.275484299985692,-42.0
18,cyh,f,19,r,1,(1.0544208940658713e-14, 172.20000000000002),23,-25,14,no,m,6,m,1.0559151000052225,1,12,test1,4,1.0561520000046585,-42.0
18,cyh,f,19,r,1,(172.20000000000002, 0.0),21,-3,11,yes,x,5,x,1.3334847000078298,1,13,test1,4,1.333618300006492,-48.0
18,cyh,f,19,r,1,(-121.76378772032352, -121.76378772032348),26,7,3,no,m,6,m,1.3725769000011496,1,14,test1,4,1.3727757000015117,-48.0
18,cyh,f,19,r,1,(-121.76378772032348, 121.76378772032349),24,3,1,no,m,6,m,1.0384734999970533,1,15,test1,4,1.0387063000234775,-48.0
18,cyh,f,19,r,1,(121.76378772032349, 121.76378772032349),22,-5,12,yes,x,5,x,1.022761599975638,1,16,test1,4,1.022957499983022,-50.0
18,cyh,f,19,r,1,(1.0544208940658713e-14, 172.20000000000002),23,25,4,no,m,6,m,1.0355433000077028,1,17,test1,4,1.0357748999958858,-50.0
18,cyh,f,19,r,1,(-121.76378772032348, 121.76378772032349),24,-7,13,yes,x,5,x,0.7734381999762263,1,18,test1,4,0.7740287999913562,-52.0
18,cyh,f,19,r,1,(121.76378772032346, -121.76378772032352),28,5,2,yes,x,5,x,1.2324969000183046,1,19,test1,4,1.232611600018572,-40.0
18,cyh,f,19,r,1,(172.20000000000002, 0.0),21,-25,14,yes,x,5,x,1.0296191000088584,1,20,test1,4,1.0298541000229307,-70.0
18,cyh,f,19,r,1,(-121.76378772032352, -121.76378772032348),26,25,4,yes,x,5,x,0.5408621999958996,1,21,test1,4,0.5410952999955043,-20.0
18,cyh,f,19,r,1,(121.76378772032346, -121.76378772032352),28,-7,13,yes,x,5,x,0.8063640000182204,1,22,test1,4,0.8066126999910921,-52.0
18,cyh,f,19,r,1,(-3.163262682197613e-14, -172.20000000000002),27,7,3,yes,x,5,x,0.6241917999868747,1,23,test1,4,0.6244999000045937,-38.0
18,cyh,f,19,r,1,(121.76378772032346, -121.76378772032352),28,5,2,no,m,6,m,1.7307250000012573,1,24,test1,4,1.7308866000093985,-38.0
18,cyh,f,19,r,1,(121.76378772032349, 121.76378772032349),22,-3,11,yes,x,5,x,1.1754044000117574,1,25,test1,4,1.1756942000065465,-48.0
18,cyh,f,19,r,1,(172.20000000000002, 0.0),21,-7,13,yes,x,5,x,0.6504978000011761,1,26,test1,4,0.6506313999998383,-52.0
18,cyh,f,19,r,1,(1.0544208940658713e-14, 172.20000000000002),23,3,1,no,m,6,m,0.8824397999851499,1,27,test1,4,0.8825544999854174,-52.0
18,cyh,f,19,r,1,(-121.76378772032352, -121.76378772032348),26,-5,12,no,m,6,m,0.9557677000120748,1,28,test1,4,0.9560204000154044,-52.0
18,cyh,f,19,r,1,(121.76378772032349, 121.76378772032349),22,-7,13,yes,x,5,x,0.7805226999917068,1,29,test1,4,0.7809791000036057,-52.0
18,cyh,f,19,r,1,(-3.163262682197613e-14, -172.20000000000002),27,-25,14,yes,x,5,x,0.5538366999826394,1,30,test1,4,0.5541064999997616,-70.0
18,cyh,f,19,r,1,(-121.76378772032348, 121.76378772032349),24,5,2,no,m,6,m,0.8105819000047632,1,31,test1,4,0.8107180999941193,-70.0
18,cyh,f,19,r,1,(1.0544208940658713e-14, 172.20000000000002),23,-7,13,yes,x,5,x,0.8396212999941781,1,32,test1,4,0.8397197999875061,-52.0
18,cyh,f,19,r,1,(-3.163262682197613e-14, -172.20000000000002),27,3,1,yes,x,5,m,1.0741164999781176,0,33,test1,4,1.0742177000211086,-42.0
18,cyh,f,19,r,1,(121.76378772032349, 121.76378772032349),22,-7,13,yes,x,5,x,0.6982924999902025,1,34,test1,4,0.6989378000143915,-52.0
18,cyh,f,19,r,1,(121.76378772032349, 121.76378772032349),22,-3,11,no,m,6,m,1.3952170000120532,1,35,test1,4,1.395486900000833,-52.0
18,cyh,f,19,r,1,(172.20000000000002, 0.0),21,7,3,yes,x,5,x,0.7928696000017226,1,36,test1,4,0.7931642000039574,-38.0
18,cyh,f,19,r,1,(-3.163262682197613e-14, -172.20000000000002),27,-7,13,no,m,6,m,1.0162678000051528,1,37,test1,4,1.0164804000232834,-38.0
18,cyh,f,19,r,1,(-172.20000000000002, 2.1088417881317425e-14),25,-3,11,yes,x,5,x,1.3464767999830656,1,38,test1,4,1.3469791999959853,-48.0
18,cyh,f,19,r,1,(-121.76378772032348, 121.76378772032349),24,-25,14,no,m,6,m,0.8371639999968465,1,39,test1,4,0.8372620999871287,-48.0
18,cyh,f,19,r,1,(-121.76378772032352, -121.76378772032348),26,-25,14,yes,x,5,x,0.9589543000038248,1,40,test1,4,0.9592830000037793,-70.0
18,cyh,f,19,r,1,(121.76378772032346, -121.76378772032352),28,3,1,yes,x,5,m,1.249539000011282,0,41,test1,4,1.249913400009973,-42.0
18,cyh,f,19,r,1,(1.0544208940658713e-14, 172.20000000000002),23,5,2,no,m,6,m,1.1199841999914497,1,42,test1,4,1.1202168999880087,-42.0
18,cyh,f,19,r,1,(1.0544208940658713e-14, 172.20000000000002),23,5,2,yes,x,5,x,0.8484275000228081,1,43,test1,4,0.8487047999806236,-40.0
18,cyh,f,19,r,1,(-3.163262682197613e-14, -172.20000000000002),27,-5,12,no,m,6,m,1.2481472000072245,1,44,test1,4,1.248327600012999,-40.0
18,cyh,f,19,r,1,(-172.20000000000002, 2.1088417881317425e-14),25,-3,11,yes,x,5,x,1.458334900002228,1,45,test1,4,1.458686999976635,-48.0
18,cyh,f,19,r,1,(-172.20000000000002, 2.1088417881317425e-14),25,3,1,no,m,6,m,1.0023108999885153,1,46,test1,4,1.0026076000067405,-48.0
18,cyh,f,19,r,1,(172.20000000000002, 0.0),21,7,3,no,m,6,m,1.051718600007007,1,47,test1,4,1.052413700002944,-48.0
18,cyh,f,19,r,1,(121.76378772032349, 121.76378772032349),22,7,3,yes,x,5,x,1.2532888000132516,1,48,test1,4,1.2539569000073243,-38.0
18,cyh,f,19,r,1,(172.20000000000002, 0.0),21,5,2,no,m,6,m,1.0849755999806803,1,49,test1,4,1.0852019999874756,-38.0
18,cyh,f,19,r,1,(172.20000000000002, 0.0),21,-7,13,no,m,6,m,1.4516711000178475,1,50,test1,4,1.451915999990888,-38.0
18,cyh,f,19,r,1,(-172.20000000000002, 2.1088417881317425e-14),25,3,1,yes,x,5,x,1.247725299996091,1,51,test1,4,1.2482568999985233,-42.0
18,cyh,f,19,r,1,(-121.76378772032352, -121.76378772032348),26,-5,12,yes,x,5,x,0.9938689999980852,1,52,test1,4,0.9940516999922693,-50.0
18,cyh,f,19,r,1,(-172.20000000000002, 2.1088417881317425e-14),25,5,2,yes,x,5,x,0.9588026000128593,1,53,test1,4,0.9589061999868136,-40.0
18,cyh,f,19,r,1,(-172.20000000000002, 2.1088417881317425e-14),25,7,3,yes,x,5,x,0.6787659999972675,1,54,test1,4,0.6794325999799185,-38.0
18,cyh,f,19,r,1,(121.76378772032349, 121.76378772032349),22,3,1,yes,x,5,x,0.8563377999817021,1,55,test1,4,0.8565651999961119,-42.0
18,cyh,f,19,r,1,(-121.76378772032352, -121.76378772032348),26,5,2,yes,x,5,x,0.8873667999869213,1,56,test1,4,0.887636500003282,-40.0
18,cyh,f,19,r,1,(-121.76378772032348, 121.76378772032349),24,5,2,yes,x,5,x,1.0920022000209428,1,57,test1,4,1.0922331000037957,-40.0
18,cyh,f,19,r,1,(1.0544208940658713e-14, 172.20000000000002),23,25,4,yes,x,5,x,0.5776530999864917,1,58,test1,4,0.57798110001022,-20.0
18,cyh,f,19,r,1,(-121.76378772032352, -121.76378772032348),26,-3,11,no,m,6,m,1.1400244000251405,1,59,test1,4,1.1403532999975141,-20.0
18,cyh,f,19,r,1,(-172.20000000000002, 2.1088417881317425e-14),25,-25,14,no,m,6,m,1.0537597000075039,1,60,test1,4,1.053855600010138,-20.0
18,cyh,f,19,r,1,(172.20000000000002, 0.0),21,3,1,no,m,6,m,1.5354436000052374,1,61,test1,4,1.5356964000093285,-20.0
18,cyh,f,19,r,1,(172.20000000000002, 0.0),21,-25,14,no,m,6,m,0.9289312000037171,1,62,test1,4,0.929093799990369,-20.0
18,cyh,f,19,r,1,(-121.76378772032348, 121.76378772032349),24,-5,12,no,m,6,m,0.7718380000151228,1,63,test1,4,0.7722973999916576,-20.0
18,cyh,f,19,r,1,(1.0544208940658713e-14, 172.20000000000002),23,-7,13,yes,x,5,x,0.9150567000033334,1,64,test1,4,0.9156561999989208,-52.0
18,cyh,f,19,r,1,(172.20000000000002, 0.0),21,3,1,yes,x,5,m,0.8297725000011269,0,65,test1,4,0.8300116999889724,-42.0
18,cyh,f,19,r,1,(1.0544208940658713e-14, 172.20000000000002),23,7,3,yes,x,5,x,0.5877170000167098,1,66,test1,4,0.5878361999930348,-38.0
18,cyh,f,19,r,1,(1.0544208940658713e-14, 172.20000000000002),23,3,1,yes,x,5,m,1.3041724000067916,0,67,test1,4,1.3045028999913484,-42.0
18,cyh,f,19,r,1,(172.20000000000002, 0.0),21,25,4,no,m,6,m,1.0507319000025745,1,68,test1,4,1.0510787999955937,-42.0
18,cyh,f,19,r,1,(172.20000000000002, 0.0),21,7,3,yes,x,5,x,0.873910900001647,1,69,test1,4,0.8741609000135213,-38.0
18,cyh,f,19,r,1,(121.76378772032346, -121.76378772032352),28,-3,11,yes,x,5,x,1.062216799997259,1,70,test1,4,1.0624502999999095,-48.0
18,cyh,f,19,r,1,(-172.20000000000002, 2.1088417881317425e-14),25,-5,12,yes,x,5,x,0.8900857999979053,1,71,test1,4,0.890449800004717,-50.0
18,cyh,f,19,r,1,(1.0544208940658713e-14, 172.20000000000002),23,-5,12,yes,x,5,x,0.7733056000142824,1,72,test1,4,0.773443199985195,-50.0
18,cyh,f,19,r,1,(-121.76378772032348, 121.76378772032349),24,-3,11,no,m,6,m,1.2577227000147104,1,73,test1,4,1.257830999995349,-50.0
18,cyh,f,19,r,1,(-121.76378772032348, 121.76378772032349),24,-7,13,yes,x,5,x,0.6215547999890987,1,74,test1,4,0.6220463000063319,-52.0
18,cyh,f,19,r,1,(-121.76378772032352, -121.76378772032348),26,7,3,yes,x,5,x,0.6918394999811426,1,75,test1,4,0.6921896999992896,-38.0
18,cyh,f,19,r,1,(1.0544208940658713e-14, 172.20000000000002),23,7,3,no,m,6,m,1.0734947999881115,1,76,test1,4,1.0738133999984711,-38.0
18,cyh,f,19,r,1,(-172.20000000000002, 2.1088417881317425e-14),25,5,2,no,m,6,m,0.9136444000178017,1,77,test1,4,0.9141015000059269,-38.0
18,cyh,f,19,r,1,(1.0544208940658713e-14, 172.20000000000002),23,-5,12,no,m,6,m,1.663290299999062,1,78,test1,4,1.6637967000133358,-38.0
18,cyh,f,19,r,1,(-3.163262682197613e-14, -172.20000000000002),27,25,4,yes,x,5,x,0.5980298999929801,1,79,test1,4,0.5983421999844722,-20.0
18,cyh,f,19,r,1,(121.76378772032349, 121.76378772032349),22,5,2,yes,x,5,x,0.8157631999929436,1,80,test1,4,0.8160686999908648,-40.0
18,cyh,f,19,r,1,(121.76378772032349, 121.76378772032349),22,-5,12,no,m,6,m,0.9399249000125565,1,81,test1,4,0.9400255999935325,-40.0
18,cyh,f,19,r,1,(172.20000000000002, 0.0),21,-5,12,no,m,6,m,1.1718139000004157,1,82,test1,4,1.1722922000044491,-40.0
18,cyh,f,19,r,1,(-121.76378772032352, -121.76378772032348),26,-25,14,no,m,6,m,1.008075399993686,1,83,test1,4,1.0082297000044491,-40.0
18,cyh,f,19,r,1,(-172.20000000000002, 2.1088417881317425e-14),25,-5,12,no,m,6,m,1.5357628999918234,1,84,test1,4,1.5360339999897406,-40.0
18,cyh,f,19,r,1,(-172.20000000000002, 2.1088417881317425e-14),25,25,4,yes,x,5,x,0.5830750000022817,1,85,test1,4,0.5831725999887567,-20.0
18,cyh,f,19,r,1,(-3.163262682197613e-14, -172.20000000000002),27,7,3,no,m,6,m,0.63740289999987,1,86,test1,4,0.6375325999979395,-20.0
18,cyh,f,19,r,1,(1.0544208940658713e-14, 172.20000000000002),23,-7,13,no,m,6,m,0.6444618999958038,1,87,test1,4,0.6451426999992691,-20.0
18,cyh,f,19,r,1,(121.76378772032346, -121.76378772032352),28,3,1,yes,x,5,m,0.7920617999916431,0,88,test1,4,0.792319200001657,-42.0
18,cyh,f,19,r,1,(172.20000000000002, 0.0),21,25,4,yes,x,5,x,0.5094657000154257,1,89,test1,4,0.5095650000148453,-20.0
18,cyh,f,19,r,1,(-172.20000000000002, 2.1088417881317425e-14),25,-7,13,no,m,6,m,0.657597600016743,1,90,test1,4,0.657883399981074,-20.0
18,cyh,f,19,r,1,(-3.163262682197613e-14, -172.20000000000002),27,25,4,no,m,6,m,0.6935463000263553,1,91,test1,4,0.6940363000030629,-20.0
18,cyh,f,19,r,1,(-3.163262682197613e-14, -172.20000000000002),27,-7,13,yes,x,5,x,0.7948483999934979,1,92,test1,4,0.7949516999942716,-52.0
18,cyh,f,19,r,1,(121.76378772032349, 121.76378772032349),22,-25,14,no,m,6,m,0.6713577999908011,1,93,test1,4,0.6722120999766048,-52.0
18,cyh,f,19,r,1,(-121.76378772032348, 121.76378772032349),24,25,4,no,m,6,m,0.8046345000038855,1,94,test1,4,0.8049063999787904,-52.0
18,cyh,f,19,r,1,(1.0544208940658713e-14, 172.20000000000002),23,-25,14,yes,x,5,x,0.4985815000254661,1,95,test1,4,0.498770100006368,-70.0
18,cyh,f,19,r,1,(121.76378772032349, 121.76378772032349),22,25,4,yes,x,5,x,0.6853626999945845,1,96,test1,4,0.6855867000122089,-20.0
18,cyh,f,19,r,1,(-121.76378772032352, -121.76378772032348),26,5,2,no,m,6,m,1.0651442999951541,1,1,test2,4,1.0657694000110496,-20.0
18,cyh,f,19,r,1,(-172.20000000000002, 2.1088417881317425e-14),25,-3,11,no,m,6,m,0.7859704000002239,1,2,test2,4,0.7862065999943297,-20.0
18,cyh,f,19,r,1,(121.76378772032349, 121.76378772032349),22,7,3,yes,x,5,x,0.703912400000263,1,3,test2,4,0.7040625000081491,-38.0
18,cyh,f,19,r,1,(-121.76378772032348, 121.76378772032349),24,3,1,yes,x,5,m,0.8395780000137165,0,4,test2,4,0.8398056000005454,-42.0
18,cyh,f,19,r,1,(1.0544208940658713e-14, 172.20000000000002),23,7,3,yes,x,5,x,0.7271352999960072,1,5,test2,4,0.7277887999953236,-38.0
18,cyh,f,19,r,1,(-172.20000000000002, 2.1088417881317425e-14),25,5,2,yes,x,5,x,1.4064645000034943,1,6,test2,4,1.4065674000012223,-40.0
18,cyh,f,19,r,1,(-121.76378772032348, 121.76378772032349),24,7,3,yes,x,5,x,0.6202229999762494,1,7,test2,4,0.6206537999969441,-38.0
18,cyh,f,19,r,1,(121.76378772032346, -121.76378772032352),28,25,4,yes,x,5,x,0.6478123000124469,1,8,test2,4,0.6483421000011731,-20.0
18,cyh,f,19,r,1,(-172.20000000000002, 2.1088417881317425e-14),25,-25,14,yes,x,5,x,0.4817451999988407,1,9,test2,4,0.4818578999838792,-70.0
18,cyh,f,19,r,1,(121.76378772032349, 121.76378772032349),22,25,4,no,m,6,m,0.8575999999884516,1,10,test2,4,0.8577001999947242,-70.0
18,cyh,f,19,r,1,(-121.76378772032348, 121.76378772032349),24,25,4,yes,x,5,x,0.5237520999799017,1,11,test2,4,0.5239105999935418,-20.0
18,cyh,f,19,r,1,(121.76378772032349, 121.76378772032349),22,-25,14,yes,x,5,x,0.5341283000016119,1,12,test2,4,0.5342559000127949,-70.0
18,cyh,f,19,r,1,(-121.76378772032352, -121.76378772032348),26,-7,13,yes,x,5,x,0.8814514999976382,1,13,test2,4,0.8817271000007167,-52.0
18,cyh,f,19,r,1,(-3.163262682197613e-14, -172.20000000000002),27,5,2,yes,x,5,x,0.5434790000144858,1,14,test2,4,0.5436082000087481,-40.0
18,cyh,f,19,r,1,(-3.163262682197613e-14, -172.20000000000002),27,-5,12,yes,x,5,x,0.7122694999852683,1,15,test2,4,0.712586099980399,-50.0
18,cyh,f,19,r,1,(1.0544208940658713e-14, 172.20000000000002),23,-3,11,no,m,6,m,1.0320313999836799,1,16,test2,4,1.0324400000099558,-50.0
18,cyh,f,19,r,1,(-121.76378772032352, -121.76378772032348),26,-7,13,no,m,6,m,1.2789798000012524,1,17,test2,4,1.2791114999854472,-50.0
18,cyh,f,19,r,1,(172.20000000000002, 0.0),21,5,2,yes,x,5,x,1.5978220000106376,1,18,test2,4,1.5979529000178445,-40.0
18,cyh,f,19,r,1,(121.76378772032346, -121.76378772032352),28,-5,12,yes,x,5,x,1.128131100005703,1,19,test2,4,1.128420900000492,-50.0
18,cyh,f,19,r,1,(-121.76378772032352, -121.76378772032348),26,-7,13,yes,x,5,x,0.7454984000069089,1,20,test2,4,0.7459043000126258,-52.0
18,cyh,f,19,r,1,(172.20000000000002, 0.0),21,-7,13,yes,x,5,x,0.841301399981603,1,21,test2,4,0.8415453999768943,-52.0
18,cyh,f,19,r,1,(-172.20000000000002, 2.1088417881317425e-14),25,7,3,no,m,6,m,1.367840699997032,1,22,test2,4,1.3680722000135574,-52.0
18,cyh,f,19,r,1,(-3.163262682197613e-14, -172.20000000000002),27,3,1,no,m,6,m,1.4201328000053763,1,23,test2,4,1.42035840000608,-52.0
18,cyh,f,19,r,1,(1.0544208940658713e-14, 172.20000000000002),23,25,4,yes,x,5,x,1.2006776000198442,1,24,test2,4,1.200794100004714,-20.0
18,cyh,f,19,r,1,(121.76378772032349, 121.76378772032349),22,5,2,yes,x,5,x,0.6803995999798644,1,25,test2,4,0.6804991999815684,-40.0
18,cyh,f,19,r,1,(-172.20000000000002, 2.1088417881317425e-14),25,25,4,yes,x,5,x,0.5534368999942672,1,26,test2,4,0.5535746999958064,-20.0
18,cyh,f,19,r,1,(121.76378772032349, 121.76378772032349),22,25,4,yes,x,5,x,0.5438628999982029,1,27,test2,4,0.5439918999909423,-20.0
18,cyh,f,19,r,1,(121.76378772032346, -121.76378772032352),28,-25,14,no,m,6,m,0.9143523999955505,1,28,test2,4,0.914837999996962,-20.0
18,cyh,f,19,r,1,(172.20000000000002, 0.0),21,25,4,yes,x,5,x,0.583857200021157,1,29,test2,4,0.5841654000105336,-20.0
18,cyh,f,19,r,1,(-172.20000000000002, 2.1088417881317425e-14),25,7,3,yes,x,5,x,0.8685945000033826,1,30,test2,4,0.8690228000050411,-38.0
18,cyh,f,19,r,1,(121.76378772032349, 121.76378772032349),22,-7,13,no,m,6,m,0.8991562000010163,1,31,test2,4,0.8992956999863964,-38.0
18,cyh,f,19,r,1,(1.0544208940658713e-14, 172.20000000000002),23,5,2,yes,x,5,x,0.859847500018077,1,32,test2,4,0.859976200008532,-40.0
18,cyh,f,19,r,1,(1.0544208940658713e-14, 172.20000000000002),23,-3,11,yes,x,5,x,1.0311689999944065,1,33,test2,4,1.0314493000041693,-48.0
18,cyh,f,19,r,1,(-3.163262682197613e-14, -172.20000000000002),27,-3,11,yes,x,5,x,1.224522500007879,1,34,test2,4,1.2251358999928925,-48.0
18,cyh,f,19,r,1,(1.0544208940658713e-14, 172.20000000000002),23,-5,12,yes,x,5,x,0.7917024999915157,1,35,test2,4,0.7918015999894124,-50.0
18,cyh,f,19,r,1,(-121.76378772032348, 121.76378772032349),24,-3,11,yes,x,5,m,1.4332946999929845,0,36,test2,4,1.4335051999951247,-48.0
18,cyh,f,19,r,1,(-121.76378772032348, 121.76378772032349),24,7,3,no,m,6,m,1.4320956000010483,1,37,test2,4,1.4323949000099674,-48.0
18,cyh,f,19,r,1,(-121.76378772032352, -121.76378772032348),26,-3,11,yes,x,5,x,1.4585477000218816,1,38,test2,4,1.4586528999789152,-48.0
18,cyh,f,19,r,1,(121.76378772032346, -121.76378772032352),28,-5,12,yes,x,5,x,1.2044914000143763,1,39,test2,4,1.2046775999770034,-50.0
18,cyh,f,19,r,1,(-172.20000000000002, 2.1088417881317425e-14),25,-5,12,yes,x,5,x,0.8797809999960009,1,40,test2,4,0.8798817000060808,-50.0
18,cyh,f,19,r,1,(172.20000000000002, 0.0),21,5,2,yes,x,5,x,1.158846199978143,1,41,test2,4,1.1590222000086214,-40.0
18,cyh,f,19,r,1,(-3.163262682197613e-14, -172.20000000000002),27,7,3,yes,x,5,x,0.5542989999812562,1,42,test2,4,0.5544800000207033,-38.0
18,cyh,f,19,r,1,(-3.163262682197613e-14, -172.20000000000002),27,25,4,yes,x,5,x,0.589291799988132,1,43,test2,4,0.5894160000025295,-20.0
18,cyh,f,19,r,1,(121.76378772032349, 121.76378772032349),22,-3,11,yes,x,5,x,0.9038965000072494,1,44,test2,4,0.9041278000222519,-48.0
18,cyh,f,19,r,1,(-172.20000000000002, 2.1088417881317425e-14),25,-25,14,yes,x,5,x,0.609406300005503,1,45,test2,4,0.6097390000068117,-70.0
18,cyh,f,19,r,1,(172.20000000000002, 0.0),21,3,1,yes,x,5,m,1.463117399980547,0,46,test2,4,1.463395099999616,-42.0
18,cyh,f,19,r,1,(121.76378772032346, -121.76378772032352),28,-3,11,no,m,6,m,1.4060269000183325,1,47,test2,4,1.4063189000007696,-42.0
18,cyh,f,19,r,1,(-121.76378772032348, 121.76378772032349),24,5,2,yes,x,5,x,0.9922763999784365,1,48,test2,4,0.992709800018929,-40.0
18,cyh,f,19,r,1,(-121.76378772032348, 121.76378772032349),24,25,4,yes,x,5,x,0.6848023000056855,1,49,test2,4,0.6849356999737211,-20.0
18,cyh,f,19,r,1,(-3.163262682197613e-14, -172.20000000000002),27,-3,11,no,m,6,m,0.8293088999926113,1,50,test2,4,0.8294893999991473,-20.0
18,cyh,f,19,r,1,(-3.163262682197613e-14, -172.20000000000002),27,-25,14,yes,x,5,x,0.6764870999904815,1,51,test2,4,0.6766198999830522,-70.0
18,cyh,f,19,r,1,(-121.76378772032352, -121.76378772032348),26,25,4,no,m,6,m,1.1187958999944385,1,52,test2,4,1.1189095999870915,-70.0
18,cyh,f,19,r,1,(121.76378772032346, -121.76378772032352),28,25,4,no,m,6,m,1.2581056999915745,1,53,test2,4,1.2583369000058156,-70.0
18,cyh,f,19,r,1,(-121.76378772032352, -121.76378772032348),26,-5,12,yes,x,5,x,0.9627047999820206,1,54,test2,4,0.9629343999840785,-50.0
18,cyh,f,19,r,1,(-121.76378772032348, 121.76378772032349),24,-5,12,yes,x,5,x,0.8080377000151202,1,55,test2,4,0.8081387999991421,-50.0
18,cyh,f,19,r,1,(-121.76378772032348, 121.76378772032349),24,-7,13,no,m,6,m,1.1722121000057086,1,56,test2,4,1.1725130999984685,-50.0
18,cyh,f,19,r,1,(1.0544208940658713e-14, 172.20000000000002),23,-3,11,yes,x,5,m,1.5359318999981042,0,57,test2,4,1.5362995000032242,-48.0
18,cyh,f,19,r,1,(172.20000000000002, 0.0),21,-5,12,yes,x,5,x,1.2449567999865394,1,58,test2,4,1.2450848000007682,-50.0
18,cyh,f,19,r,1,(121.76378772032346, -121.76378772032352),28,7,3,yes,x,5,x,1.0101580999908037,1,59,test2,4,1.0102802999899723,-38.0
