subj_id,subj_name,subj_gender ,subj_age,subj_handedness,subj_runNum,tar_l_x,tar_l_y,loc_code,tar_ori,tar_code,tar_pre ,cor_response,pre_code,subj_response,RT,correct,trial_num,type,bloc_num,dur, real_tar
18,cyh,f,19,r,2,(-3.163262682197613e-14, -172.20000000000002),27,7,3,yes,x,5,x,0.8822448000000804,1,1,test1,1,0.8825092999995832,-38.0
18,cyh,f,19,r,2,(172.20000000000002, 0.0),21,-3,11,yes,x,5,x,1.0730200999996669,1,2,test1,1,1.0732531000003291,-48.0
18,cyh,f,19,r,2,(-121.76378772032352, -121.76378772032348),26,-5,12,no,m,6,m,1.043749000000389,1,3,test1,1,1.043877799999791,-48.0
18,cyh,f,19,r,2,(-172.20000000000002, 2.1088417881317425e-14),25,-3,11,yes,x,5,x,0.990810600000259,1,4,test1,1,0.9910436000000118,-48.0
18,cyh,f,19,r,2,(-172.20000000000002, 2.1088417881317425e-14),25,-5,12,yes,x,5,x,0.7708707000001596,1,5,test1,1,0.7709732000002987,-50.0
18,cyh,f,19,r,2,(-172.20000000000002, 2.1088417881317425e-14),25,25,4,no,m,6,m,1.3328977000001032,1,6,test1,1,1.3330980000000636,-50.0
18,cyh,f,19,r,2,(1.0544208940658713e-14, 172.20000000000002),23,25,4,yes,x,5,x,0.5405642999994598,1,7,test1,1,0.5407038000003013,-20.0
18,cyh,f,19,r,2,(-121.76378772032352, -121.76378772032348),26,25,4,yes,x,5,x,0.43058839999957854,1,8,test1,1,0.4310482000000775,-20.0
18,cyh,f,19,r,2,(121.76378772032346, -121.76378772032352),28,5,2,yes,x,5,x,0.7301418999995803,1,9,test1,1,0.7303665999997975,-40.0
18,cyh,f,19,r,2,(172.20000000000002, 0.0),21,5,2,no,m,6,m,0.9382013999993433,1,10,test1,1,0.9384681999999884,-40.0
18,cyh,f,19,r,2,(121.76378772032349, 121.76378772032349),22,7,3,yes,x,5,x,0.549819099999695,1,11,test1,1,0.5500589000002947,-38.0
18,cyh,f,19,r,2,(-172.20000000000002, 2.1088417881317425e-14),25,-3,11,yes,x,5,x,1.1923893000002863,1,12,test1,1,1.1926877999994758,-48.0
18,cyh,f,19,r,2,(121.76378772032346, -121.76378772032352),28,-25,14,yes,x,5,x,0.501743499999975,1,13,test1,1,0.5022063999995225,-70.0
18,cyh,f,19,r,2,(121.76378772032346, -121.76378772032352),28,-5,12,no,m,6,m,0.7997592000001532,1,14,test1,1,0.8002272000003359,-70.0
18,cyh,f,19,r,2,(121.76378772032346, -121.76378772032352),28,-3,11,yes,x,5,m,1.2117803000001004,0,15,test1,1,1.2122749999998632,-48.0
18,cyh,f,19,r,2,(-121.76378772032352, -121.76378772032348),26,-25,14,yes,x,5,x,0.40776240000013786,1,16,test1,1,0.40789870000025985,-70.0
18,cyh,f,19,r,2,(1.0544208940658713e-14, 172.20000000000002),23,3,1,no,m,6,m,0.747465700000248,1,17,test1,1,0.7475905999999668,-70.0
18,cyh,f,19,r,2,(121.76378772032346, -121.76378772032352),28,25,4,yes,x,5,x,0.46795429999929183,1,18,test1,1,0.468092400000387,-20.0
18,cyh,f,19,r,2,(-121.76378772032348, 121.76378772032349),24,5,2,yes,x,5,x,0.6684854999994059,1,19,test1,1,0.6687147000002369,-40.0
18,cyh,f,19,r,2,(121.76378772032349, 121.76378772032349),22,-3,11,no,m,6,m,0.752702999999201,1,20,test1,1,0.7528055000002496,-40.0
18,cyh,f,19,r,2,(-3.163262682197613e-14, -172.20000000000002),27,-5,12,yes,x,5,x,0.6550993999999264,1,21,test1,1,0.6554124000003867,-50.0
18,cyh,f,19,r,2,(-121.76378772032352, -121.76378772032348),26,5,2,no,m,6,m,0.8059409999996205,1,22,test1,1,0.8061670000006416,-50.0
18,cyh,f,19,r,2,(121.76378772032349, 121.76378772032349),22,5,2,no,m,6,m,0.8568128999995679,1,23,test1,1,0.8570885000008275,-50.0
18,cyh,f,19,r,2,(1.0544208940658713e-14, 172.20000000000002),23,-25,14,no,m,6,m,0.6778740999998263,1,24,test1,1,0.6780356999997821,-50.0
18,cyh,f,19,r,2,(172.20000000000002, 0.0),21,-3,11,yes,x,5,m,0.9610058000007484,0,25,test1,1,0.9615425000001778,-48.0
18,cyh,f,19,r,2,(172.20000000000002, 0.0),21,-5,12,no,m,6,m,1.6387894999998025,1,26,test1,1,1.639422100000047,-48.0
18,cyh,f,19,r,2,(172.20000000000002, 0.0),21,5,2,yes,x,5,x,0.8278009000005113,1,27,test1,1,0.828036200000497,-40.0
18,cyh,f,19,r,2,(121.76378772032346, -121.76378772032352),28,3,1,yes,x,5,None,None,0,28,test1,1,1.9800934999993842,-42.0
18,cyh,f,19,r,2,(121.76378772032346, -121.76378772032352),28,-5,12,yes,x,5,x,0.7832634999995207,1,29,test1,1,0.7835518000001684,-50.0
18,cyh,f,19,r,2,(121.76378772032349, 121.76378772032349),22,25,4,no,m,6,m,0.7915915000003224,1,30,test1,1,0.7918410000002041,-50.0
18,cyh,f,19,r,2,(121.76378772032349, 121.76378772032349),22,3,1,yes,x,5,x,1.0379713000002084,1,31,test1,1,1.0380740000000515,-42.0
18,cyh,f,19,r,2,(121.76378772032346, -121.76378772032352),28,-3,11,no,m,6,m,1.2094387999995888,1,32,test1,1,1.209555000000364,-42.0
18,cyh,f,19,r,2,(121.76378772032349, 121.76378772032349),22,-5,12,yes,x,5,x,0.8006724000006216,1,33,test1,1,0.8009358999997858,-50.0
18,cyh,f,19,r,2,(121.76378772032346, -121.76378772032352),28,5,2,no,m,6,m,1.3808681999998953,1,34,test1,1,1.3811926000007588,-50.0
18,cyh,f,19,r,2,(121.76378772032349, 121.76378772032349),22,3,1,yes,x,5,x,1.2586858999993638,1,35,test1,1,1.258789099999376,-42.0
18,cyh,f,19,r,2,(-121.76378772032352, -121.76378772032348),26,5,2,yes,x,5,x,0.5966545000001133,1,36,test1,1,0.5969485000005079,-40.0
18,cyh,f,19,r,2,(-121.76378772032348, 121.76378772032349),24,-5,12,yes,x,5,x,0.7220755999996982,1,37,test1,1,0.7222333999998227,-50.0
18,cyh,f,19,r,2,(-121.76378772032348, 121.76378772032349),24,25,4,no,m,6,m,1.074976200000492,1,38,test1,1,1.0750748999998905,-50.0
18,cyh,f,19,r,2,(121.76378772032349, 121.76378772032349),22,-5,12,no,m,6,m,0.8571218000006411,1,39,test1,1,0.8573120999999446,-50.0
18,cyh,f,19,r,2,(172.20000000000002, 0.0),21,-7,13,yes,x,5,x,0.6758170000002792,1,40,test1,1,0.6760997999999745,-52.0
18,cyh,f,19,r,2,(-3.163262682197613e-14, -172.20000000000002),27,7,3,yes,x,5,x,0.9360030999996525,1,41,test1,1,0.9364286999998512,-38.0
18,cyh,f,19,r,2,(-172.20000000000002, 2.1088417881317425e-14),25,-25,14,yes,x,5,x,0.4750347999997757,1,42,test1,1,0.4751406000004863,-70.0
18,cyh,f,19,r,2,(121.76378772032346, -121.76378772032352),28,3,1,yes,x,5,m,0.8168359000001146,0,43,test1,1,0.8172568999998475,-42.0
18,cyh,f,19,r,2,(121.76378772032349, 121.76378772032349),22,-25,14,yes,x,5,x,0.41926150000017515,1,44,test1,1,0.4196040000006178,-70.0
18,cyh,f,19,r,2,(172.20000000000002, 0.0),21,25,4,yes,x,5,x,0.5031327999995483,1,45,test1,1,0.5032348000004276,-20.0
18,cyh,f,19,r,2,(-121.76378772032348, 121.76378772032349),24,7,3,yes,x,5,x,0.5646709000002375,1,46,test1,1,0.5647874999995111,-38.0
18,cyh,f,19,r,2,(121.76378772032346, -121.76378772032352),28,-7,13,yes,x,5,x,0.7186521999992692,1,47,test1,1,0.7187525999997888,-52.0
18,cyh,f,19,r,2,(1.0544208940658713e-14, 172.20000000000002),23,-7,13,yes,x,5,x,0.6548223999998299,1,48,test1,1,0.6549369000003935,-52.0
18,cyh,f,19,r,2,(-121.76378772032348, 121.76378772032349),24,-3,11,no,m,6,m,1.0810502999993332,1,49,test1,1,1.0811748999994961,-52.0
18,cyh,f,19,r,2,(121.76378772032346, -121.76378772032352),28,5,2,yes,x,5,x,1.1299813999994512,1,50,test1,1,1.130380800000239,-40.0
18,cyh,f,19,r,2,(1.0544208940658713e-14, 172.20000000000002),23,-7,13,no,m,6,m,0.8350481999996191,1,51,test1,1,0.835178199999973,-40.0
18,cyh,f,19,r,2,(172.20000000000002, 0.0),21,3,1,yes,x,5,m,1.4469454000000042,0,52,test1,1,1.4471238999994966,-42.0
18,cyh,f,19,r,2,(-121.76378772032352, -121.76378772032348),26,3,1,no,m,6,m,0.9479768999999578,1,53,test1,1,0.9480947000001834,-42.0
18,cyh,f,19,r,2,(-172.20000000000002, 2.1088417881317425e-14),25,25,4,yes,x,5,x,0.46117079999930866,1,54,test1,1,0.4613257999999405,-20.0
18,cyh,f,19,r,2,(-121.76378772032348, 121.76378772032349),24,3,1,yes,x,5,x,1.5185582000003706,1,55,test1,1,1.5187808000000587,-42.0
18,cyh,f,19,r,2,(1.0544208940658713e-14, 172.20000000000002),23,25,4,no,m,6,m,0.7222891000001255,1,56,test1,1,0.722971599999255,-42.0
18,cyh,f,19,r,2,(172.20000000000002, 0.0),21,-25,14,yes,x,5,x,0.4256619000007049,1,57,test1,1,0.42577999999957683,-70.0
18,cyh,f,19,r,2,(-172.20000000000002, 2.1088417881317425e-14),25,7,3,yes,x,5,x,0.7139981000000262,1,58,test1,1,0.7141316999995979,-38.0
18,cyh,f,19,r,2,(-3.163262682197613e-14, -172.20000000000002),27,3,1,yes,x,5,x,1.0615381999996316,1,59,test1,1,1.061762500000441,-42.0
18,cyh,f,19,r,2,(-172.20000000000002, 2.1088417881317425e-14),25,-5,12,no,m,6,m,0.9139486999993096,1,60,test1,1,0.9141558000001169,-42.0
18,cyh,f,19,r,2,(-121.76378772032348, 121.76378772032349),24,-7,13,no,m,6,m,1.0672306999995271,1,61,test1,1,1.0673323999999411,-42.0
18,cyh,f,19,r,2,(-121.76378772032348, 121.76378772032349),24,-25,14,yes,x,5,x,0.48838249999971595,1,62,test1,1,0.4886212000001251,-70.0
18,cyh,f,19,r,2,(172.20000000000002, 0.0),21,7,3,yes,x,5,x,0.8330231999998432,1,63,test1,1,0.8331291000004057,-38.0
18,cyh,f,19,r,2,(172.20000000000002, 0.0),21,-5,12,yes,x,5,x,0.84241639999982,1,64,test1,1,0.8429213999997955,-50.0
18,cyh,f,19,r,2,(-3.163262682197613e-14, -172.20000000000002),27,-7,13,no,m,6,m,1.7971079000008103,1,65,test1,1,1.7972343000001274,-50.0
18,cyh,f,19,r,2,(1.0544208940658713e-14, 172.20000000000002),23,-5,12,yes,x,5,x,0.7476210000004357,1,66,test1,1,0.7478190000001632,-50.0
18,cyh,f,19,r,2,(-3.163262682197613e-14, -172.20000000000002),27,-5,12,no,m,6,m,1.373080200000004,1,67,test1,1,1.373330899999928,-50.0
18,cyh,f,19,r,2,(-3.163262682197613e-14, -172.20000000000002),27,-5,12,yes,x,5,x,0.5619717999998102,1,68,test1,1,0.5621386000002531,-50.0
18,cyh,f,19,r,2,(-121.76378772032348, 121.76378772032349),24,3,1,no,m,6,m,0.5600290000002133,1,69,test1,1,0.5603775999998106,-50.0
18,cyh,f,19,r,2,(121.76378772032346, -121.76378772032352),28,3,1,no,m,6,m,0.5423947999997836,1,70,test1,1,0.5425022999997964,-50.0
18,cyh,f,19,r,2,(-121.76378772032348, 121.76378772032349),24,-5,12,no,m,6,m,0.623196999999891,1,71,test1,1,0.6233239000002868,-50.0
18,cyh,f,19,r,2,(121.76378772032349, 121.76378772032349),22,-25,14,no,m,6,m,0.8276789000001372,1,72,test1,1,0.8277822000000015,-50.0
18,cyh,f,19,r,2,(-3.163262682197613e-14, -172.20000000000002),27,-25,14,yes,x,5,x,0.45083429999976943,1,73,test1,1,0.4510368000001108,-70.0
18,cyh,f,19,r,2,(-3.163262682197613e-14, -172.20000000000002),27,25,4,yes,x,5,x,0.4568425000006755,1,74,test1,1,0.4570755000004283,-20.0
18,cyh,f,19,r,2,(-121.76378772032348, 121.76378772032349),24,3,1,yes,x,5,x,1.1052147999998851,1,75,test1,1,1.1058091999993849,-42.0
18,cyh,f,19,r,2,(-121.76378772032352, -121.76378772032348),26,-3,11,no,m,6,m,0.7784489000005124,1,76,test1,1,0.7786280000000261,-42.0
18,cyh,f,19,r,2,(121.76378772032349, 121.76378772032349),22,-7,13,no,m,6,m,0.7786663000006229,1,77,test1,1,0.7788730999991458,-42.0
18,cyh,f,19,r,2,(121.76378772032346, -121.76378772032352),28,7,3,yes,x,5,x,0.6853844000006575,1,78,test1,1,0.685508700000355,-38.0
18,cyh,f,19,r,2,(172.20000000000002, 0.0),21,-7,13,no,m,6,m,0.7188378000000739,1,79,test1,1,0.7189570999998978,-38.0
18,cyh,f,19,r,2,(-121.76378772032352, -121.76378772032348),26,3,1,yes,x,5,x,1.1388481000003594,1,80,test1,1,1.1392422000008082,-42.0
18,cyh,f,19,r,2,(-172.20000000000002, 2.1088417881317425e-14),25,-5,12,yes,x,5,x,0.7434137999998711,1,81,test1,1,0.7435487000002468,-50.0
18,cyh,f,19,r,2,(1.0544208940658713e-14, 172.20000000000002),23,3,1,yes,x,5,x,1.0429884000004677,1,82,test1,1,1.0439324999997552,-42.0
18,cyh,f,19,r,2,(1.0544208940658713e-14, 172.20000000000002),23,5,2,yes,x,5,x,0.6288887999999133,1,83,test1,1,0.629650899999433,-40.0
18,cyh,f,19,r,2,(121.76378772032346, -121.76378772032352),28,-25,14,no,m,6,m,1.3206554999997024,1,84,test1,1,1.320966999999655,-40.0
18,cyh,f,19,r,2,(172.20000000000002, 0.0),21,5,2,yes,x,5,x,0.662468099999387,1,85,test1,1,0.6627432999994198,-40.0
18,cyh,f,19,r,2,(-121.76378772032348, 121.76378772032349),24,5,2,yes,x,5,x,0.5975470000003043,1,86,test1,1,0.597714000000451,-40.0
18,cyh,f,19,r,2,(-121.76378772032348, 121.76378772032349),24,25,4,yes,x,5,x,0.450482600000214,1,87,test1,1,0.4507165000004534,-20.0
18,cyh,f,19,r,2,(-3.163262682197613e-14, -172.20000000000002),27,3,1,no,m,6,m,1.0451958000003287,1,88,test1,1,1.0453200000001743,-20.0
18,cyh,f,19,r,2,(-172.20000000000002, 2.1088417881317425e-14),25,7,3,yes,x,5,x,0.5168964999993477,1,89,test1,1,0.5173370000002251,-38.0
18,cyh,f,19,r,2,(-172.20000000000002, 2.1088417881317425e-14),25,-25,14,no,m,6,m,0.7731676000003063,1,90,test1,1,0.7733997999994244,-38.0
18,cyh,f,19,r,2,(-172.20000000000002, 2.1088417881317425e-14),25,3,1,yes,x,5,x,1.4426452000006975,1,91,test1,1,1.442837700000382,-42.0
18,cyh,f,19,r,2,(172.20000000000002, 0.0),21,-25,14,yes,x,5,x,0.5083126999998058,1,92,test1,1,0.5084126000001561,-70.0
18,cyh,f,19,r,2,(-3.163262682197613e-14, -172.20000000000002),27,-3,11,yes,x,5,x,1.0029808000008416,1,93,test1,1,1.0032112000008055,-48.0
18,cyh,f,19,r,2,(-121.76378772032348, 121.76378772032349),24,-5,12,yes,x,5,x,0.5065408999998908,1,94,test1,1,0.5066674999998213,-50.0
18,cyh,f,19,r,2,(-121.76378772032348, 121.76378772032349),24,7,3,yes,x,5,x,0.48077700000067125,1,95,test1,1,0.48088000000007014,-38.0
18,cyh,f,19,r,2,(-172.20000000000002, 2.1088417881317425e-14),25,25,4,yes,x,5,x,0.3903089999994336,1,96,test1,1,0.3906446999999389,-20.0
18,cyh,f,19,r,2,(-172.20000000000002, 2.1088417881317425e-14),25,5,2,no,m,6,m,1.2152106000003187,1,1,test2,1,1.215342800000144,-20.0
18,cyh,f,19,r,2,(172.20000000000002, 0.0),21,-3,11,no,m,6,m,0.8871306999999433,1,2,test2,1,0.8873684000000139,-20.0
18,cyh,f,19,r,2,(172.20000000000002, 0.0),21,3,1,yes,x,5,x,0.7842674999992596,1,3,test2,1,0.78464619999977,-42.0
18,cyh,f,19,r,2,(172.20000000000002, 0.0),21,7,3,no,m,6,m,0.720709799999895,1,4,test2,1,0.7208384000005026,-42.0
18,cyh,f,19,r,2,(-121.76378772032348, 121.76378772032349),24,-7,13,yes,x,5,x,0.658343999999488,1,5,test2,1,0.6585980999998355,-52.0
18,cyh,f,19,r,2,(-121.76378772032352, -121.76378772032348),26,-5,12,yes,x,5,x,0.7485147999996116,1,6,test2,1,0.7486370000005991,-50.0
18,cyh,f,19,r,2,(1.0544208940658713e-14, 172.20000000000002),23,-7,13,yes,x,5,x,0.5200405000005048,1,7,test2,1,0.5205291999991459,-52.0
18,cyh,f,19,r,2,(-121.76378772032352, -121.76378772032348),26,-3,11,yes,x,5,x,0.6211279999997714,1,8,test2,1,0.6212958999994953,-48.0
18,cyh,f,19,r,2,(1.0544208940658713e-14, 172.20000000000002),23,-5,12,no,m,6,m,0.6780296000006274,1,9,test2,1,0.6783975999996983,-48.0
18,cyh,f,19,r,2,(-3.163262682197613e-14, -172.20000000000002),27,-25,14,no,m,6,m,1.3347146999994948,1,10,test2,1,1.3348462000003565,-48.0
18,cyh,f,19,r,2,(121.76378772032349, 121.76378772032349),22,5,2,yes,x,5,x,0.5300383999992846,1,11,test2,1,0.5301562999993621,-40.0
18,cyh,f,19,r,2,(-3.163262682197613e-14, -172.20000000000002),27,7,3,no,m,6,m,0.840115899999546,1,12,test2,1,0.8403563000001668,-40.0
18,cyh,f,19,r,2,(-121.76378772032352, -121.76378772032348),26,3,1,yes,x,5,x,0.9760003000001234,1,13,test2,1,0.9764497999995001,-42.0
18,cyh,f,19,r,2,(-172.20000000000002, 2.1088417881317425e-14),25,-7,13,yes,x,5,x,0.48864659999981086,1,14,test2,1,0.48930879999988974,-52.0
18,cyh,f,19,r,2,(172.20000000000002, 0.0),21,-5,12,yes,x,5,x,0.4606177999994543,1,15,test2,1,0.4607506000002104,-50.0
18,cyh,f,19,r,2,(121.76378772032349, 121.76378772032349),22,-7,13,yes,x,5,x,0.4626795000003767,1,16,test2,1,0.46278069999971194,-52.0
18,cyh,f,19,r,2,(121.76378772032349, 121.76378772032349),22,-25,14,yes,x,5,x,0.41346659999999247,1,17,test2,1,0.41373829999974987,-70.0
18,cyh,f,19,r,2,(-121.76378772032352, -121.76378772032348),26,5,2,yes,x,5,x,0.6245084000001953,1,18,test2,1,0.6246123000000807,-40.0
18,cyh,f,19,r,2,(-3.163262682197613e-14, -172.20000000000002),27,-7,13,yes,x,5,x,0.49242169999979524,1,19,test2,1,0.492543299999852,-52.0
18,cyh,f,19,r,2,(-3.163262682197613e-14, -172.20000000000002),27,5,2,yes,x,5,x,0.5008206000002247,1,20,test2,1,0.5009499999996478,-40.0
18,cyh,f,19,r,2,(-121.76378772032352, -121.76378772032348),26,7,3,yes,x,5,x,0.4005094000003737,1,21,test2,1,0.40069929999935994,-38.0
18,cyh,f,19,r,2,(-121.76378772032352, -121.76378772032348),26,-25,14,no,m,6,m,0.9215299999996205,1,22,test2,1,0.9218130999997811,-38.0
18,cyh,f,19,r,2,(121.76378772032346, -121.76378772032352),28,-25,14,yes,x,5,x,0.43291769999996177,1,23,test2,1,0.43315290000009554,-70.0
18,cyh,f,19,r,2,(121.76378772032346, -121.76378772032352),28,-7,13,no,m,6,m,0.6230377000001681,1,24,test2,1,0.6232785000001968,-70.0
18,cyh,f,19,r,2,(121.76378772032349, 121.76378772032349),22,25,4,yes,x,5,x,0.426410200000646,1,25,test2,1,0.42680960000052437,-20.0
18,cyh,f,19,r,2,(121.76378772032346, -121.76378772032352),28,-3,11,yes,x,5,x,0.9795431000002282,1,26,test2,1,0.9797767999998541,-48.0
18,cyh,f,19,r,2,(-121.76378772032352, -121.76378772032348),26,-3,11,yes,x,5,x,0.6069785999998203,1,27,test2,1,0.6072340000000622,-48.0
18,cyh,f,19,r,2,(-172.20000000000002, 2.1088417881317425e-14),25,3,1,yes,x,5,m,1.2583344999993642,0,28,test2,1,1.2584392000007938,-42.0
18,cyh,f,19,r,2,(121.76378772032349, 121.76378772032349),22,-7,13,yes,x,5,x,0.4657561000003625,1,29,test2,1,0.4658603999996558,-52.0
18,cyh,f,19,r,2,(-3.163262682197613e-14, -172.20000000000002),27,25,4,no,m,6,m,0.7824079000001802,1,30,test2,1,0.7826996999992843,-52.0
18,cyh,f,19,r,2,(172.20000000000002, 0.0),21,3,1,no,m,6,m,1.344242199999826,1,31,test2,1,1.344486599999982,-52.0
18,cyh,f,19,r,2,(-3.163262682197613e-14, -172.20000000000002),27,5,2,no,m,6,m,1.2517551999999341,1,32,test2,1,1.2519038000000364,-52.0
18,cyh,f,19,r,2,(1.0544208940658713e-14, 172.20000000000002),23,-5,12,yes,x,5,x,0.6018552000005002,1,33,test2,1,0.6019843000003675,-50.0
18,cyh,f,19,r,2,(1.0544208940658713e-14, 172.20000000000002),23,7,3,no,m,6,m,0.8185998999997537,1,34,test2,1,0.8187637000000905,-50.0
18,cyh,f,19,r,2,(-172.20000000000002, 2.1088417881317425e-14),25,3,1,no,m,6,m,0.8016809999999168,1,35,test2,1,0.80190230000062,-50.0
18,cyh,f,19,r,2,(-121.76378772032348, 121.76378772032349),24,25,4,yes,x,5,x,0.4636326999998346,1,36,test2,1,0.46396679999998014,-20.0
18,cyh,f,19,r,2,(1.0544208940658713e-14, 172.20000000000002),23,5,2,yes,x,5,x,0.49905409999973926,1,37,test2,1,0.4992845999995552,-40.0
18,cyh,f,19,r,2,(1.0544208940658713e-14, 172.20000000000002),23,7,3,yes,x,5,x,0.4001412999996319,1,38,test2,1,0.400376800000231,-38.0
18,cyh,f,19,r,2,(-121.76378772032352, -121.76378772032348),26,25,4,yes,x,5,x,0.3950439999998707,1,39,test2,1,0.3952800000006391,-20.0
18,cyh,f,19,r,2,(121.76378772032349, 121.76378772032349),22,-3,11,yes,x,5,x,1.02625850000004,1,40,test2,1,1.0264087999994445,-48.0
18,cyh,f,19,r,2,(-121.76378772032352, -121.76378772032348),26,-7,13,no,m,6,m,0.7317441999994116,1,41,test2,1,0.7319064999992406,-48.0
18,cyh,f,19,r,2,(172.20000000000002, 0.0),21,7,3,yes,x,5,x,0.5659831000002669,1,42,test2,1,0.5662124999998923,-38.0
18,cyh,f,19,r,2,(-3.163262682197613e-14, -172.20000000000002),27,-3,11,no,m,6,m,0.7765920000001643,1,43,test2,1,0.7767174000000523,-38.0
18,cyh,f,19,r,2,(-172.20000000000002, 2.1088417881317425e-14),25,7,3,no,m,6,m,1.176024999999754,1,44,test2,1,1.1761243999999351,-38.0
18,cyh,f,19,r,2,(-3.163262682197613e-14, -172.20000000000002),27,-7,13,yes,x,5,x,0.5072020000006887,1,45,test2,1,0.5073437000000922,-52.0
18,cyh,f,19,r,2,(172.20000000000002, 0.0),21,-7,13,yes,x,5,x,0.47096659999988333,1,46,test2,1,0.47138339999946766,-52.0
18,cyh,f,19,r,2,(-3.163262682197613e-14, -172.20000000000002),27,5,2,yes,x,5,x,0.7800676000006206,1,47,test2,1,0.7802388000000064,-40.0
18,cyh,f,19,r,2,(121.76378772032346, -121.76378772032352),28,-7,13,yes,x,5,x,0.5163968999995632,1,48,test2,1,0.5165210000004663,-52.0
18,cyh,f,19,r,2,(1.0544208940658713e-14, 172.20000000000002),23,3,1,yes,x,5,m,1.3824207000006936,0,49,test2,1,1.382521700000325,-42.0
18,cyh,f,19,r,2,(1.0544208940658713e-14, 172.20000000000002),23,-3,11,no,m,6,m,1.0700158999998166,1,50,test2,1,1.0702682999999524,-42.0
18,cyh,f,19,r,2,(-121.76378772032348, 121.76378772032349),24,7,3,no,m,6,m,1.007282600000508,1,51,test2,1,1.0075197999994998,-42.0
18,cyh,f,19,r,2,(-3.163262682197613e-14, -172.20000000000002),27,3,1,yes,x,5,x,0.6451357000005373,1,52,test2,1,0.645505200000116,-42.0
18,cyh,f,19,r,2,(-172.20000000000002, 2.1088417881317425e-14),25,5,2,yes,x,5,x,1.1903438999997888,1,53,test2,1,1.1906433000003744,-40.0
18,cyh,f,19,r,2,(121.76378772032346, -121.76378772032352),28,-5,12,yes,x,5,x,0.6709736000002522,1,54,test2,1,0.6710998999997173,-50.0
18,cyh,f,19,r,2,(121.76378772032346, -121.76378772032352),28,7,3,yes,x,5,x,0.4482159999997748,1,55,test2,1,0.44855140000072424,-38.0
18,cyh,f,19,r,2,(121.76378772032349, 121.76378772032349),22,-3,11,yes,x,5,x,0.8102585999995426,1,56,test2,1,0.8104850999998234,-48.0
18,cyh,f,19,r,2,(-172.20000000000002, 2.1088417881317425e-14),25,-25,14,yes,x,5,x,0.4510835000000952,1,57,test2,1,0.45130820000031235,-70.0
18,cyh,f,19,r,2,(-3.163262682197613e-14, -172.20000000000002),27,25,4,yes,x,5,x,0.4441650999997364,1,58,test2,1,0.4443861999998262,-20.0
18,cyh,f,19,r,2,(1.0544208940658713e-14, 172.20000000000002),23,5,2,no,m,6,m,1.1740995000000112,1,59,test2,1,1.1742034999997486,-20.0
18,cyh,f,19,r,2,(121.76378772032349, 121.76378772032349),22,7,3,no,m,6,m,1.0246884999996837,1,60,test2,1,1.0249265000002197,-20.0
18,cyh,f,19,r,2,(1.0544208940658713e-14, 172.20000000000002),23,25,4,yes,x,5,x,0.45357530000001134,1,61,test2,1,0.4538086000002295,-20.0
18,cyh,f,19,r,2,(-121.76378772032348, 121.76378772032349),24,-3,11,yes,x,5,x,0.8390469999994821,1,62,test2,1,0.8397114999997939,-48.0
18,cyh,f,19,r,2,(-121.76378772032352, -121.76378772032348),26,-5,12,yes,x,5,x,0.6146460999998453,1,63,test2,1,0.6147516000000905,-50.0
18,cyh,f,19,r,2,(121.76378772032349, 121.76378772032349),22,7,3,yes,x,5,x,0.5478428999995231,1,64,test2,1,0.5479698999997709,-38.0
18,cyh,f,19,r,2,(-172.20000000000002, 2.1088417881317425e-14),25,-3,11,no,m,6,m,0.600913500000388,1,65,test2,1,0.6010252999994918,-38.0
18,cyh,f,19,r,2,(-3.163262682197613e-14, -172.20000000000002),27,-25,14,yes,x,5,x,0.4045616000003065,1,66,test2,1,0.40467569999964326,-70.0
18,cyh,f,19,r,2,(-121.76378772032348, 121.76378772032349),24,-3,11,yes,x,5,x,0.7616895999999542,1,67,test2,1,0.7617958000000726,-48.0
18,cyh,f,19,r,2,(121.76378772032349, 121.76378772032349),22,5,2,yes,x,5,x,0.5149185999998735,1,68,test2,1,0.515047500000037,-40.0
18,cyh,f,19,r,2,(172.20000000000002, 0.0),21,25,4,no,m,6,m,0.6644986000001154,1,69,test2,1,0.6647926999994525,-40.0
18,cyh,f,19,r,2,(172.20000000000002, 0.0),21,25,4,yes,x,5,x,0.38680250000015803,1,70,test2,1,0.38705920000029437,-20.0
18,cyh,f,19,r,2,(-121.76378772032352, -121.76378772032348),26,-7,13,yes,x,5,x,0.410646799999995,1,71,test2,1,0.4107479999993302,-52.0
18,cyh,f,19,r,2,(1.0544208940658713e-14, 172.20000000000002),23,7,3,yes,x,5,x,0.4743839000002481,1,72,test2,1,0.47457159999976284,-38.0
18,cyh,f,19,r,2,(-121.76378772032352, -121.76378772032348),26,25,4,no,m,6,m,0.8522732999999789,1,73,test2,1,0.8527081000001999,-38.0
18,cyh,f,19,r,2,(-3.163262682197613e-14, -172.20000000000002),27,-3,11,yes,x,5,x,0.5552264999996623,1,74,test2,1,0.5558497000001807,-48.0
18,cyh,f,19,r,2,(121.76378772032346, -121.76378772032352),28,25,4,no,m,6,m,0.7683285000002797,1,75,test2,1,0.7685731999999916,-48.0
18,cyh,f,19,r,2,(1.0544208940658713e-14, 172.20000000000002),23,-25,14,yes,x,5,x,0.417743199999677,1,76,test2,1,0.4183383999998114,-70.0
18,cyh,f,19,r,2,(-121.76378772032348, 121.76378772032349),24,-7,13,yes,x,5,x,0.5393449000002875,1,77,test2,1,0.5394783000001553,-52.0
18,cyh,f,19,r,2,(121.76378772032346, -121.76378772032352),28,25,4,yes,x,5,x,0.44540950000009616,1,78,test2,1,0.44576020000022254,-20.0
18,cyh,f,19,r,2,(-121.76378772032352, -121.76378772032348),26,-25,14,yes,x,5,x,0.43202089999977034,1,79,test2,1,0.43212539999967703,-70.0
18,cyh,f,19,r,2,(121.76378772032349, 121.76378772032349),22,25,4,yes,x,5,x,0.4098086999993029,1,80,test2,1,0.41004960000009305,-20.0
18,cyh,f,19,r,2,(121.76378772032346, -121.76378772032352),28,7,3,no,m,6,m,0.9130322000000888,1,81,test2,1,0.9132572999997137,-20.0
18,cyh,f,19,r,2,(-121.76378772032348, 121.76378772032349),24,5,2,no,m,6,m,0.623331099999632,1,82,test2,1,0.6234604999999647,-20.0
18,cyh,f,19,r,2,(-172.20000000000002, 2.1088417881317425e-14),25,-7,13,yes,x,5,x,0.44119229999978415,1,83,test2,1,0.4413547000003746,-52.0
18,cyh,f,19,r,2,(-121.76378772032352, -121.76378772032348),26,7,3,yes,x,5,x,0.46390579999933834,1,84,test2,1,0.4640371999994386,-38.0
18,cyh,f,19,r,2,(-121.76378772032352, -121.76378772032348),26,-7,13,yes,x,5,x,0.4944972000002963,1,85,test2,1,0.4946294000001217,-52.0
18,cyh,f,19,r,2,(-121.76378772032348, 121.76378772032349),24,-25,14,yes,x,5,x,0.4155049000000872,1,86,test2,1,0.4157301000004736,-70.0
18,cyh,f,19,r,2,(-121.76378772032348, 121.76378772032349),24,-25,14,no,m,6,m,1.3086788999999044,1,87,test2,1,1.3088046000002578,-70.0
18,cyh,f,19,r,2,(1.0544208940658713e-14, 172.20000000000002),23,-3,11,yes,x,5,x,1.278406399999767,1,88,test2,1,1.2786309000002802,-48.0
18,cyh,f,19,r,2,(121.76378772032349, 121.76378772032349),22,-5,12,yes,x,5,x,0.5937007000002268,1,89,test2,1,0.5940006000000722,-50.0
18,cyh,f,19,r,2,(1.0544208940658713e-14, 172.20000000000002),23,-3,11,yes,x,5,x,0.8009179000000586,1,90,test2,1,0.8010365000000093,-48.0
18,cyh,f,19,r,2,(121.76378772032349, 121.76378772032349),22,3,1,no,m,6,m,0.9984358000001521,1,91,test2,1,0.9985395000003336,-48.0
18,cyh,f,19,r,2,(1.0544208940658713e-14, 172.20000000000002),23,-25,14,yes,x,5,x,0.4578660999995918,1,92,test2,1,0.4581688000007489,-70.0
18,cyh,f,19,r,2,(-121.76378772032352, -121.76378772032348),26,7,3,no,m,6,m,0.8586427999998705,1,93,test2,1,0.8588811999998143,-70.0
18,cyh,f,19,r,2,(172.20000000000002, 0.0),21,-25,14,no,m,6,m,0.9336695000001782,1,94,test2,1,0.9340205999997124,-70.0
18,cyh,f,19,r,2,(-172.20000000000002, 2.1088417881317425e-14),25,-7,13,no,m,6,m,0.5725824999999531,1,95,test2,1,0.5733459000002767,-70.0
18,cyh,f,19,r,2,(-172.20000000000002, 2.1088417881317425e-14),25,5,2,yes,x,5,x,0.7217716999994082,1,96,test2,1,0.7218775999999707,-40.0
18,cyh,f,19,r,2,(-3.163262682197613e-14, -172.20000000000002),27,7,3,yes,x,5,x,0.5427743000000191,1,1,test1,2,0.5429142000002685,-38.0
18,cyh,f,19,r,2,(172.20000000000002, 0.0),21,-3,11,yes,x,5,x,0.9726520999993227,1,2,test1,2,0.9730349000001297,-48.0
18,cyh,f,19,r,2,(-121.76378772032352, -121.76378772032348),26,-5,12,no,m,6,m,1.0689892000000327,1,3,test1,2,1.0694321000000855,-48.0
18,cyh,f,19,r,2,(-172.20000000000002, 2.1088417881317425e-14),25,-3,11,yes,x,5,x,1.1755943999996816,1,4,test1,2,1.1757463000003554,-48.0
18,cyh,f,19,r,2,(-172.20000000000002, 2.1088417881317425e-14),25,-5,12,yes,x,5,x,0.6059944999997242,1,5,test1,2,0.6062138999996023,-50.0
18,cyh,f,19,r,2,(-172.20000000000002, 2.1088417881317425e-14),25,25,4,no,m,6,m,0.7406373000003441,1,6,test1,2,0.7407741999995778,-50.0
18,cyh,f,19,r,2,(1.0544208940658713e-14, 172.20000000000002),23,25,4,yes,x,5,x,0.6960020000005898,1,7,test1,2,0.6961019000000306,-20.0
18,cyh,f,19,r,2,(-121.76378772032352, -121.76378772032348),26,25,4,yes,x,5,x,0.5009503999999652,1,8,test1,2,0.5013386000000537,-20.0
18,cyh,f,19,r,2,(121.76378772032346, -121.76378772032352),28,5,2,yes,x,5,x,1.042188299999907,1,9,test1,2,1.0424872999992658,-40.0
18,cyh,f,19,r,2,(172.20000000000002, 0.0),21,5,2,no,m,6,m,0.8062704999993002,1,10,test1,2,0.8063680000004751,-40.0
18,cyh,f,19,r,2,(121.76378772032349, 121.76378772032349),22,7,3,yes,x,5,x,0.4810426000003645,1,11,test1,2,0.48125809999964986,-38.0
18,cyh,f,19,r,2,(-172.20000000000002, 2.1088417881317425e-14),25,-3,11,yes,x,5,m,1.3713870999999926,0,12,test1,2,1.3714872999998988,-48.0
18,cyh,f,19,r,2,(121.76378772032346, -121.76378772032352),28,-25,14,yes,x,5,x,0.37121079999997164,1,13,test1,2,0.3714552999999796,-70.0
18,cyh,f,19,r,2,(121.76378772032346, -121.76378772032352),28,-5,12,no,m,6,m,0.966042799999741,1,14,test1,2,0.9661418000005142,-70.0
18,cyh,f,19,r,2,(121.76378772032346, -121.76378772032352),28,-3,11,yes,x,5,x,0.7498006999994686,1,15,test1,2,0.749902700000348,-48.0
18,cyh,f,19,r,2,(-121.76378772032352, -121.76378772032348),26,-25,14,yes,x,5,x,0.4712651999998343,1,16,test1,2,0.4716516999997111,-70.0
18,cyh,f,19,r,2,(1.0544208940658713e-14, 172.20000000000002),23,3,1,no,m,6,m,1.4697450999992725,1,17,test1,2,1.4699581999993825,-70.0
18,cyh,f,19,r,2,(121.76378772032346, -121.76378772032352),28,25,4,yes,x,5,x,0.43822499999987485,1,18,test1,2,0.43851600000016333,-20.0
18,cyh,f,19,r,2,(-121.76378772032348, 121.76378772032349),24,5,2,yes,x,5,x,0.5066988999997193,1,19,test1,2,0.5068024000001969,-40.0
18,cyh,f,19,r,2,(121.76378772032349, 121.76378772032349),22,-3,11,no,m,6,m,0.9719420999999784,1,20,test1,2,0.9722396000006484,-40.0
18,cyh,f,19,r,2,(-3.163262682197613e-14, -172.20000000000002),27,-5,12,yes,x,5,x,0.567870099999709,1,21,test1,2,0.5680824000000939,-50.0
18,cyh,f,19,r,2,(-121.76378772032352, -121.76378772032348),26,5,2,no,m,6,m,0.8054480000000694,1,22,test1,2,0.8056934999995065,-50.0
18,cyh,f,19,r,2,(121.76378772032349, 121.76378772032349),22,5,2,no,m,6,m,0.84691919999932,1,23,test1,2,0.8470852000000377,-50.0
18,cyh,f,19,r,2,(1.0544208940658713e-14, 172.20000000000002),23,-25,14,no,m,6,m,0.7282548000002862,1,24,test1,2,0.72835699999996,-50.0
18,cyh,f,19,r,2,(172.20000000000002, 0.0),21,-3,11,yes,x,5,x,0.6726401999994778,1,25,test1,2,0.6727432999996381,-48.0
18,cyh,f,19,r,2,(172.20000000000002, 0.0),21,-5,12,no,m,6,m,0.8154911000001448,1,26,test1,2,0.8159533999996711,-48.0
18,cyh,f,19,r,2,(172.20000000000002, 0.0),21,5,2,yes,x,5,x,0.4633340999998836,1,27,test1,2,0.4634295000005295,-40.0
18,cyh,f,19,r,2,(121.76378772032346, -121.76378772032352),28,3,1,yes,x,5,x,1.1979629000006753,1,28,test1,2,1.1980901999995694,-42.0
18,cyh,f,19,r,2,(121.76378772032346, -121.76378772032352),28,-5,12,yes,x,5,x,0.7728943000001891,1,29,test1,2,0.7732392999996591,-50.0
18,cyh,f,19,r,2,(121.76378772032349, 121.76378772032349),22,25,4,no,m,6,m,0.9478920000001381,1,30,test1,2,0.9480351000001974,-50.0
18,cyh,f,19,r,2,(121.76378772032349, 121.76378772032349),22,3,1,yes,x,5,x,1.479512299999442,1,31,test1,2,1.4796974999999293,-42.0
18,cyh,f,19,r,2,(121.76378772032346, -121.76378772032352),28,-3,11,no,m,6,m,1.2524124000001393,1,32,test1,2,1.2527002000006178,-42.0
18,cyh,f,19,r,2,(121.76378772032349, 121.76378772032349),22,-5,12,yes,x,5,x,0.8250553999996555,1,33,test1,2,0.8253200999997716,-50.0
18,cyh,f,19,r,2,(121.76378772032346, -121.76378772032352),28,5,2,no,m,6,m,0.9167679000001954,1,34,test1,2,0.9170662000005905,-50.0
18,cyh,f,19,r,2,(121.76378772032349, 121.76378772032349),22,3,1,yes,x,5,x,0.5143410999999105,1,35,test1,2,0.515019200000097,-42.0
18,cyh,f,19,r,2,(-121.76378772032352, -121.76378772032348),26,5,2,yes,x,5,x,0.5053587000002153,1,36,test1,2,0.5056423999994877,-40.0
18,cyh,f,19,r,2,(-121.76378772032348, 121.76378772032349),24,-5,12,yes,x,5,x,0.8796196000002965,1,37,test1,2,0.8797253999991881,-50.0
18,cyh,f,19,r,2,(-121.76378772032348, 121.76378772032349),24,25,4,no,m,6,m,1.089273300000059,1,38,test1,2,1.0897353000000294,-50.0
18,cyh,f,19,r,2,(121.76378772032349, 121.76378772032349),22,-5,12,no,m,6,m,0.9343073999998524,1,39,test1,2,0.9347145000001547,-50.0
18,cyh,f,19,r,2,(172.20000000000002, 0.0),21,-7,13,yes,x,5,x,0.485472899999877,1,40,test1,2,0.4856464999993477,-52.0
18,cyh,f,19,r,2,(-3.163262682197613e-14, -172.20000000000002),27,7,3,yes,x,5,x,0.4732708999999886,1,41,test1,2,0.47338760000002367,-38.0
18,cyh,f,19,r,2,(-172.20000000000002, 2.1088417881317425e-14),25,-25,14,yes,x,5,x,0.32083260000035807,1,42,test1,2,0.32127110000055836,-70.0
18,cyh,f,19,r,2,(121.76378772032346, -121.76378772032352),28,3,1,yes,x,5,m,0.8260221000000456,0,43,test1,2,0.8264053000002605,-42.0
18,cyh,f,19,r,2,(121.76378772032349, 121.76378772032349),22,-25,14,yes,x,5,x,0.4101967999995395,1,44,test1,2,0.4103263999995761,-70.0
18,cyh,f,19,r,2,(172.20000000000002, 0.0),21,25,4,yes,x,5,x,0.38396450000072946,1,45,test1,2,0.3841312000004109,-20.0
18,cyh,f,19,r,2,(-121.76378772032348, 121.76378772032349),24,7,3,yes,x,5,x,0.45041979999950854,1,46,test1,2,0.45052300000043033,-38.0
18,cyh,f,19,r,2,(121.76378772032346, -121.76378772032352),28,-7,13,yes,x,5,x,0.8082053999996788,1,47,test1,2,0.8083635000002687,-52.0
18,cyh,f,19,r,2,(1.0544208940658713e-14, 172.20000000000002),23,-7,13,yes,x,5,x,0.4738908999997875,1,48,test1,2,0.4745511000000988,-52.0
18,cyh,f,19,r,2,(-121.76378772032348, 121.76378772032349),24,-3,11,no,m,6,m,1.1308886999995593,1,49,test1,2,1.131284100000812,-52.0
18,cyh,f,19,r,2,(121.76378772032346, -121.76378772032352),28,5,2,yes,x,5,x,0.8013565999999628,1,50,test1,2,0.8015850000001592,-40.0
18,cyh,f,19,r,2,(1.0544208940658713e-14, 172.20000000000002),23,-7,13,no,m,6,m,1.2361225000004197,1,51,test1,2,1.2364553000006708,-40.0
18,cyh,f,19,r,2,(172.20000000000002, 0.0),21,3,1,yes,x,5,x,0.6122958999994808,1,52,test1,2,0.6124160999997912,-42.0
18,cyh,f,19,r,2,(-121.76378772032352, -121.76378772032348),26,3,1,no,m,6,m,0.8663163999999597,1,53,test1,2,0.8664382999995723,-42.0
18,cyh,f,19,r,2,(-172.20000000000002, 2.1088417881317425e-14),25,25,4,yes,x,5,x,0.4639636000001701,1,54,test1,2,0.4640666000004785,-20.0
18,cyh,f,19,r,2,(-121.76378772032348, 121.76378772032349),24,3,1,yes,x,5,x,0.509311599999819,1,55,test1,2,0.509473799999796,-42.0
18,cyh,f,19,r,2,(1.0544208940658713e-14, 172.20000000000002),23,25,4,no,m,6,m,0.8964731000005486,1,56,test1,2,0.89679999999953,-42.0
18,cyh,f,19,r,2,(172.20000000000002, 0.0),21,-25,14,yes,x,5,x,0.4290531999995437,1,57,test1,2,0.42917409999972733,-70.0
18,cyh,f,19,r,2,(-172.20000000000002, 2.1088417881317425e-14),25,7,3,yes,x,5,x,0.4473606999999902,1,58,test1,2,0.4477798999996594,-38.0
18,cyh,f,19,r,2,(-3.163262682197613e-14, -172.20000000000002),27,3,1,yes,x,5,x,0.8933956999999282,1,59,test1,2,0.8935101000006398,-42.0
18,cyh,f,19,r,2,(-172.20000000000002, 2.1088417881317425e-14),25,-5,12,no,m,6,m,0.8824498999993011,1,60,test1,2,0.8826490000001286,-42.0
18,cyh,f,19,r,2,(-121.76378772032348, 121.76378772032349),24,-7,13,no,m,6,m,0.706588400000328,1,61,test1,2,0.7068774999997913,-42.0
18,cyh,f,19,r,2,(-121.76378772032348, 121.76378772032349),24,-25,14,yes,x,5,x,0.37167740000040794,1,62,test1,2,0.37226819999978034,-70.0
18,cyh,f,19,r,2,(172.20000000000002, 0.0),21,7,3,yes,x,5,m,0.6659640999996554,0,63,test1,2,0.6661970000004658,-38.0
18,cyh,f,19,r,2,(172.20000000000002, 0.0),21,-5,12,yes,x,5,x,0.49391620000005787,1,64,test1,2,0.49426469999980327,-50.0
18,cyh,f,19,r,2,(-3.163262682197613e-14, -172.20000000000002),27,-7,13,no,m,6,m,0.8195264000005409,1,65,test1,2,0.8196392999998352,-50.0
18,cyh,f,19,r,2,(1.0544208940658713e-14, 172.20000000000002),23,-5,12,yes,x,5,x,0.4657753000001321,1,66,test1,2,0.46590480000031675,-50.0
18,cyh,f,19,r,2,(-3.163262682197613e-14, -172.20000000000002),27,-5,12,no,m,6,m,0.729823500000748,1,67,test1,2,0.7300427000000127,-50.0
18,cyh,f,19,r,2,(-3.163262682197613e-14, -172.20000000000002),27,-5,12,yes,x,5,x,0.47079109999958746,1,68,test1,2,0.4712086999998064,-50.0
18,cyh,f,19,r,2,(-121.76378772032348, 121.76378772032349),24,3,1,no,m,6,m,1.0908908999999767,1,69,test1,2,1.091392299999825,-50.0
18,cyh,f,19,r,2,(121.76378772032346, -121.76378772032352),28,3,1,no,m,6,m,0.8294739000002664,1,70,test1,2,0.8296871000002284,-50.0
18,cyh,f,19,r,2,(-121.76378772032348, 121.76378772032349),24,-5,12,no,m,6,m,1.0484427000001233,1,71,test1,2,1.0485671999995247,-50.0
18,cyh,f,19,r,2,(121.76378772032349, 121.76378772032349),22,-25,14,no,m,6,m,1.1540515999995478,1,72,test1,2,1.1543558000003031,-50.0
18,cyh,f,19,r,2,(-3.163262682197613e-14, -172.20000000000002),27,-25,14,yes,x,5,x,0.4563874000004944,1,73,test1,2,0.4566180000001623,-70.0
18,cyh,f,19,r,2,(-3.163262682197613e-14, -172.20000000000002),27,25,4,yes,x,5,x,0.5483414999998786,1,74,test1,2,0.548623000000589,-20.0
18,cyh,f,19,r,2,(-121.76378772032348, 121.76378772032349),24,3,1,yes,x,5,x,0.5009208000001308,1,75,test1,2,0.5011751000001823,-42.0
18,cyh,f,19,r,2,(-121.76378772032352, -121.76378772032348),26,-3,11,no,m,6,m,0.9673197000001892,1,76,test1,2,0.9675340000003416,-42.0
18,cyh,f,19,r,2,(121.76378772032349, 121.76378772032349),22,-7,13,no,m,6,m,1.000974500000666,1,77,test1,2,1.0011242000000493,-42.0
18,cyh,f,19,r,2,(121.76378772032346, -121.76378772032352),28,7,3,yes,x,5,x,0.4906090000004042,1,78,test1,2,0.4907242999997834,-38.0
18,cyh,f,19,r,2,(172.20000000000002, 0.0),21,-7,13,no,m,6,m,0.6826547000000573,1,79,test1,2,0.682838300000185,-38.0
18,cyh,f,19,r,2,(-121.76378772032352, -121.76378772032348),26,3,1,yes,x,5,x,1.1217286000000968,1,80,test1,2,1.1221212999998897,-42.0
18,cyh,f,19,r,2,(-172.20000000000002, 2.1088417881317425e-14),25,-5,12,yes,x,5,x,0.518241499999931,1,81,test1,2,0.5185210999998162,-50.0
18,cyh,f,19,r,2,(1.0544208940658713e-14, 172.20000000000002),23,3,1,yes,x,5,x,0.6344373000001724,1,82,test1,2,0.6346493000000919,-42.0
18,cyh,f,19,r,2,(1.0544208940658713e-14, 172.20000000000002),23,5,2,yes,x,5,x,0.49485980000008567,1,83,test1,2,0.49521890000050917,-40.0
18,cyh,f,19,r,2,(121.76378772032346, -121.76378772032352),28,-25,14,no,m,6,m,1.1647388999999748,1,84,test1,2,1.1655534000001353,-40.0
18,cyh,f,19,r,2,(172.20000000000002, 0.0),21,5,2,yes,x,5,x,0.47660980000000563,1,85,test1,2,0.4767336000004434,-40.0
18,cyh,f,19,r,2,(-121.76378772032348, 121.76378772032349),24,5,2,yes,x,5,x,0.6049337000004016,1,86,test1,2,0.6052374999999302,-40.0
18,cyh,f,19,r,2,(-121.76378772032348, 121.76378772032349),24,25,4,yes,x,5,x,0.40024389999962295,1,87,test1,2,0.40037779999966006,-20.0
18,cyh,f,19,r,2,(-3.163262682197613e-14, -172.20000000000002),27,3,1,no,m,6,m,0.7341385999998238,1,88,test1,2,0.7343716000004861,-20.0
18,cyh,f,19,r,2,(-172.20000000000002, 2.1088417881317425e-14),25,7,3,yes,x,5,x,0.4367336000004798,1,89,test1,2,0.43687020000015764,-38.0
18,cyh,f,19,r,2,(-172.20000000000002, 2.1088417881317425e-14),25,-25,14,no,m,6,m,0.7432675999998537,1,90,test1,2,0.74342710000019,-38.0
18,cyh,f,19,r,2,(-172.20000000000002, 2.1088417881317425e-14),25,3,1,yes,x,5,x,0.4889131999998426,1,91,test1,2,0.4890869999999268,-42.0
18,cyh,f,19,r,2,(172.20000000000002, 0.0),21,-25,14,yes,x,5,x,0.4728886999992028,1,92,test1,2,0.4730120000003808,-70.0
18,cyh,f,19,r,2,(-3.163262682197613e-14, -172.20000000000002),27,-3,11,yes,x,5,x,1.090709699999934,1,93,test1,2,1.091102399999727,-48.0
18,cyh,f,19,r,2,(-121.76378772032348, 121.76378772032349),24,-5,12,yes,x,5,x,0.8518199000000095,1,94,test1,2,0.8519354000000021,-50.0
18,cyh,f,19,r,2,(-121.76378772032348, 121.76378772032349),24,7,3,yes,x,5,x,0.3826299000002109,1,95,test1,2,0.38282619999972667,-38.0
18,cyh,f,19,r,2,(-172.20000000000002, 2.1088417881317425e-14),25,25,4,yes,x,5,x,0.32893239999975776,1,96,test1,2,0.32910330000049726,-20.0
18,cyh,f,19,r,2,(-172.20000000000002, 2.1088417881317425e-14),25,5,2,no,m,6,m,0.6978265999996438,1,1,test2,2,0.6980653999999049,-20.0
18,cyh,f,19,r,2,(172.20000000000002, 0.0),21,-3,11,no,m,6,m,1.148838699999942,1,2,test2,2,1.1489398000003348,-20.0
18,cyh,f,19,r,2,(172.20000000000002, 0.0),21,3,1,yes,x,5,x,0.9510932000002867,1,3,test2,2,0.9514335000003484,-42.0
18,cyh,f,19,r,2,(172.20000000000002, 0.0),21,7,3,no,m,6,m,0.6275507999998808,1,4,test2,2,0.6276815000001079,-42.0
18,cyh,f,19,r,2,(-121.76378772032348, 121.76378772032349),24,-7,13,yes,x,5,x,0.4733483999998498,1,5,test2,2,0.4736306999993758,-52.0
18,cyh,f,19,r,2,(-121.76378772032352, -121.76378772032348),26,-5,12,yes,x,5,x,0.6262164999998276,1,6,test2,2,0.6263558000000558,-50.0
18,cyh,f,19,r,2,(1.0544208940658713e-14, 172.20000000000002),23,-7,13,yes,x,5,x,0.519345799999428,1,7,test2,2,0.5194415000005392,-52.0
18,cyh,f,19,r,2,(-121.76378772032352, -121.76378772032348),26,-3,11,yes,x,5,x,0.7153898999995363,1,8,test2,2,0.7156701999992947,-48.0
18,cyh,f,19,r,2,(1.0544208940658713e-14, 172.20000000000002),23,-5,12,no,m,6,m,0.6253819000003205,1,9,test2,2,0.6255628999997498,-48.0
18,cyh,f,19,r,2,(-3.163262682197613e-14, -172.20000000000002),27,-25,14,no,m,6,m,0.6549406999993153,1,10,test2,2,0.6551071000003503,-48.0
18,cyh,f,19,r,2,(121.76378772032349, 121.76378772032349),22,5,2,yes,x,5,x,0.5501321000001553,1,11,test2,2,0.5502587999999378,-40.0
18,cyh,f,19,r,2,(-3.163262682197613e-14, -172.20000000000002),27,7,3,no,m,6,m,0.6271021000002293,1,12,test2,2,0.6273128000002544,-40.0
18,cyh,f,19,r,2,(-121.76378772032352, -121.76378772032348),26,3,1,yes,x,5,x,0.6029435000000376,1,13,test2,2,0.6030774000000747,-42.0
18,cyh,f,19,r,2,(-172.20000000000002, 2.1088417881317425e-14),25,-7,13,yes,x,5,x,0.6257971000004545,1,14,test2,2,0.6259625000002416,-52.0
18,cyh,f,19,r,2,(172.20000000000002, 0.0),21,-5,12,yes,x,5,x,0.5096647000000303,1,15,test2,2,0.5098144999992655,-50.0
18,cyh,f,19,r,2,(121.76378772032349, 121.76378772032349),22,-7,13,yes,x,5,x,0.4589950999998109,1,16,test2,2,0.45931060000020807,-52.0
18,cyh,f,19,r,2,(121.76378772032349, 121.76378772032349),22,-25,14,yes,x,5,x,0.4133812999998554,1,17,test2,2,0.4140655000001061,-70.0
18,cyh,f,19,r,2,(-121.76378772032352, -121.76378772032348),26,5,2,yes,x,5,x,0.5041634999997768,1,18,test2,2,0.5046714999998585,-40.0
18,cyh,f,19,r,2,(-3.163262682197613e-14, -172.20000000000002),27,-7,13,yes,x,5,x,0.4163314999996146,1,19,test2,2,0.4166819000001851,-52.0
18,cyh,f,19,r,2,(-3.163262682197613e-14, -172.20000000000002),27,5,2,yes,x,5,x,0.533585199999834,1,20,test2,2,0.5337553999997908,-40.0
18,cyh,f,19,r,2,(-121.76378772032352, -121.76378772032348),26,7,3,yes,x,5,x,0.377640199999405,1,21,test2,2,0.3780562000001737,-38.0
18,cyh,f,19,r,2,(-121.76378772032352, -121.76378772032348),26,-25,14,no,m,6,m,1.407939699999588,1,22,test2,2,1.4080429999994521,-38.0
18,cyh,f,19,r,2,(121.76378772032346, -121.76378772032352),28,-25,14,yes,x,5,x,0.41968589999942196,1,23,test2,2,0.4197818000002371,-70.0
18,cyh,f,19,r,2,(121.76378772032346, -121.76378772032352),28,-7,13,no,m,6,m,0.7742957999998907,1,24,test2,2,0.7746043999995891,-70.0
18,cyh,f,19,r,2,(121.76378772032349, 121.76378772032349),22,25,4,yes,x,5,x,0.4209508999992977,1,25,test2,2,0.421053000000029,-20.0
18,cyh,f,19,r,2,(121.76378772032346, -121.76378772032352),28,-3,11,yes,x,5,x,0.9302862000004097,1,26,test2,2,0.9303870000003371,-48.0
18,cyh,f,19,r,2,(-121.76378772032352, -121.76378772032348),26,-3,11,yes,x,5,x,1.0605721000001722,1,27,test2,2,1.060674100000142,-48.0
18,cyh,f,19,r,2,(-172.20000000000002, 2.1088417881317425e-14),25,3,1,yes,x,5,x,1.5093925999999556,1,28,test2,2,1.509495500000412,-42.0
18,cyh,f,19,r,2,(121.76378772032349, 121.76378772032349),22,-7,13,yes,x,5,x,0.5055858000005173,1,29,test2,2,0.5057175000001735,-52.0
18,cyh,f,19,r,2,(-3.163262682197613e-14, -172.20000000000002),27,25,4,no,m,6,m,0.6490235000001121,1,30,test2,2,0.6491605999999592,-52.0
18,cyh,f,19,r,2,(172.20000000000002, 0.0),21,3,1,no,m,6,m,0.7914534000001368,1,31,test2,2,0.7916748999996344,-52.0
18,cyh,f,19,r,2,(-3.163262682197613e-14, -172.20000000000002),27,5,2,no,m,6,m,0.6165843999997378,1,32,test2,2,0.6168152999998711,-52.0
18,cyh,f,19,r,2,(1.0544208940658713e-14, 172.20000000000002),23,-5,12,yes,x,5,x,0.5029371000000538,1,33,test2,2,0.5030429999997068,-50.0
18,cyh,f,19,r,2,(1.0544208940658713e-14, 172.20000000000002),23,7,3,no,m,6,m,1.2127108000004228,1,34,test2,2,1.212934000000132,-50.0
18,cyh,f,19,r,2,(-172.20000000000002, 2.1088417881317425e-14),25,3,1,no,m,6,m,0.6914329999999609,1,35,test2,2,0.691600500000277,-50.0
18,cyh,f,19,r,2,(-121.76378772032348, 121.76378772032349),24,25,4,yes,x,5,x,0.4715862000002744,1,36,test2,2,0.4719971999993504,-20.0
18,cyh,f,19,r,2,(1.0544208940658713e-14, 172.20000000000002),23,5,2,yes,x,5,x,0.629194500000267,1,37,test2,2,0.6293541000004552,-40.0
18,cyh,f,19,r,2,(1.0544208940658713e-14, 172.20000000000002),23,7,3,yes,x,5,x,0.45121349999953964,1,38,test2,2,0.4513889999998355,-38.0
18,cyh,f,19,r,2,(-121.76378772032352, -121.76378772032348),26,25,4,yes,x,5,x,0.4796640999993542,1,39,test2,2,0.479779199999939,-20.0
18,cyh,f,19,r,2,(121.76378772032349, 121.76378772032349),22,-3,11,yes,x,5,x,0.8815618999997241,1,40,test2,2,0.8819061000003785,-48.0
18,cyh,f,19,r,2,(-121.76378772032352, -121.76378772032348),26,-7,13,no,m,6,m,1.1922046999998201,1,41,test2,2,1.1923084999998537,-48.0
18,cyh,f,19,r,2,(172.20000000000002, 0.0),21,7,3,yes,x,5,x,0.4981637999999293,1,42,test2,2,0.4984095999998317,-38.0
18,cyh,f,19,r,2,(-3.163262682197613e-14, -172.20000000000002),27,-3,11,no,m,6,m,1.3073651000004247,1,43,test2,2,1.3075825000005352,-38.0
18,cyh,f,19,r,2,(-172.20000000000002, 2.1088417881317425e-14),25,7,3,no,m,6,m,1.1260989000002155,1,44,test2,2,1.1263411999998425,-38.0
18,cyh,f,19,r,2,(-3.163262682197613e-14, -172.20000000000002),27,-7,13,yes,x,5,x,0.478697600000487,1,45,test2,2,0.4788321000005453,-52.0
18,cyh,f,19,r,2,(172.20000000000002, 0.0),21,-7,13,yes,x,5,x,0.44380769999952463,1,46,test2,2,0.4440453000006528,-52.0
18,cyh,f,19,r,2,(-3.163262682197613e-14, -172.20000000000002),27,5,2,yes,x,5,x,0.4657791999998153,1,47,test2,2,0.46600690000013856,-40.0
18,cyh,f,19,r,2,(121.76378772032346, -121.76378772032352),28,-7,13,yes,x,5,x,0.522685700000693,1,48,test2,2,0.5228134999997565,-52.0
18,cyh,f,19,r,2,(1.0544208940658713e-14, 172.20000000000002),23,3,1,yes,x,5,x,0.8732581000003847,1,49,test2,2,0.8733833999995113,-42.0
18,cyh,f,19,r,2,(1.0544208940658713e-14, 172.20000000000002),23,-3,11,no,m,6,m,0.8431262000003699,1,50,test2,2,0.8432278999998744,-42.0
18,cyh,f,19,r,2,(-121.76378772032348, 121.76378772032349),24,7,3,no,m,6,m,1.0831622000005154,1,51,test2,2,1.0834045000001424,-42.0
18,cyh,f,19,r,2,(-3.163262682197613e-14, -172.20000000000002),27,3,1,yes,x,5,x,0.7957303000002867,1,52,test2,2,0.7958634000005986,-42.0
18,cyh,f,19,r,2,(-172.20000000000002, 2.1088417881317425e-14),25,5,2,yes,x,5,x,0.8039585999995325,1,53,test2,2,0.8042986000000383,-40.0
18,cyh,f,19,r,2,(121.76378772032346, -121.76378772032352),28,-5,12,yes,x,5,x,0.7747692000002644,1,54,test2,2,0.7748699000003398,-50.0
18,cyh,f,19,r,2,(121.76378772032346, -121.76378772032352),28,7,3,yes,x,5,x,0.3917664999999033,1,55,test2,2,0.3921193999995012,-38.0
18,cyh,f,19,r,2,(121.76378772032349, 121.76378772032349),22,-3,11,yes,x,5,x,1.0384765999997398,1,56,test2,2,1.0388069999999061,-48.0
18,cyh,f,19,r,2,(-172.20000000000002, 2.1088417881317425e-14),25,-25,14,yes,x,5,x,0.45898490000035963,1,57,test2,2,0.4591015999994852,-70.0
18,cyh,f,19,r,2,(-3.163262682197613e-14, -172.20000000000002),27,25,4,yes,x,5,x,0.44679830000040965,1,58,test2,2,0.4469922999996925,-20.0
18,cyh,f,19,r,2,(1.0544208940658713e-14, 172.20000000000002),23,5,2,no,m,6,m,0.7904312999999092,1,59,test2,2,0.790652399999999,-20.0
18,cyh,f,19,r,2,(121.76378772032349, 121.76378772032349),22,7,3,no,m,6,m,0.9888397999993686,1,60,test2,2,0.9889932999994926,-20.0
18,cyh,f,19,r,2,(1.0544208940658713e-14, 172.20000000000002),23,25,4,yes,x,5,x,0.5133495000000039,1,61,test2,2,0.5135248999995383,-20.0
18,cyh,f,19,r,2,(-121.76378772032348, 121.76378772032349),24,-3,11,yes,x,5,x,0.6433468999994147,1,62,test2,2,0.6435817000001407,-48.0
18,cyh,f,19,r,2,(-121.76378772032352, -121.76378772032348),26,-5,12,yes,x,5,x,0.4917111000004297,1,63,test2,2,0.49197540000022855,-50.0
18,cyh,f,19,r,2,(121.76378772032349, 121.76378772032349),22,7,3,yes,x,5,x,0.4843441000002713,1,64,test2,2,0.48458519999985583,-38.0
18,cyh,f,19,r,2,(-172.20000000000002, 2.1088417881317425e-14),25,-3,11,no,m,6,m,0.9975580999998783,1,65,test2,2,0.9979674000005616,-38.0
18,cyh,f,19,r,2,(-3.163262682197613e-14, -172.20000000000002),27,-25,14,yes,x,5,x,0.4863063000002512,1,66,test2,2,0.48652429999947344,-70.0
18,cyh,f,19,r,2,(-121.76378772032348, 121.76378772032349),24,-3,11,yes,x,5,x,0.92598739999994,1,67,test2,2,0.926209100000051,-48.0
18,cyh,f,19,r,2,(121.76378772032349, 121.76378772032349),22,5,2,yes,x,5,x,0.5267413000001397,1,68,test2,2,0.5269186999994417,-40.0
18,cyh,f,19,r,2,(172.20000000000002, 0.0),21,25,4,no,m,6,m,0.6449508000005153,1,69,test2,2,0.6451673000001392,-40.0
18,cyh,f,19,r,2,(172.20000000000002, 0.0),21,25,4,yes,x,5,x,0.41076299999986077,1,70,test2,2,0.41086320000067644,-20.0
18,cyh,f,19,r,2,(-121.76378772032352, -121.76378772032348),26,-7,13,yes,x,5,x,0.4765901999999187,1,71,test2,2,0.47669070000029024,-52.0
18,cyh,f,19,r,2,(1.0544208940658713e-14, 172.20000000000002),23,7,3,yes,x,5,x,0.5203034999994998,1,72,test2,2,0.520404700000654,-38.0
18,cyh,f,19,r,2,(-121.76378772032352, -121.76378772032348),26,25,4,no,m,6,m,0.8505499000002601,1,73,test2,2,0.8506793999995352,-38.0
18,cyh,f,19,r,2,(-3.163262682197613e-14, -172.20000000000002),27,-3,11,yes,x,5,x,1.131541599999764,1,74,test2,2,1.1319624000007025,-48.0
18,cyh,f,19,r,2,(121.76378772032346, -121.76378772032352),28,25,4,no,m,6,m,0.7395946999995431,1,75,test2,2,0.7399826999999277,-48.0
18,cyh,f,19,r,2,(1.0544208940658713e-14, 172.20000000000002),23,-25,14,yes,x,5,x,0.4672355000002426,1,76,test2,2,0.4679239000006419,-70.0
18,cyh,f,19,r,2,(-121.76378772032348, 121.76378772032349),24,-7,13,yes,x,5,x,0.4165534999992815,1,77,test2,2,0.4167624000001524,-52.0
18,cyh,f,19,r,2,(121.76378772032346, -121.76378772032352),28,25,4,yes,x,5,x,0.4276040999993711,1,78,test2,2,0.4277179000000615,-20.0
18,cyh,f,19,r,2,(-121.76378772032352, -121.76378772032348),26,-25,14,yes,x,5,x,0.43182210000031773,1,79,test2,2,0.4320751000004748,-70.0
18,cyh,f,19,r,2,(121.76378772032349, 121.76378772032349),22,25,4,yes,x,5,x,0.4143530000001192,1,80,test2,2,0.4144866999995429,-20.0
18,cyh,f,19,r,2,(121.76378772032346, -121.76378772032352),28,7,3,no,m,6,m,0.6963783999999578,1,81,test2,2,0.69706479999968,-20.0
18,cyh,f,19,r,2,(-121.76378772032348, 121.76378772032349),24,5,2,no,m,6,m,0.7174717999996574,1,82,test2,2,0.7178833999996641,-20.0
18,cyh,f,19,r,2,(-172.20000000000002, 2.1088417881317425e-14),25,-7,13,yes,x,5,x,0.5779363999999987,1,83,test2,2,0.5780425999992076,-52.0
18,cyh,f,19,r,2,(-121.76378772032352, -121.76378772032348),26,7,3,yes,x,5,x,0.4522483000000648,1,84,test2,2,0.45246790000055626,-38.0
18,cyh,f,19,r,2,(-121.76378772032352, -121.76378772032348),26,-7,13,yes,x,5,x,0.5556156000002375,1,85,test2,2,0.5559528000003411,-52.0
18,cyh,f,19,r,2,(-121.76378772032348, 121.76378772032349),24,-25,14,yes,x,5,x,0.42990459999964514,1,86,test2,2,0.43041420000008657,-70.0
18,cyh,f,19,r,2,(-121.76378772032348, 121.76378772032349),24,-25,14,no,m,6,m,0.9588623999998163,1,87,test2,2,0.9591073999999935,-70.0
18,cyh,f,19,r,2,(1.0544208940658713e-14, 172.20000000000002),23,-3,11,yes,x,5,m,0.6002436999997371,0,88,test2,2,0.600470000000314,-48.0
18,cyh,f,19,r,2,(121.76378772032349, 121.76378772032349),22,-5,12,yes,x,5,x,0.5062917000004745,1,89,test2,2,0.5064253000000463,-50.0
18,cyh,f,19,r,2,(1.0544208940658713e-14, 172.20000000000002),23,-3,11,yes,x,5,x,0.6521653999998307,1,90,test2,2,0.6522678000001179,-48.0
18,cyh,f,19,r,2,(121.76378772032349, 121.76378772032349),22,3,1,no,m,6,m,0.8099786000002496,1,91,test2,2,0.810159499999827,-48.0
18,cyh,f,19,r,2,(1.0544208940658713e-14, 172.20000000000002),23,-25,14,yes,x,5,x,0.3724859000003562,1,92,test2,2,0.37272249999932683,-70.0
18,cyh,f,19,r,2,(-121.76378772032352, -121.76378772032348),26,7,3,no,m,6,m,0.7280785000002652,1,93,test2,2,0.7284972999996171,-70.0
18,cyh,f,19,r,2,(172.20000000000002, 0.0),21,-25,14,no,m,6,m,0.7600437000000966,1,94,test2,2,0.7601464999997916,-70.0
18,cyh,f,19,r,2,(-172.20000000000002, 2.1088417881317425e-14),25,-7,13,no,m,6,m,0.8288296000000628,1,95,test2,2,0.8291968999992605,-70.0
18,cyh,f,19,r,2,(-172.20000000000002, 2.1088417881317425e-14),25,5,2,yes,x,5,x,1.1339174999993702,1,96,test2,2,1.1340166999998473,-40.0
18,cyh,f,19,r,2,(-3.163262682197613e-14, -172.20000000000002),27,7,3,yes,x,5,x,0.5948594999999841,1,1,test1,3,0.5949571000001015,-38.0
18,cyh,f,19,r,2,(172.20000000000002, 0.0),21,-3,11,yes,x,5,x,0.6698935000003985,1,2,test1,3,0.6699939000000086,-48.0
18,cyh,f,19,r,2,(-121.76378772032352, -121.76378772032348),26,-5,12,no,m,6,x,1.1343910000005053,0,3,test1,3,1.134516899999653,-48.0
18,cyh,f,19,r,2,(-172.20000000000002, 2.1088417881317425e-14),25,-3,11,yes,x,5,x,1.0976885000000038,1,4,test1,3,1.097895900000367,-48.0
18,cyh,f,19,r,2,(-172.20000000000002, 2.1088417881317425e-14),25,-5,12,yes,x,5,x,0.6123607999998057,1,5,test1,3,0.6124620000000505,-50.0
18,cyh,f,19,r,2,(-172.20000000000002, 2.1088417881317425e-14),25,25,4,no,m,6,m,0.8802840999996988,1,6,test1,3,0.8803829999997106,-50.0
18,cyh,f,19,r,2,(1.0544208940658713e-14, 172.20000000000002),23,25,4,yes,x,5,x,0.5077446999994208,1,7,test1,3,0.5078939000004539,-20.0
18,cyh,f,19,r,2,(-121.76378772032352, -121.76378772032348),26,25,4,yes,x,5,x,0.4378784000000451,1,8,test1,3,0.43824229999972886,-20.0
18,cyh,f,19,r,2,(121.76378772032346, -121.76378772032352),28,5,2,yes,x,5,x,0.551303199999893,1,9,test1,3,0.5515820000000531,-40.0
18,cyh,f,19,r,2,(172.20000000000002, 0.0),21,5,2,no,m,6,m,1.452482400000008,1,10,test1,3,1.4527287999999317,-40.0
18,cyh,f,19,r,2,(121.76378772032349, 121.76378772032349),22,7,3,yes,x,5,x,0.4934878000003664,1,11,test1,3,0.49411049999980605,-38.0
18,cyh,f,19,r,2,(-172.20000000000002, 2.1088417881317425e-14),25,-3,11,yes,x,5,m,0.7942002999998294,0,12,test1,3,0.7944217000003846,-48.0
18,cyh,f,19,r,2,(121.76378772032346, -121.76378772032352),28,-25,14,yes,x,5,x,0.45573890000014217,1,13,test1,3,0.45583389999956125,-70.0
18,cyh,f,19,r,2,(121.76378772032346, -121.76378772032352),28,-5,12,no,m,6,m,1.2406218999994962,1,14,test1,3,1.2410131000006004,-70.0
18,cyh,f,19,r,2,(121.76378772032346, -121.76378772032352),28,-3,11,yes,x,5,x,0.8993712999999843,1,15,test1,3,0.8999452000007295,-48.0
18,cyh,f,19,r,2,(-121.76378772032352, -121.76378772032348),26,-25,14,yes,x,5,x,0.4558274999999412,1,16,test1,3,0.4562004999997953,-70.0
18,cyh,f,19,r,2,(1.0544208940658713e-14, 172.20000000000002),23,3,1,no,m,6,m,1.1649969000000056,1,17,test1,3,1.1654257999998663,-70.0
18,cyh,f,19,r,2,(121.76378772032346, -121.76378772032352),28,25,4,yes,x,5,x,0.4204528999998729,1,18,test1,3,0.4210235000000466,-20.0
18,cyh,f,19,r,2,(-121.76378772032348, 121.76378772032349),24,5,2,yes,x,5,x,0.7297519000003376,1,19,test1,3,0.7299216000001252,-40.0
18,cyh,f,19,r,2,(121.76378772032349, 121.76378772032349),22,-3,11,no,m,6,m,1.253879799999595,1,20,test1,3,1.254043300000376,-40.0
18,cyh,f,19,r,2,(-3.163262682197613e-14, -172.20000000000002),27,-5,12,yes,x,5,x,0.6456917000004978,1,21,test1,3,0.6458543999997346,-50.0
18,cyh,f,19,r,2,(-121.76378772032352, -121.76378772032348),26,5,2,no,m,6,m,0.9355873999993491,1,22,test1,3,0.9357976000001145,-50.0
18,cyh,f,19,r,2,(121.76378772032349, 121.76378772032349),22,5,2,no,m,6,m,0.7442432999996527,1,23,test1,3,0.7446779000001698,-50.0
18,cyh,f,19,r,2,(1.0544208940658713e-14, 172.20000000000002),23,-25,14,no,m,6,m,1.2374969000002238,1,24,test1,3,1.237724800000251,-50.0
18,cyh,f,19,r,2,(172.20000000000002, 0.0),21,-3,11,yes,x,5,x,0.9384995999998864,1,25,test1,3,0.9386317000007693,-48.0
18,cyh,f,19,r,2,(172.20000000000002, 0.0),21,-5,12,no,m,6,m,0.712623800000074,1,26,test1,3,0.7127227000000858,-48.0
18,cyh,f,19,r,2,(172.20000000000002, 0.0),21,5,2,yes,x,5,x,0.46513320000030944,1,27,test1,3,0.46579409999958443,-40.0
18,cyh,f,19,r,2,(121.76378772032346, -121.76378772032352),28,3,1,yes,x,5,x,0.8065988999996989,1,28,test1,3,0.8067849999997634,-42.0
18,cyh,f,19,r,2,(121.76378772032346, -121.76378772032352),28,-5,12,yes,x,5,x,0.7896211000006588,1,29,test1,3,0.7899010000000999,-50.0
18,cyh,f,19,r,2,(121.76378772032349, 121.76378772032349),22,25,4,no,m,6,m,1.1410780000005616,1,30,test1,3,1.1411945999998352,-50.0
18,cyh,f,19,r,2,(121.76378772032349, 121.76378772032349),22,3,1,yes,x,5,x,0.876846199999818,1,31,test1,3,0.8769628000000012,-42.0
18,cyh,f,19,r,2,(121.76378772032346, -121.76378772032352),28,-3,11,no,m,6,m,0.85242449999987,1,32,test1,3,0.8525495000003502,-42.0
18,cyh,f,19,r,2,(121.76378772032349, 121.76378772032349),22,-5,12,yes,x,5,x,0.6770767999996679,1,33,test1,3,0.6773272000000361,-50.0
18,cyh,f,19,r,2,(121.76378772032346, -121.76378772032352),28,5,2,no,m,6,m,0.8748046000000613,1,34,test1,3,0.8749494000003324,-50.0
18,cyh,f,19,r,2,(121.76378772032349, 121.76378772032349),22,3,1,yes,x,5,m,0.7622188000004826,0,35,test1,3,0.7624535000004471,-42.0
18,cyh,f,19,r,2,(-121.76378772032352, -121.76378772032348),26,5,2,yes,x,5,x,0.5888440999997329,1,36,test1,3,0.5891997999997329,-40.0
18,cyh,f,19,r,2,(-121.76378772032348, 121.76378772032349),24,-5,12,yes,x,5,x,0.5726795999999013,1,37,test1,3,0.572942900000271,-50.0
18,cyh,f,19,r,2,(-121.76378772032348, 121.76378772032349),24,25,4,no,m,6,x,1.0482599000006303,0,38,test1,3,1.048478000000614,-50.0
18,cyh,f,19,r,2,(121.76378772032349, 121.76378772032349),22,-5,12,no,m,6,m,1.0074723999996422,1,39,test1,3,1.0077571000001626,-50.0
18,cyh,f,19,r,2,(172.20000000000002, 0.0),21,-7,13,yes,x,5,x,0.49383169999964593,1,40,test1,3,0.49393789999976434,-52.0
18,cyh,f,19,r,2,(-3.163262682197613e-14, -172.20000000000002),27,7,3,yes,x,5,x,0.5047432999999728,1,41,test1,3,0.5050696999996944,-38.0
18,cyh,f,19,r,2,(-172.20000000000002, 2.1088417881317425e-14),25,-25,14,yes,x,5,x,0.4132255999993504,1,42,test1,3,0.4134205000000293,-70.0
18,cyh,f,19,r,2,(121.76378772032346, -121.76378772032352),28,3,1,yes,x,5,x,0.8594466000004104,1,43,test1,3,0.8597463999994943,-42.0
18,cyh,f,19,r,2,(121.76378772032349, 121.76378772032349),22,-25,14,yes,x,5,x,0.38883329999953276,1,44,test1,3,0.3891867000002094,-70.0
18,cyh,f,19,r,2,(172.20000000000002, 0.0),21,25,4,yes,x,5,x,0.4080095999997866,1,45,test1,3,0.40810899999996764,-20.0
18,cyh,f,19,r,2,(-121.76378772032348, 121.76378772032349),24,7,3,yes,x,5,x,0.38301700000010896,1,46,test1,3,0.3831497000001036,-38.0
18,cyh,f,19,r,2,(121.76378772032346, -121.76378772032352),28,-7,13,yes,x,5,x,0.8059365000008256,1,47,test1,3,0.8062964000000648,-52.0
18,cyh,f,19,r,2,(1.0544208940658713e-14, 172.20000000000002),23,-7,13,yes,x,5,x,0.4641118000008646,1,48,test1,3,0.46424730000035197,-52.0
18,cyh,f,19,r,2,(-121.76378772032348, 121.76378772032349),24,-3,11,no,m,6,m,1.2381278000002567,1,49,test1,3,1.2386567000003197,-52.0
18,cyh,f,19,r,2,(121.76378772032346, -121.76378772032352),28,5,2,yes,x,5,x,1.0819429000002856,1,50,test1,3,1.0820970999993733,-40.0
18,cyh,f,19,r,2,(1.0544208940658713e-14, 172.20000000000002),23,-7,13,no,m,6,m,1.1356931000000259,1,51,test1,3,1.1358195000002524,-40.0
18,cyh,f,19,r,2,(172.20000000000002, 0.0),21,3,1,yes,x,5,x,0.5956583999995928,1,52,test1,3,0.5958823999999368,-42.0
18,cyh,f,19,r,2,(-121.76378772032352, -121.76378772032348),26,3,1,no,m,6,m,0.679802099999506,1,53,test1,3,0.6802947000005588,-42.0
18,cyh,f,19,r,2,(-172.20000000000002, 2.1088417881317425e-14),25,25,4,yes,x,5,x,0.43731879999995726,1,54,test1,3,0.4374182000001383,-20.0
18,cyh,f,19,r,2,(-121.76378772032348, 121.76378772032349),24,3,1,yes,x,5,x,1.0277937000000748,1,55,test1,3,1.028070000000298,-42.0
18,cyh,f,19,r,2,(1.0544208940658713e-14, 172.20000000000002),23,25,4,no,m,6,m,1.7223850000000311,1,56,test1,3,1.7228617999999187,-42.0
18,cyh,f,19,r,2,(172.20000000000002, 0.0),21,-25,14,yes,x,5,x,0.47623209999983374,1,57,test1,3,0.47639819999949395,-70.0
18,cyh,f,19,r,2,(-172.20000000000002, 2.1088417881317425e-14),25,7,3,yes,x,5,x,0.5285422999995717,1,58,test1,3,0.5286575000000084,-38.0
18,cyh,f,19,r,2,(-3.163262682197613e-14, -172.20000000000002),27,3,1,yes,x,5,x,0.5105642999997144,1,59,test1,3,0.5106987999997727,-42.0
18,cyh,f,19,r,2,(-172.20000000000002, 2.1088417881317425e-14),25,-5,12,no,m,6,x,1.2353431999999884,0,60,test1,3,1.2355315999993763,-42.0
18,cyh,f,19,r,2,(-121.76378772032348, 121.76378772032349),24,-7,13,no,m,6,m,1.503256500000134,1,61,test1,3,1.5033601000004637,-42.0
18,cyh,f,19,r,2,(-121.76378772032348, 121.76378772032349),24,-25,14,yes,x,5,x,0.38753579999956855,1,62,test1,3,0.38767709999956423,-70.0
18,cyh,f,19,r,2,(172.20000000000002, 0.0),21,7,3,yes,x,5,x,0.5222813999998834,1,63,test1,3,0.5223864999998113,-38.0
18,cyh,f,19,r,2,(172.20000000000002, 0.0),21,-5,12,yes,x,5,x,0.4675167000004876,1,64,test1,3,0.46790229999987787,-50.0
18,cyh,f,19,r,2,(-3.163262682197613e-14, -172.20000000000002),27,-7,13,no,m,6,m,1.6087533999998413,1,65,test1,3,1.6088867999997092,-50.0
18,cyh,f,19,r,2,(1.0544208940658713e-14, 172.20000000000002),23,-5,12,yes,x,5,x,0.6972482000001037,1,66,test1,3,0.6976283000003605,-50.0
18,cyh,f,19,r,2,(-3.163262682197613e-14, -172.20000000000002),27,-5,12,no,m,6,m,1.7199889000003168,1,67,test1,3,1.7201131000001624,-50.0
18,cyh,f,19,r,2,(-3.163262682197613e-14, -172.20000000000002),27,-5,12,yes,x,5,x,0.521463600000061,1,68,test1,3,0.5216989000000467,-50.0
18,cyh,f,19,r,2,(-121.76378772032348, 121.76378772032349),24,3,1,no,m,6,m,1.1021926000003077,1,69,test1,3,1.102398699999867,-50.0
18,cyh,f,19,r,2,(121.76378772032346, -121.76378772032352),28,3,1,no,m,6,m,1.3392551999995703,1,70,test1,3,1.3394588999999542,-50.0
18,cyh,f,19,r,2,(-121.76378772032348, 121.76378772032349),24,-5,12,no,m,6,m,0.7205364999999802,1,71,test1,3,0.7207558999998582,-50.0
18,cyh,f,19,r,2,(121.76378772032349, 121.76378772032349),22,-25,14,no,m,6,m,1.0663872999994055,1,72,test1,3,1.0667060999994646,-50.0
18,cyh,f,19,r,2,(-3.163262682197613e-14, -172.20000000000002),27,-25,14,yes,x,5,x,0.43460790000062843,1,73,test1,3,0.43524280000019644,-70.0
18,cyh,f,19,r,2,(-3.163262682197613e-14, -172.20000000000002),27,25,4,yes,x,5,x,0.46043790000021545,1,74,test1,3,0.46062939999956143,-20.0
18,cyh,f,19,r,2,(-121.76378772032348, 121.76378772032349),24,3,1,yes,x,5,x,0.7500870999992912,1,75,test1,3,0.7502496000006431,-42.0
18,cyh,f,19,r,2,(-121.76378772032352, -121.76378772032348),26,-3,11,no,m,6,m,0.8750944000003074,1,76,test1,3,0.8754355000000942,-42.0
18,cyh,f,19,r,2,(121.76378772032349, 121.76378772032349),22,-7,13,no,m,6,m,0.6807244999999966,1,77,test1,3,0.6811440000001312,-42.0
18,cyh,f,19,r,2,(121.76378772032346, -121.76378772032352),28,7,3,yes,x,5,x,0.7608172000000195,1,78,test1,3,0.7614028999996663,-38.0
18,cyh,f,19,r,2,(172.20000000000002, 0.0),21,-7,13,no,m,6,m,0.9008003999997527,1,79,test1,3,0.9009021000001667,-38.0
18,cyh,f,19,r,2,(-121.76378772032352, -121.76378772032348),26,3,1,yes,x,5,m,1.764894699999786,0,80,test1,3,1.7650166000003082,-42.0
18,cyh,f,19,r,2,(-172.20000000000002, 2.1088417881317425e-14),25,-5,12,yes,x,5,x,0.8372656000001371,1,81,test1,3,0.8373795999996219,-50.0
18,cyh,f,19,r,2,(1.0544208940658713e-14, 172.20000000000002),23,3,1,yes,x,5,x,0.8735065999999279,1,82,test1,3,0.8736053000002357,-42.0
18,cyh,f,19,r,2,(1.0544208940658713e-14, 172.20000000000002),23,5,2,yes,x,5,x,0.562528100000236,1,83,test1,3,0.5628187000002072,-40.0
18,cyh,f,19,r,2,(121.76378772032346, -121.76378772032352),28,-25,14,no,m,6,m,1.5320114999994985,1,84,test1,3,1.5323236999993242,-40.0
18,cyh,f,19,r,2,(172.20000000000002, 0.0),21,5,2,yes,x,5,x,0.49302589999933844,1,85,test1,3,0.4933272999996916,-40.0
18,cyh,f,19,r,2,(-121.76378772032348, 121.76378772032349),24,5,2,yes,x,5,x,0.5203620000002047,1,86,test1,3,0.5205194999998639,-40.0
18,cyh,f,19,r,2,(-121.76378772032348, 121.76378772032349),24,25,4,yes,x,5,x,0.3901077999998961,1,87,test1,3,0.39028400000006513,-20.0
18,cyh,f,19,r,2,(-3.163262682197613e-14, -172.20000000000002),27,3,1,no,m,6,m,1.3684283999991749,1,88,test1,3,1.3685583999995288,-20.0
18,cyh,f,19,r,2,(-172.20000000000002, 2.1088417881317425e-14),25,7,3,yes,x,5,x,0.5118554999999105,1,89,test1,3,0.5119938999996521,-38.0
18,cyh,f,19,r,2,(-172.20000000000002, 2.1088417881317425e-14),25,-25,14,no,m,6,m,1.0213273000008485,1,90,test1,3,1.0215541999996276,-38.0
18,cyh,f,19,r,2,(-172.20000000000002, 2.1088417881317425e-14),25,3,1,yes,x,5,x,0.5099188999993203,1,91,test1,3,0.5100802999995722,-42.0
18,cyh,f,19,r,2,(172.20000000000002, 0.0),21,-25,14,yes,x,5,x,0.4361343000000488,1,92,test1,3,0.4363890000004176,-70.0
18,cyh,f,19,r,2,(-3.163262682197613e-14, -172.20000000000002),27,-3,11,yes,x,5,x,0.9901092999998582,1,93,test1,3,0.9904350000006161,-48.0
18,cyh,f,19,r,2,(-121.76378772032348, 121.76378772032349),24,-5,12,yes,x,5,x,0.5016406000004281,1,94,test1,3,0.502030200000263,-50.0
18,cyh,f,19,r,2,(-121.76378772032348, 121.76378772032349),24,7,3,yes,x,5,x,0.3840883999992002,1,95,test1,3,0.3843336999998428,-38.0
18,cyh,f,19,r,2,(-172.20000000000002, 2.1088417881317425e-14),25,25,4,yes,x,5,x,0.46853829999963637,1,96,test1,3,0.46868090000043594,-20.0
18,cyh,f,19,r,2,(-172.20000000000002, 2.1088417881317425e-14),25,5,2,no,m,6,m,1.183408199999576,1,1,test2,3,1.183572599999934,-20.0
18,cyh,f,19,r,2,(172.20000000000002, 0.0),21,-3,11,no,m,6,m,1.4954185000005964,1,2,test2,3,1.4957775000002584,-20.0
18,cyh,f,19,r,2,(172.20000000000002, 0.0),21,3,1,yes,x,5,x,0.8374598000000333,1,3,test2,3,0.8376554999995278,-42.0
18,cyh,f,19,r,2,(172.20000000000002, 0.0),21,7,3,no,m,6,m,0.6629942999998093,1,4,test2,3,0.6631244000000152,-42.0
18,cyh,f,19,r,2,(-121.76378772032348, 121.76378772032349),24,-7,13,yes,x,5,x,0.47206479999931616,1,5,test2,3,0.47223830000075395,-52.0
18,cyh,f,19,r,2,(-121.76378772032352, -121.76378772032348),26,-5,12,yes,x,5,x,0.5596101999999519,1,6,test2,3,0.5597367999998824,-50.0
18,cyh,f,19,r,2,(1.0544208940658713e-14, 172.20000000000002),23,-7,13,yes,x,5,x,0.49593060000006517,1,7,test2,3,0.4960739999996804,-52.0
18,cyh,f,19,r,2,(-121.76378772032352, -121.76378772032348),26,-3,11,yes,x,5,x,0.7591929999998683,1,8,test2,3,0.759416599999895,-48.0
18,cyh,f,19,r,2,(1.0544208940658713e-14, 172.20000000000002),23,-5,12,no,m,6,m,1.4669376000001648,1,9,test2,3,1.4671076000004177,-48.0
18,cyh,f,19,r,2,(-3.163262682197613e-14, -172.20000000000002),27,-25,14,no,m,6,m,1.382846100000279,1,10,test2,3,1.3829932999997254,-48.0
18,cyh,f,19,r,2,(121.76378772032349, 121.76378772032349),22,5,2,yes,x,5,x,0.5195860000003449,1,11,test2,3,0.5198264999999083,-40.0
18,cyh,f,19,r,2,(-3.163262682197613e-14, -172.20000000000002),27,7,3,no,m,6,m,0.8297861000000921,1,12,test2,3,0.829902200000106,-40.0
18,cyh,f,19,r,2,(-121.76378772032352, -121.76378772032348),26,3,1,yes,x,5,x,0.9097693000003346,1,13,test2,3,0.9099145999998655,-42.0
18,cyh,f,19,r,2,(-172.20000000000002, 2.1088417881317425e-14),25,-7,13,yes,x,5,x,0.5301536999995733,1,14,test2,3,0.5304068000004918,-52.0
18,cyh,f,19,r,2,(172.20000000000002, 0.0),21,-5,12,yes,x,5,x,0.7535195999998905,1,15,test2,3,0.7536360000003697,-50.0
18,cyh,f,19,r,2,(121.76378772032349, 121.76378772032349),22,-7,13,yes,x,5,x,0.5038442999994004,1,16,test2,3,0.5039433000001736,-52.0
18,cyh,f,19,r,2,(121.76378772032349, 121.76378772032349),22,-25,14,yes,x,5,x,0.4541545000001861,1,17,test2,3,0.45449829999961366,-70.0
18,cyh,f,19,r,2,(-121.76378772032352, -121.76378772032348),26,5,2,yes,x,5,x,0.5862248999992516,1,18,test2,3,0.586755300000732,-40.0
18,cyh,f,19,r,2,(-3.163262682197613e-14, -172.20000000000002),27,-7,13,yes,x,5,x,0.5738045999996757,1,19,test2,3,0.5739386000004743,-52.0
18,cyh,f,19,r,2,(-3.163262682197613e-14, -172.20000000000002),27,5,2,yes,x,5,x,0.5798070999999254,1,20,test2,3,0.579907500000445,-40.0
18,cyh,f,19,r,2,(-121.76378772032352, -121.76378772032348),26,7,3,yes,x,5,x,0.4283368000005794,1,21,test2,3,0.4284680999999182,-38.0
18,cyh,f,19,r,2,(-121.76378772032352, -121.76378772032348),26,-25,14,no,m,6,m,1.1837621999993644,1,22,test2,3,1.1840798000002906,-38.0
18,cyh,f,19,r,2,(121.76378772032346, -121.76378772032352),28,-25,14,yes,x,5,x,0.5345219999999244,1,23,test2,3,0.5347616000008202,-70.0
18,cyh,f,19,r,2,(121.76378772032346, -121.76378772032352),28,-7,13,no,m,6,m,0.9386490999995658,1,24,test2,3,0.9387639999995372,-70.0
18,cyh,f,19,r,2,(121.76378772032349, 121.76378772032349),22,25,4,yes,x,5,x,0.40978530000029423,1,25,test2,3,0.4102255999996487,-20.0
18,cyh,f,19,r,2,(121.76378772032346, -121.76378772032352),28,-3,11,yes,x,5,x,0.9159514000002673,1,26,test2,3,0.9163602999997238,-48.0
18,cyh,f,19,r,2,(-121.76378772032352, -121.76378772032348),26,-3,11,yes,x,5,x,0.7020691999996416,1,27,test2,3,0.7022329000001264,-48.0
18,cyh,f,19,r,2,(-172.20000000000002, 2.1088417881317425e-14),25,3,1,yes,x,5,x,1.035390300000472,1,28,test2,3,1.0355235999995784,-42.0
18,cyh,f,19,r,2,(121.76378772032349, 121.76378772032349),22,-7,13,yes,x,5,x,0.5436337000001004,1,29,test2,3,0.543778299999758,-52.0
18,cyh,f,19,r,2,(-3.163262682197613e-14, -172.20000000000002),27,25,4,no,m,6,m,0.7517575000001671,1,30,test2,3,0.751859300000433,-52.0
18,cyh,f,19,r,2,(172.20000000000002, 0.0),21,3,1,no,m,6,m,0.9503025000003618,1,31,test2,3,0.9504320000005464,-52.0
18,cyh,f,19,r,2,(-3.163262682197613e-14, -172.20000000000002),27,5,2,no,m,6,m,0.8452298000001974,1,32,test2,3,0.8453635999994731,-52.0
18,cyh,f,19,r,2,(1.0544208940658713e-14, 172.20000000000002),23,-5,12,yes,x,5,x,0.5917875000004642,1,33,test2,3,0.592031300000599,-50.0
18,cyh,f,19,r,2,(1.0544208940658713e-14, 172.20000000000002),23,7,3,no,m,6,m,0.6474936000004163,1,34,test2,3,0.6477015000000392,-50.0
18,cyh,f,19,r,2,(-172.20000000000002, 2.1088417881317425e-14),25,3,1,no,m,6,m,1.2881913000001077,1,35,test2,3,1.2883457999996608,-50.0
18,cyh,f,19,r,2,(-121.76378772032348, 121.76378772032349),24,25,4,yes,x,5,x,0.4745001000001139,1,36,test2,3,0.47461639999983163,-20.0
18,cyh,f,19,r,2,(1.0544208940658713e-14, 172.20000000000002),23,5,2,yes,x,5,x,0.5818214999999327,1,37,test2,3,0.5819231999994372,-40.0
18,cyh,f,19,r,2,(1.0544208940658713e-14, 172.20000000000002),23,7,3,yes,x,5,x,0.42169560000002093,1,38,test2,3,0.422115099999246,-38.0
18,cyh,f,19,r,2,(-121.76378772032352, -121.76378772032348),26,25,4,yes,x,5,x,0.38874530000066443,1,39,test2,3,0.3888766999998552,-20.0
18,cyh,f,19,r,2,(121.76378772032349, 121.76378772032349),22,-3,11,yes,x,5,x,0.759644699999626,1,40,test2,3,0.75974959999985,-48.0
18,cyh,f,19,r,2,(-121.76378772032352, -121.76378772032348),26,-7,13,no,m,6,m,0.750005300000339,1,41,test2,3,0.7502518000001146,-48.0
18,cyh,f,19,r,2,(172.20000000000002, 0.0),21,7,3,yes,x,5,x,0.44835619999958,1,42,test2,3,0.4486025999995036,-38.0
18,cyh,f,19,r,2,(-3.163262682197613e-14, -172.20000000000002),27,-3,11,no,m,6,m,0.7790221000004749,1,43,test2,3,0.7793472999992446,-38.0
18,cyh,f,19,r,2,(-172.20000000000002, 2.1088417881317425e-14),25,7,3,no,m,6,m,0.9923850000004677,1,44,test2,3,0.9926269999996293,-38.0
18,cyh,f,19,r,2,(-3.163262682197613e-14, -172.20000000000002),27,-7,13,yes,x,5,x,0.45465539999986504,1,45,test2,3,0.4547873999999865,-52.0
18,cyh,f,19,r,2,(172.20000000000002, 0.0),21,-7,13,yes,x,5,x,0.4915559999999459,1,46,test2,3,0.4918675999997504,-52.0
18,cyh,f,19,r,2,(-3.163262682197613e-14, -172.20000000000002),27,5,2,yes,x,5,x,0.48661230000016076,1,47,test2,3,0.4868482000001677,-40.0
18,cyh,f,19,r,2,(121.76378772032346, -121.76378772032352),28,-7,13,yes,x,5,x,0.44115400000009686,1,48,test2,3,0.4412894999995842,-52.0
18,cyh,f,19,r,2,(1.0544208940658713e-14, 172.20000000000002),23,3,1,yes,x,5,x,1.069451399999707,1,49,test2,3,1.0697442000000592,-42.0
18,cyh,f,19,r,2,(1.0544208940658713e-14, 172.20000000000002),23,-3,11,no,m,6,m,0.8905919999997423,1,50,test2,3,0.8908324000003631,-42.0
18,cyh,f,19,r,2,(-121.76378772032348, 121.76378772032349),24,7,3,no,m,6,m,1.1760466999994605,1,51,test2,3,1.176266399999804,-42.0
18,cyh,f,19,r,2,(-3.163262682197613e-14, -172.20000000000002),27,3,1,yes,x,5,x,0.9927482000002783,1,52,test2,3,0.9928800999996383,-42.0
18,cyh,f,19,r,2,(-172.20000000000002, 2.1088417881317425e-14),25,5,2,yes,x,5,x,0.5557349000000613,1,53,test2,3,0.5558851000005234,-40.0
18,cyh,f,19,r,2,(121.76378772032346, -121.76378772032352),28,-5,12,yes,x,5,x,1.0771302000002834,1,54,test2,3,1.07747610000024,-50.0
18,cyh,f,19,r,2,(121.76378772032346, -121.76378772032352),28,7,3,yes,x,5,x,0.4831020999999964,1,55,test2,3,0.4832341000001179,-38.0
18,cyh,f,19,r,2,(121.76378772032349, 121.76378772032349),22,-3,11,yes,x,5,x,0.7575061000006826,1,56,test2,3,0.7578247000001284,-48.0
18,cyh,f,19,r,2,(-172.20000000000002, 2.1088417881317425e-14),25,-25,14,yes,x,5,x,0.38337790000059613,1,57,test2,3,0.3837962999996307,-70.0
18,cyh,f,19,r,2,(-3.163262682197613e-14, -172.20000000000002),27,25,4,yes,x,5,x,0.36760969999977533,1,58,test2,3,0.36777709999932995,-20.0
18,cyh,f,19,r,2,(1.0544208940658713e-14, 172.20000000000002),23,5,2,no,m,6,m,0.8645221000006131,1,59,test2,3,0.864704200000233,-20.0
18,cyh,f,19,r,2,(121.76378772032349, 121.76378772032349),22,7,3,no,m,6,m,1.0928242999998474,1,60,test2,3,1.0929519999999684,-20.0
18,cyh,f,19,r,2,(1.0544208940658713e-14, 172.20000000000002),23,25,4,yes,x,5,x,0.45876029999999446,1,61,test2,3,0.45904609999979584,-20.0
18,cyh,f,19,r,2,(-121.76378772032348, 121.76378772032349),24,-3,11,yes,x,5,x,0.8534214999999676,1,62,test2,3,0.8539155999997092,-48.0
18,cyh,f,19,r,2,(-121.76378772032352, -121.76378772032348),26,-5,12,yes,x,5,x,0.5289013999999952,1,63,test2,3,0.5290146000006644,-50.0
18,cyh,f,19,r,2,(121.76378772032349, 121.76378772032349),22,7,3,yes,x,5,x,0.5189847999999984,1,64,test2,3,0.5191420000001017,-38.0
18,cyh,f,19,r,2,(-172.20000000000002, 2.1088417881317425e-14),25,-3,11,no,m,6,m,0.7110352999998213,1,65,test2,3,0.7113389000005554,-38.0
18,cyh,f,19,r,2,(-3.163262682197613e-14, -172.20000000000002),27,-25,14,yes,x,5,x,0.45478730000013456,1,66,test2,3,0.45544559999962075,-70.0
18,cyh,f,19,r,2,(-121.76378772032348, 121.76378772032349),24,-3,11,yes,x,5,x,0.7361021999995501,1,67,test2,3,0.7362467000002653,-48.0
18,cyh,f,19,r,2,(121.76378772032349, 121.76378772032349),22,5,2,yes,x,5,x,0.5369268000004013,1,68,test2,3,0.5375948999999309,-40.0
18,cyh,f,19,r,2,(172.20000000000002, 0.0),21,25,4,no,m,6,m,1.1309633999999278,1,69,test2,3,1.1310623999997915,-40.0
18,cyh,f,19,r,2,(172.20000000000002, 0.0),21,25,4,yes,x,5,x,0.4563852000001134,1,70,test2,3,0.4565095999996629,-20.0
18,cyh,f,19,r,2,(-121.76378772032352, -121.76378772032348),26,-7,13,yes,x,5,x,0.46754129999953875,1,71,test2,3,0.4676720999996178,-52.0
18,cyh,f,19,r,2,(1.0544208940658713e-14, 172.20000000000002),23,7,3,yes,x,5,x,0.4912251000005199,1,72,test2,3,0.4913489999999001,-38.0
18,cyh,f,19,r,2,(-121.76378772032352, -121.76378772032348),26,25,4,no,m,6,m,0.7522895000001881,1,73,test2,3,0.7525642000000516,-38.0
18,cyh,f,19,r,2,(-3.163262682197613e-14, -172.20000000000002),27,-3,11,yes,x,5,x,0.44572730000072625,1,74,test2,3,0.44616600000063045,-48.0
18,cyh,f,19,r,2,(121.76378772032346, -121.76378772032352),28,25,4,no,m,6,m,0.9920878000002631,1,75,test2,3,0.992315100000269,-48.0
18,cyh,f,19,r,2,(1.0544208940658713e-14, 172.20000000000002),23,-25,14,yes,x,5,x,0.39327380000031553,1,76,test2,3,0.39361989999997604,-70.0
18,cyh,f,19,r,2,(-121.76378772032348, 121.76378772032349),24,-7,13,yes,x,5,x,0.41011019999950804,1,77,test2,3,0.4102085000004081,-52.0
18,cyh,f,19,r,2,(121.76378772032346, -121.76378772032352),28,25,4,yes,x,5,x,0.44492019999961485,1,78,test2,3,0.4451345000006768,-20.0
18,cyh,f,19,r,2,(-121.76378772032352, -121.76378772032348),26,-25,14,yes,x,5,x,0.4058701000003566,1,79,test2,3,0.40632149999964895,-70.0
18,cyh,f,19,r,2,(121.76378772032349, 121.76378772032349),22,25,4,yes,x,5,x,0.43213400000058755,1,80,test2,3,0.4322566000000734,-20.0
18,cyh,f,19,r,2,(121.76378772032346, -121.76378772032352),28,7,3,no,m,6,m,0.7335556999996697,1,81,test2,3,0.7338866000000053,-20.0
18,cyh,f,19,r,2,(-121.76378772032348, 121.76378772032349),24,5,2,no,m,6,m,0.6703725999996095,1,82,test2,3,0.6705936999996993,-20.0
18,cyh,f,19,r,2,(-172.20000000000002, 2.1088417881317425e-14),25,-7,13,yes,x,5,x,0.4394421999995757,1,83,test2,3,0.4396752999991804,-52.0
18,cyh,f,19,r,2,(-121.76378772032352, -121.76378772032348),26,7,3,yes,x,5,x,0.39920040000015433,1,84,test2,3,0.3995535000003656,-38.0
18,cyh,f,19,r,2,(-121.76378772032352, -121.76378772032348),26,-7,13,yes,x,5,x,0.39356859999952576,1,85,test2,3,0.39372630000070785,-52.0
18,cyh,f,19,r,2,(-121.76378772032348, 121.76378772032349),24,-25,14,yes,x,5,x,0.3751115999993999,1,86,test2,3,0.37536569999974745,-70.0
18,cyh,f,19,r,2,(-121.76378772032348, 121.76378772032349),24,-25,14,no,m,6,m,1.1919946999996682,1,87,test2,3,1.1921028000006118,-70.0
18,cyh,f,19,r,2,(1.0544208940658713e-14, 172.20000000000002),23,-3,11,yes,x,5,x,1.0625984999996945,1,88,test2,3,1.0627051000001302,-48.0
18,cyh,f,19,r,2,(121.76378772032349, 121.76378772032349),22,-5,12,yes,x,5,x,0.6282802999994601,1,89,test2,3,0.6285118999994666,-50.0
18,cyh,f,19,r,2,(1.0544208940658713e-14, 172.20000000000002),23,-3,11,yes,x,5,x,0.7129922000003717,1,90,test2,3,0.7133731000003536,-48.0
18,cyh,f,19,r,2,(121.76378772032349, 121.76378772032349),22,3,1,no,m,6,m,1.141734599999836,1,91,test2,3,1.1419310000001133,-48.0
18,cyh,f,19,r,2,(1.0544208940658713e-14, 172.20000000000002),23,-25,14,yes,x,5,x,0.37584140000035404,1,92,test2,3,0.3759624000003896,-70.0
18,cyh,f,19,r,2,(-121.76378772032352, -121.76378772032348),26,7,3,no,m,6,m,0.6758655999992698,1,93,test2,3,0.6761028999999326,-70.0
18,cyh,f,19,r,2,(172.20000000000002, 0.0),21,-25,14,no,m,6,m,1.1989770999998655,1,94,test2,3,1.1992302999997264,-70.0
18,cyh,f,19,r,2,(-172.20000000000002, 2.1088417881317425e-14),25,-7,13,no,m,6,m,0.9551467000001139,1,95,test2,3,0.9553992000001017,-70.0
18,cyh,f,19,r,2,(-172.20000000000002, 2.1088417881317425e-14),25,5,2,yes,x,5,x,0.6728771999996752,1,96,test2,3,0.6729818000003434,-40.0
18,cyh,f,19,r,2,(-3.163262682197613e-14, -172.20000000000002),27,7,3,yes,x,5,x,0.5737966000006054,1,1,test1,4,0.5738996000000043,-38.0
18,cyh,f,19,r,2,(172.20000000000002, 0.0),21,-3,11,yes,x,5,x,0.9416866999999911,1,2,test1,4,0.9420466999999917,-48.0
18,cyh,f,19,r,2,(-121.76378772032352, -121.76378772032348),26,-5,12,no,m,6,m,1.2096593000005669,1,3,test1,4,1.2098581999998714,-48.0
18,cyh,f,19,r,2,(-172.20000000000002, 2.1088417881317425e-14),25,-3,11,yes,x,5,x,1.060410399999455,1,4,test1,4,1.060511800000313,-48.0
18,cyh,f,19,r,2,(-172.20000000000002, 2.1088417881317425e-14),25,-5,12,yes,x,5,x,0.5509462999998505,1,5,test1,4,0.5512281999999686,-50.0
18,cyh,f,19,r,2,(-172.20000000000002, 2.1088417881317425e-14),25,25,4,no,m,6,m,0.8665963000003103,1,6,test1,4,0.8672227999995812,-50.0
18,cyh,f,19,r,2,(1.0544208940658713e-14, 172.20000000000002),23,25,4,yes,x,5,x,0.40487430000030145,1,7,test1,4,0.40511529999912455,-20.0
18,cyh,f,19,r,2,(-121.76378772032352, -121.76378772032348),26,25,4,yes,x,5,x,0.3864367999995011,1,8,test1,4,0.3865780000005543,-20.0
18,cyh,f,19,r,2,(121.76378772032346, -121.76378772032352),28,5,2,yes,x,5,x,0.518955300000016,1,9,test1,4,0.5191967999999179,-40.0
18,cyh,f,19,r,2,(172.20000000000002, 0.0),21,5,2,no,m,6,m,0.9254134000002523,1,10,test1,4,0.9256323999998131,-40.0
18,cyh,f,19,r,2,(121.76378772032349, 121.76378772032349),22,7,3,yes,x,5,x,0.46590420000029553,1,11,test1,4,0.46624900000006164,-38.0
18,cyh,f,19,r,2,(-172.20000000000002, 2.1088417881317425e-14),25,-3,11,yes,x,5,x,0.8255232999999862,1,12,test1,4,0.8259080999996513,-48.0
18,cyh,f,19,r,2,(121.76378772032346, -121.76378772032352),28,-25,14,yes,x,5,x,0.4287429999994856,1,13,test1,4,0.42898760000025504,-70.0
18,cyh,f,19,r,2,(121.76378772032346, -121.76378772032352),28,-5,12,no,m,6,m,0.9602156999999352,1,14,test1,4,0.9603159000007508,-70.0
18,cyh,f,19,r,2,(121.76378772032346, -121.76378772032352),28,-3,11,yes,x,5,x,1.0993711999999505,1,15,test1,4,1.0994851000004928,-48.0
18,cyh,f,19,r,2,(-121.76378772032352, -121.76378772032348),26,-25,14,yes,x,5,x,0.3969290999993973,1,16,test1,4,0.3970565000008719,-70.0
18,cyh,f,19,r,2,(1.0544208940658713e-14, 172.20000000000002),23,3,1,no,m,6,m,0.7934087000003274,1,17,test1,4,0.7935539999998582,-70.0
18,cyh,f,19,r,2,(121.76378772032346, -121.76378772032352),28,25,4,yes,x,5,m,0.6603549999999814,0,18,test1,4,0.660533199999918,-20.0
18,cyh,f,19,r,2,(-121.76378772032348, 121.76378772032349),24,5,2,yes,x,5,x,0.6752921999996033,1,19,test1,4,0.6754085000002306,-40.0
18,cyh,f,19,r,2,(121.76378772032349, 121.76378772032349),22,-3,11,no,m,6,m,0.8327282000000196,1,20,test1,4,0.833230299999741,-40.0
18,cyh,f,19,r,2,(-3.163262682197613e-14, -172.20000000000002),27,-5,12,yes,x,5,x,0.5158438999997088,1,21,test1,4,0.5159659999999349,-50.0
18,cyh,f,19,r,2,(-121.76378772032352, -121.76378772032348),26,5,2,no,m,6,m,1.014640800000052,1,22,test1,4,1.0147763999993913,-50.0
18,cyh,f,19,r,2,(121.76378772032349, 121.76378772032349),22,5,2,no,m,6,m,1.270378800000799,1,23,test1,4,1.2710711999998239,-50.0
18,cyh,f,19,r,2,(1.0544208940658713e-14, 172.20000000000002),23,-25,14,no,m,6,m,0.6965623999994932,1,24,test1,4,0.6968040000001565,-50.0
18,cyh,f,19,r,2,(172.20000000000002, 0.0),21,-3,11,yes,x,5,x,1.1446813000002294,1,25,test1,4,1.1451131000003443,-48.0
18,cyh,f,19,r,2,(172.20000000000002, 0.0),21,-5,12,no,m,6,m,0.7635082999995575,1,26,test1,4,0.7639781999996558,-48.0
18,cyh,f,19,r,2,(172.20000000000002, 0.0),21,5,2,yes,x,5,x,0.6360658000003241,1,27,test1,4,0.6366709000003539,-40.0
18,cyh,f,19,r,2,(121.76378772032346, -121.76378772032352),28,3,1,yes,x,5,x,0.9126307000005909,1,28,test1,4,0.9127459000001181,-42.0
18,cyh,f,19,r,2,(121.76378772032346, -121.76378772032352),28,-5,12,yes,x,5,x,0.697305800000322,1,29,test1,4,0.6974109999991924,-50.0
18,cyh,f,19,r,2,(121.76378772032349, 121.76378772032349),22,25,4,no,m,6,m,1.0471491999996942,1,30,test1,4,1.0474336000006588,-50.0
18,cyh,f,19,r,2,(121.76378772032349, 121.76378772032349),22,3,1,yes,x,5,x,0.6058500999997705,1,31,test1,4,0.6060452000001533,-42.0
18,cyh,f,19,r,2,(121.76378772032346, -121.76378772032352),28,-3,11,no,m,6,m,0.7151358000000982,1,32,test1,4,0.7154190999999628,-42.0
18,cyh,f,19,r,2,(121.76378772032349, 121.76378772032349),22,-5,12,yes,x,5,x,0.5718004000000292,1,33,test1,4,0.5719073999998727,-50.0
18,cyh,f,19,r,2,(121.76378772032346, -121.76378772032352),28,5,2,no,m,6,m,1.0962118999996164,1,34,test1,4,1.096452099999624,-50.0
18,cyh,f,19,r,2,(121.76378772032349, 121.76378772032349),22,3,1,yes,x,5,x,0.6691160999998829,1,35,test1,4,0.6693043000004764,-42.0
18,cyh,f,19,r,2,(-121.76378772032352, -121.76378772032348),26,5,2,yes,x,5,x,0.8697528000002421,1,36,test1,4,0.8698827999996865,-40.0
18,cyh,f,19,r,2,(-121.76378772032348, 121.76378772032349),24,-5,12,yes,x,5,x,0.5238369999997303,1,37,test1,4,0.5239417000002504,-50.0
18,cyh,f,19,r,2,(-121.76378772032348, 121.76378772032349),24,25,4,no,m,6,m,0.9748853999999483,1,38,test1,4,0.9752175000003263,-50.0
18,cyh,f,19,r,2,(121.76378772032349, 121.76378772032349),22,-5,12,no,m,6,m,0.8521675000001778,1,39,test1,4,0.85229900000013,-50.0
18,cyh,f,19,r,2,(172.20000000000002, 0.0),21,-7,13,yes,x,5,x,0.5291971000006015,1,40,test1,4,0.5294305999996141,-52.0
18,cyh,f,19,r,2,(-3.163262682197613e-14, -172.20000000000002),27,7,3,yes,x,5,x,0.4357577000000674,1,41,test1,4,0.4361607000000731,-38.0
18,cyh,f,19,r,2,(-172.20000000000002, 2.1088417881317425e-14),25,-25,14,yes,x,5,x,0.4876689000002443,1,42,test1,4,0.48797879999983707,-70.0
18,cyh,f,19,r,2,(121.76378772032346, -121.76378772032352),28,3,1,yes,x,5,x,1.4933336000003692,1,43,test1,4,1.4935543000001417,-42.0
18,cyh,f,19,r,2,(121.76378772032349, 121.76378772032349),22,-25,14,yes,x,5,x,0.6125298000006296,1,44,test1,4,0.6126541000003272,-70.0
18,cyh,f,19,r,2,(172.20000000000002, 0.0),21,25,4,yes,x,5,x,0.477867999999944,1,45,test1,4,0.47810070000014093,-20.0
18,cyh,f,19,r,2,(-121.76378772032348, 121.76378772032349),24,7,3,yes,x,5,x,0.4529257999993206,1,46,test1,4,0.45315859999936947,-38.0
18,cyh,f,19,r,2,(121.76378772032346, -121.76378772032352),28,-7,13,yes,x,5,x,0.5483040999997684,1,47,test1,4,0.5486087999997835,-52.0
18,cyh,f,19,r,2,(1.0544208940658713e-14, 172.20000000000002),23,-7,13,yes,x,5,x,0.48060139999961393,1,48,test1,4,0.48071600000002945,-52.0
18,cyh,f,19,r,2,(-121.76378772032348, 121.76378772032349),24,-3,11,no,m,6,m,1.4421221000002333,1,49,test1,4,1.4427217000002202,-52.0
18,cyh,f,19,r,2,(121.76378772032346, -121.76378772032352),28,5,2,yes,x,5,x,0.6583534999999756,1,50,test1,4,0.6584505999999237,-40.0
18,cyh,f,19,r,2,(1.0544208940658713e-14, 172.20000000000002),23,-7,13,no,m,6,m,1.0197668000000704,1,51,test1,4,1.0201755999996749,-40.0
18,cyh,f,19,r,2,(172.20000000000002, 0.0),21,3,1,yes,x,5,x,1.1676876999999877,1,52,test1,4,1.1680042000007234,-42.0
18,cyh,f,19,r,2,(-121.76378772032352, -121.76378772032348),26,3,1,no,m,6,m,0.9197568000008687,1,53,test1,4,0.9199440000002141,-42.0
18,cyh,f,19,r,2,(-172.20000000000002, 2.1088417881317425e-14),25,25,4,yes,x,5,x,0.4119024999999965,1,54,test1,4,0.41213560000051075,-20.0
18,cyh,f,19,r,2,(-121.76378772032348, 121.76378772032349),24,3,1,yes,x,5,m,0.7283933000007892,0,55,test1,4,0.7284983999998076,-42.0
18,cyh,f,19,r,2,(1.0544208940658713e-14, 172.20000000000002),23,25,4,no,m,6,m,0.7783877000001667,1,56,test1,4,0.7784906999995655,-42.0
18,cyh,f,19,r,2,(172.20000000000002, 0.0),21,-25,14,yes,x,5,x,0.472773600000437,1,57,test1,4,0.47286999999960244,-70.0
18,cyh,f,19,r,2,(-172.20000000000002, 2.1088417881317425e-14),25,7,3,yes,x,5,x,0.5275758999996469,1,58,test1,4,0.5277380000006815,-38.0
18,cyh,f,19,r,2,(-3.163262682197613e-14, -172.20000000000002),27,3,1,yes,x,5,x,0.8277028000002247,1,59,test1,4,0.8279261000006954,-42.0
18,cyh,f,19,r,2,(-172.20000000000002, 2.1088417881317425e-14),25,-5,12,no,m,6,m,0.824630199999774,1,60,test1,4,0.8247948999996879,-42.0
18,cyh,f,19,r,2,(-121.76378772032348, 121.76378772032349),24,-7,13,no,m,6,m,0.7712097000003268,1,61,test1,4,0.7713061999993442,-42.0
18,cyh,f,19,r,2,(-121.76378772032348, 121.76378772032349),24,-25,14,yes,x,5,x,0.40565390000028856,1,62,test1,4,0.4058684000001449,-70.0
18,cyh,f,19,r,2,(172.20000000000002, 0.0),21,7,3,yes,x,5,x,0.8638651000001119,1,63,test1,4,0.8640029999996841,-38.0
18,cyh,f,19,r,2,(172.20000000000002, 0.0),21,-5,12,yes,x,5,x,0.7942323999996006,1,64,test1,4,0.7943335999998453,-50.0
18,cyh,f,19,r,2,(-3.163262682197613e-14, -172.20000000000002),27,-7,13,no,m,6,m,0.8427208000002793,1,65,test1,4,0.8429297000002407,-50.0
18,cyh,f,19,r,2,(1.0544208940658713e-14, 172.20000000000002),23,-5,12,yes,x,5,m,0.8152572999997574,0,66,test1,4,0.8156139999991865,-50.0
18,cyh,f,19,r,2,(-3.163262682197613e-14, -172.20000000000002),27,-5,12,no,m,6,m,0.6811924000003273,1,67,test1,4,0.6814363000003141,-50.0
18,cyh,f,19,r,2,(-3.163262682197613e-14, -172.20000000000002),27,-5,12,yes,x,5,x,0.48479369999949995,1,68,test1,4,0.4849999999996726,-50.0
18,cyh,f,19,r,2,(-121.76378772032348, 121.76378772032349),24,3,1,no,m,6,m,0.5998534000000291,1,69,test1,4,0.5999857000006159,-50.0
18,cyh,f,19,r,2,(121.76378772032346, -121.76378772032352),28,3,1,no,m,6,m,0.7244410000002972,1,70,test1,4,0.7245400000001609,-50.0
18,cyh,f,19,r,2,(-121.76378772032348, 121.76378772032349),24,-5,12,no,m,6,m,0.6402359000003344,1,71,test1,4,0.6411717000000863,-50.0
18,cyh,f,19,r,2,(121.76378772032349, 121.76378772032349),22,-25,14,no,m,6,m,0.9522558000007848,1,72,test1,4,0.9523890999998912,-50.0
18,cyh,f,19,r,2,(-3.163262682197613e-14, -172.20000000000002),27,-25,14,yes,x,5,x,0.4438054000002012,1,73,test1,4,0.4441482000001997,-70.0
18,cyh,f,19,r,2,(-3.163262682197613e-14, -172.20000000000002),27,25,4,yes,x,5,x,0.4161091000005399,1,74,test1,4,0.41641530000015337,-20.0
18,cyh,f,19,r,2,(-121.76378772032348, 121.76378772032349),24,3,1,yes,x,5,x,0.9372062000002188,1,75,test1,4,0.9378778999998758,-42.0
18,cyh,f,19,r,2,(-121.76378772032352, -121.76378772032348),26,-3,11,no,m,6,m,0.8198330000004717,1,76,test1,4,0.8200390000001789,-42.0
18,cyh,f,19,r,2,(121.76378772032349, 121.76378772032349),22,-7,13,no,m,6,m,0.7515378999996756,1,77,test1,4,0.7519541000001482,-42.0
18,cyh,f,19,r,2,(121.76378772032346, -121.76378772032352),28,7,3,yes,x,5,x,0.47956840000006196,1,78,test1,4,0.47969929999999295,-38.0
18,cyh,f,19,r,2,(172.20000000000002, 0.0),21,-7,13,no,m,6,m,0.645531299999675,1,79,test1,4,0.6457304999994449,-38.0
18,cyh,f,19,r,2,(-121.76378772032352, -121.76378772032348),26,3,1,yes,x,5,m,0.8085721999996167,0,80,test1,4,0.808737000000292,-42.0
18,cyh,f,19,r,2,(-172.20000000000002, 2.1088417881317425e-14),25,-5,12,yes,x,5,x,0.7158106999995653,1,81,test1,4,0.7161302999993495,-50.0
18,cyh,f,19,r,2,(1.0544208940658713e-14, 172.20000000000002),23,3,1,yes,x,5,x,0.7705149000003075,1,82,test1,4,0.7706520000001547,-42.0
18,cyh,f,19,r,2,(1.0544208940658713e-14, 172.20000000000002),23,5,2,yes,x,5,x,0.6122019000004002,1,83,test1,4,0.6123617000002923,-40.0
18,cyh,f,19,r,2,(121.76378772032346, -121.76378772032352),28,-25,14,no,m,6,m,0.9956468000000314,1,84,test1,4,0.9957634000002145,-40.0
18,cyh,f,19,r,2,(172.20000000000002, 0.0),21,5,2,yes,x,5,x,0.5039419000004273,1,85,test1,4,0.5044393000007403,-40.0
18,cyh,f,19,r,2,(-121.76378772032348, 121.76378772032349),24,5,2,yes,x,5,x,0.523273099999642,1,86,test1,4,0.5233760000000984,-40.0
18,cyh,f,19,r,2,(-121.76378772032348, 121.76378772032349),24,25,4,yes,x,5,x,0.39468790000046283,1,87,test1,4,0.39487519999966025,-20.0
18,cyh,f,19,r,2,(-3.163262682197613e-14, -172.20000000000002),27,3,1,no,m,6,m,0.7172009999994771,1,88,test1,4,0.7173063000000184,-20.0
18,cyh,f,19,r,2,(-172.20000000000002, 2.1088417881317425e-14),25,7,3,yes,x,5,x,0.45412409999971715,1,89,test1,4,0.4544520999997985,-38.0
18,cyh,f,19,r,2,(-172.20000000000002, 2.1088417881317425e-14),25,-25,14,no,m,6,m,0.6719492000001992,1,90,test1,4,0.6720514999997249,-38.0
18,cyh,f,19,r,2,(-172.20000000000002, 2.1088417881317425e-14),25,3,1,yes,x,5,m,0.9753155999997034,0,91,test1,4,0.9754302999999709,-42.0
18,cyh,f,19,r,2,(172.20000000000002, 0.0),21,-25,14,yes,x,5,x,0.42023689999950875,1,92,test1,4,0.4204714999996213,-70.0
18,cyh,f,19,r,2,(-3.163262682197613e-14, -172.20000000000002),27,-3,11,yes,x,5,x,0.7141868999997314,1,93,test1,4,0.7145191999998133,-48.0
18,cyh,f,19,r,2,(-121.76378772032348, 121.76378772032349),24,-5,12,yes,x,5,x,0.5096118999999817,1,94,test1,4,0.5097812000003614,-50.0
18,cyh,f,19,r,2,(-121.76378772032348, 121.76378772032349),24,7,3,yes,x,5,x,0.46090670000012324,1,95,test1,4,0.461012099999607,-38.0
18,cyh,f,19,r,2,(-172.20000000000002, 2.1088417881317425e-14),25,25,4,yes,x,5,x,0.3905138000000079,1,96,test1,4,0.3906884000007267,-20.0
18,cyh,f,19,r,2,(-172.20000000000002, 2.1088417881317425e-14),25,5,2,no,m,6,m,0.7279213000001619,1,1,test2,4,0.7285842999999659,-20.0
18,cyh,f,19,r,2,(172.20000000000002, 0.0),21,-3,11,no,m,6,m,1.1786768000001757,1,2,test2,4,1.178953200000251,-20.0
18,cyh,f,19,r,2,(172.20000000000002, 0.0),21,3,1,yes,x,5,x,0.5598255000004428,1,3,test2,4,0.5600549000000683,-42.0
18,cyh,f,19,r,2,(172.20000000000002, 0.0),21,7,3,no,m,6,m,0.9347150000003239,1,4,test2,4,0.9350318999995579,-42.0
18,cyh,f,19,r,2,(-121.76378772032348, 121.76378772032349),24,-7,13,yes,x,5,x,0.529799500000081,1,5,test2,4,0.5299609000003329,-52.0
18,cyh,f,19,r,2,(-121.76378772032352, -121.76378772032348),26,-5,12,yes,x,5,x,0.52425729999959,1,6,test2,4,0.5243641999995816,-50.0
18,cyh,f,19,r,2,(1.0544208940658713e-14, 172.20000000000002),23,-7,13,yes,x,5,x,0.47730890000002546,1,7,test2,4,0.4778208999996423,-52.0
18,cyh,f,19,r,2,(-121.76378772032352, -121.76378772032348),26,-3,11,yes,x,5,x,0.7057568999998693,1,8,test2,4,0.7060217999996894,-48.0
18,cyh,f,19,r,2,(1.0544208940658713e-14, 172.20000000000002),23,-5,12,no,m,6,x,0.6590809999997873,0,9,test2,4,0.6591763000005813,-48.0
18,cyh,f,19,r,2,(-3.163262682197613e-14, -172.20000000000002),27,-25,14,no,m,6,m,0.7912335000000894,1,10,test2,4,0.7913565999997445,-48.0
18,cyh,f,19,r,2,(121.76378772032349, 121.76378772032349),22,5,2,yes,x,5,x,0.4558900000001813,1,11,test2,4,0.4559932000001936,-40.0
18,cyh,f,19,r,2,(-3.163262682197613e-14, -172.20000000000002),27,7,3,no,m,6,m,1.1811706999997114,1,12,test2,4,1.1817479999999705,-40.0
18,cyh,f,19,r,2,(-121.76378772032352, -121.76378772032348),26,3,1,yes,x,5,x,0.5576550000005227,1,13,test2,4,0.5578486999993402,-42.0
18,cyh,f,19,r,2,(-172.20000000000002, 2.1088417881317425e-14),25,-7,13,yes,x,5,x,0.5961598000003505,1,14,test2,4,0.596301499999754,-52.0
18,cyh,f,19,r,2,(172.20000000000002, 0.0),21,-5,12,yes,x,5,x,0.5448898999993617,1,15,test2,4,0.545100100000127,-50.0
18,cyh,f,19,r,2,(121.76378772032349, 121.76378772032349),22,-7,13,yes,x,5,x,0.4720908999997846,1,16,test2,4,0.4722324000003937,-52.0
18,cyh,f,19,r,2,(121.76378772032349, 121.76378772032349),22,-25,14,yes,x,5,x,0.6312037000006967,1,17,test2,4,0.6313067999999475,-70.0
18,cyh,f,19,r,2,(-121.76378772032352, -121.76378772032348),26,5,2,yes,x,5,x,0.4992328999996971,1,18,test2,4,0.49969720000080997,-40.0
18,cyh,f,19,r,2,(-3.163262682197613e-14, -172.20000000000002),27,-7,13,yes,x,5,x,0.508998000000247,1,19,test2,4,0.5092353999998522,-52.0
18,cyh,f,19,r,2,(-3.163262682197613e-14, -172.20000000000002),27,5,2,yes,x,5,x,0.4632519000006141,1,20,test2,4,0.4636270000000877,-40.0
18,cyh,f,19,r,2,(-121.76378772032352, -121.76378772032348),26,7,3,yes,x,5,x,0.4956950000005236,1,21,test2,4,0.495802299999923,-38.0
18,cyh,f,19,r,2,(-121.76378772032352, -121.76378772032348),26,-25,14,no,m,6,m,1.3637680000001637,1,22,test2,4,1.3640638999995645,-38.0
18,cyh,f,19,r,2,(121.76378772032346, -121.76378772032352),28,-25,14,yes,x,5,x,0.5630940999999439,1,23,test2,4,0.5633167000005415,-70.0
18,cyh,f,19,r,2,(121.76378772032346, -121.76378772032352),28,-7,13,no,m,6,m,0.7029511000000639,1,24,test2,4,0.7031237999999576,-70.0
18,cyh,f,19,r,2,(121.76378772032349, 121.76378772032349),22,25,4,yes,x,5,x,0.44531459999961953,1,25,test2,4,0.4454308000003948,-20.0
18,cyh,f,19,r,2,(121.76378772032346, -121.76378772032352),28,-3,11,yes,x,5,x,1.2165493000002243,1,26,test2,4,1.21674559999974,-48.0
18,cyh,f,19,r,2,(-121.76378772032352, -121.76378772032348),26,-3,11,yes,x,5,x,1.098113299999568,1,27,test2,4,1.0991751000001386,-48.0
18,cyh,f,19,r,2,(-172.20000000000002, 2.1088417881317425e-14),25,3,1,yes,x,5,x,1.2472357999995438,1,28,test2,4,1.2473508000002766,-42.0
18,cyh,f,19,r,2,(121.76378772032349, 121.76378772032349),22,-7,13,yes,x,5,x,0.49777909999920666,1,29,test2,4,0.4982473999998547,-52.0
18,cyh,f,19,r,2,(-3.163262682197613e-14, -172.20000000000002),27,25,4,no,m,6,m,1.4923988000000463,1,30,test2,4,1.4926003000000492,-52.0
18,cyh,f,19,r,2,(172.20000000000002, 0.0),21,3,1,no,m,6,m,0.7473540999999386,1,31,test2,4,0.7478140000002895,-52.0
18,cyh,f,19,r,2,(-3.163262682197613e-14, -172.20000000000002),27,5,2,no,m,6,m,1.1015456000004633,1,32,test2,4,1.1018379000006462,-52.0
18,cyh,f,19,r,2,(1.0544208940658713e-14, 172.20000000000002),23,-5,12,yes,x,5,x,0.7664782000001651,1,33,test2,4,0.7666518999994878,-50.0
18,cyh,f,19,r,2,(1.0544208940658713e-14, 172.20000000000002),23,7,3,no,m,6,m,0.7546122000003379,1,34,test2,4,0.7547260000001188,-50.0
18,cyh,f,19,r,2,(-172.20000000000002, 2.1088417881317425e-14),25,3,1,no,m,6,m,1.01014110000051,1,35,test2,4,1.0104731999999785,-50.0
18,cyh,f,19,r,2,(-121.76378772032348, 121.76378772032349),24,25,4,yes,x,5,x,0.535686799999894,1,36,test2,4,0.5363986000002114,-20.0
18,cyh,f,19,r,2,(1.0544208940658713e-14, 172.20000000000002),23,5,2,yes,x,5,x,0.5034562999999252,1,37,test2,4,0.5036509999999907,-40.0
18,cyh,f,19,r,2,(1.0544208940658713e-14, 172.20000000000002),23,7,3,yes,x,5,x,0.4390093000001798,1,38,test2,4,0.4392461999996158,-38.0
18,cyh,f,19,r,2,(-121.76378772032352, -121.76378772032348),26,25,4,yes,x,5,x,0.46467549999943003,1,39,test2,4,0.4652464000009786,-20.0
18,cyh,f,19,r,2,(121.76378772032349, 121.76378772032349),22,-3,11,yes,x,5,x,0.9899401999991824,1,40,test2,4,0.9901744999988296,-48.0
18,cyh,f,19,r,2,(-121.76378772032352, -121.76378772032348),26,-7,13,no,m,6,m,0.9195448999998916,1,41,test2,4,0.9201806000000943,-48.0
18,cyh,f,19,r,2,(172.20000000000002, 0.0),21,7,3,yes,x,5,x,0.5075426000003063,1,42,test2,4,0.5081970999999612,-38.0
18,cyh,f,19,r,2,(-3.163262682197613e-14, -172.20000000000002),27,-3,11,no,m,6,m,1.0505508999995072,1,43,test2,4,1.0507013000005827,-38.0
18,cyh,f,19,r,2,(-172.20000000000002, 2.1088417881317425e-14),25,7,3,no,m,6,m,1.139274999999543,1,44,test2,4,1.1397381000006135,-38.0
18,cyh,f,19,r,2,(-3.163262682197613e-14, -172.20000000000002),27,-7,13,yes,x,5,x,0.5456573000010394,1,45,test2,4,0.5462354000010237,-52.0
18,cyh,f,19,r,2,(172.20000000000002, 0.0),21,-7,13,yes,x,5,x,0.47079569999914384,1,46,test2,4,0.47089779999987513,-52.0
18,cyh,f,19,r,2,(-3.163262682197613e-14, -172.20000000000002),27,5,2,yes,x,5,x,0.5424648999996862,1,47,test2,4,0.5425816000006307,-40.0
18,cyh,f,19,r,2,(121.76378772032346, -121.76378772032352),28,-7,13,yes,x,5,x,0.5344635999990714,1,48,test2,4,0.5349397999998473,-52.0
18,cyh,f,19,r,2,(1.0544208940658713e-14, 172.20000000000002),23,3,1,yes,x,5,x,0.9970798000013019,1,49,test2,4,0.9976243000000977,-42.0
18,cyh,f,19,r,2,(1.0544208940658713e-14, 172.20000000000002),23,-3,11,no,m,6,m,1.4997540999993362,1,50,test2,4,1.500082399999883,-42.0
18,cyh,f,19,r,2,(-121.76378772032348, 121.76378772032349),24,7,3,no,m,6,m,1.011609099999987,1,51,test2,4,1.011716200000592,-42.0
18,cyh,f,19,r,2,(-3.163262682197613e-14, -172.20000000000002),27,3,1,yes,x,5,x,0.9490967000001547,1,52,test2,4,0.9492513999994117,-42.0
18,cyh,f,19,r,2,(-172.20000000000002, 2.1088417881317425e-14),25,5,2,yes,x,5,x,0.5493786999995791,1,53,test2,4,0.5498955000002752,-40.0
18,cyh,f,19,r,2,(121.76378772032346, -121.76378772032352),28,-5,12,yes,x,5,x,0.6135797999995702,1,54,test2,4,0.6138126999994711,-50.0
18,cyh,f,19,r,2,(121.76378772032346, -121.76378772032352),28,7,3,yes,x,5,x,0.46137720000115223,1,55,test2,4,0.4618491000001086,-38.0
18,cyh,f,19,r,2,(121.76378772032349, 121.76378772032349),22,-3,11,yes,x,5,x,1.122137100001055,1,56,test2,4,1.1223820000013802,-48.0
18,cyh,f,19,r,2,(-172.20000000000002, 2.1088417881317425e-14),25,-25,14,yes,x,5,x,0.414888900000733,1,57,test2,4,0.4149965999986307,-70.0
18,cyh,f,19,r,2,(-3.163262682197613e-14, -172.20000000000002),27,25,4,yes,x,5,x,0.4246029999994789,1,58,test2,4,0.4249383999995189,-20.0
18,cyh,f,19,r,2,(1.0544208940658713e-14, 172.20000000000002),23,5,2,no,m,6,m,1.270340600000054,1,59,test2,4,1.2707176000003528,-20.0
18,cyh,f,19,r,2,(121.76378772032349, 121.76378772032349),22,7,3,no,m,6,m,0.8457968000002438,1,60,test2,4,0.8461282999996911,-20.0
18,cyh,f,19,r,2,(1.0544208940658713e-14, 172.20000000000002),23,25,4,yes,x,5,x,0.47028400000090187,1,61,test2,4,0.47054599999864877,-20.0
18,cyh,f,19,r,2,(-121.76378772032348, 121.76378772032349),24,-3,11,yes,x,5,x,0.7101537999988068,1,62,test2,4,0.7103783000002295,-48.0
18,cyh,f,19,r,2,(-121.76378772032352, -121.76378772032348),26,-5,12,yes,x,5,x,0.5333056999988912,1,63,test2,4,0.533514799999466,-50.0
18,cyh,f,19,r,2,(121.76378772032349, 121.76378772032349),22,7,3,yes,x,5,x,0.468927400001121,1,64,test2,4,0.4690264000000752,-38.0
18,cyh,f,19,r,2,(-172.20000000000002, 2.1088417881317425e-14),25,-3,11,no,m,6,m,0.7647270999987086,1,65,test2,4,0.7648511999996117,-38.0
18,cyh,f,19,r,2,(-3.163262682197613e-14, -172.20000000000002),27,-25,14,yes,x,5,x,0.4139951999986806,1,66,test2,4,0.4146082999995997,-70.0
18,cyh,f,19,r,2,(-121.76378772032348, 121.76378772032349),24,-3,11,yes,x,5,x,0.7211905000003753,1,67,test2,4,0.7213874999997643,-48.0
18,cyh,f,19,r,2,(121.76378772032349, 121.76378772032349),22,5,2,yes,x,5,x,0.7171514999990904,1,68,test2,4,0.7173939000003884,-40.0
18,cyh,f,19,r,2,(172.20000000000002, 0.0),21,25,4,no,m,6,m,0.8717538000000786,1,69,test2,4,0.8720840999994834,-40.0
18,cyh,f,19,r,2,(172.20000000000002, 0.0),21,25,4,yes,x,5,x,0.5145161000000371,1,70,test2,4,0.5146483999997145,-20.0
18,cyh,f,19,r,2,(-121.76378772032352, -121.76378772032348),26,-7,13,yes,x,5,x,0.47671879999870725,1,71,test2,4,0.4770570000000589,-52.0
18,cyh,f,19,r,2,(1.0544208940658713e-14, 172.20000000000002),23,7,3,yes,x,5,x,0.44387900000037916,1,72,test2,4,0.4441255999990972,-38.0
18,cyh,f,19,r,2,(-121.76378772032352, -121.76378772032348),26,25,4,no,m,6,m,0.6968642000010732,1,73,test2,4,0.6970782999997027,-38.0
18,cyh,f,19,r,2,(-3.163262682197613e-14, -172.20000000000002),27,-3,11,yes,x,5,x,0.8553413999998156,1,74,test2,4,0.8554698999996617,-48.0
18,cyh,f,19,r,2,(121.76378772032346, -121.76378772032352),28,25,4,no,m,6,m,0.9633329999996931,1,75,test2,4,0.9637019000001601,-48.0
18,cyh,f,19,r,2,(1.0544208940658713e-14, 172.20000000000002),23,-25,14,yes,x,5,x,0.4234040000010282,1,76,test2,4,0.42359980000037467,-70.0
18,cyh,f,19,r,2,(-121.76378772032348, 121.76378772032349),24,-7,13,yes,x,5,x,0.5389897000004567,1,77,test2,4,0.5391256000002613,-52.0
