subj_id,subj_name,subj_gender ,subj_age,subj_handedness,subj_runNum,tar_l_x,tar_l_y,loc_code,tar_ori,tar_code,tar_pre ,cor_response,pre_code,subj_response,RT,correct,trial_num,type,bloc_num,dur, real_tar
19,cey,f,19,r,1,(-121.76378772032352, -121.76378772032348),26,-3,11,yes,x,5,None,None,0,1,prac,0,1.980108299991116,-48.0
19,cey,f,19,r,1,(172.20000000000002, 0.0),21,5,2,yes,x,5,m,0.7026520999788772,0,2,prac,0,0.7027781000069808,-40.0
19,cey,f,19,r,1,(121.76378772032346, -121.76378772032352),28,-5,12,yes,x,5,x,1.2987908000068273,1,3,prac,0,1.2988925000245217,-50.0
19,cey,f,19,r,1,(-121.76378772032348, 121.76378772032349),24,-25,14,yes,x,5,x,0.7607160000188742,1,4,prac,0,0.7608389999950305,-70.0
19,cey,f,19,r,1,(121.76378772032349, 121.76378772032349),22,-7,13,yes,x,5,x,0.6215924000134692,1,5,prac,0,0.6223287000029813,-52.0
19,cey,f,19,r,1,(121.76378772032346, -121.76378772032352),28,7,3,no,m,6,m,1.406938900006935,1,6,prac,0,1.4071802999824286,-52.0
19,cey,f,19,r,1,(121.76378772032349, 121.76378772032349),22,-25,14,no,m,6,m,1.3315542000054847,1,7,prac,0,1.3317778000200633,-52.0
19,cey,f,19,r,1,(-172.20000000000002, 2.1088417881317425e-14),25,-25,14,yes,x,5,x,0.7396022999892011,1,8,prac,0,0.739717299991753,-70.0
19,cey,f,19,r,1,(-3.163262682197613e-14, -172.20000000000002),27,3,1,yes,x,5,m,1.0842375000065658,0,9,prac,0,1.0844649999926332,-42.0
19,cey,f,19,r,1,(1.0544208940658713e-14, 172.20000000000002),23,5,2,no,m,6,m,1.2246823999739718,1,10,prac,0,1.2249806000036187,-42.0
19,cey,f,19,r,1,(-3.163262682197613e-14, -172.20000000000002),27,-5,12,yes,x,5,x,0.9780631000176072,1,11,prac,0,0.9782962999888696,-50.0
19,cey,f,19,r,1,(1.0544208940658713e-14, 172.20000000000002),23,-25,14,yes,x,5,x,0.6951587999938056,1,12,prac,0,0.6954013000067789,-70.0
19,cey,f,19,r,1,(121.76378772032346, -121.76378772032352),28,-5,12,yes,x,5,x,1.0738357999944128,1,13,prac,0,1.0740662999742199,-50.0
19,cey,f,19,r,1,(172.20000000000002, 0.0),21,3,1,yes,x,5,m,1.44323499998427,0,14,prac,0,1.4433688999852166,-42.0
19,cey,f,19,r,1,(121.76378772032346, -121.76378772032352),28,25,4,no,m,6,None,None,0,15,prac,0,1.9800823999976274,-42.0
19,cey,f,19,r,1,(1.0544208940658713e-14, 172.20000000000002),23,-25,14,yes,x,5,x,0.5273926999943797,1,16,prac,0,0.5276314000075217,-70.0
19,cey,f,19,r,1,(-121.76378772032348, 121.76378772032349),24,7,3,yes,x,5,x,0.8593783999967854,1,17,prac,0,0.8595978999801446,-38.0
19,cey,f,19,r,1,(-3.163262682197613e-14, -172.20000000000002),27,-7,13,yes,x,5,x,0.9353344999835826,1,18,prac,0,0.9357815000112168,-52.0
19,cey,f,19,r,1,(-121.76378772032352, -121.76378772032348),26,7,3,no,m,6,m,1.5999262999976054,1,19,prac,0,1.6001503000152297,-52.0
19,cey,f,19,r,1,(172.20000000000002, 0.0),21,5,2,yes,x,5,x,1.070375499984948,1,20,prac,0,1.0709608000179287,-40.0
19,cey,f,19,r,1,(-172.20000000000002, 2.1088417881317425e-14),25,-5,12,yes,x,5,x,1.1407614999916404,1,1,test1,1,1.141091099998448,-50.0
19,cey,f,19,r,1,(-121.76378772032348, 121.76378772032349),24,7,3,yes,x,5,x,0.6158291999890935,1,2,test1,1,0.616060500004096,-38.0
19,cey,f,19,r,1,(-172.20000000000002, 2.1088417881317425e-14),25,-25,14,yes,x,5,x,0.5899052000022493,1,3,test1,1,0.5904699999955483,-70.0
19,cey,f,19,r,1,(121.76378772032346, -121.76378772032352),28,7,3,yes,x,5,x,0.7173635000071954,1,4,test1,1,0.7174861000094097,-38.0
19,cey,f,19,r,1,(-121.76378772032352, -121.76378772032348),26,3,1,yes,x,5,m,0.983613599993987,0,5,test1,1,0.9839132000051904,-42.0
19,cey,f,19,r,1,(121.76378772032346, -121.76378772032352),28,-25,14,no,m,6,m,1.3389622000104282,1,6,test1,1,1.3391232000140008,-42.0
19,cey,f,19,r,1,(-121.76378772032348, 121.76378772032349),24,-25,14,yes,x,5,x,0.5234829999972135,1,7,test1,1,0.5236233999894466,-70.0
19,cey,f,19,r,1,(1.0544208940658713e-14, 172.20000000000002),23,3,1,yes,x,5,m,1.8729725999874063,0,8,test1,1,1.8730984999856446,-42.0
19,cey,f,19,r,1,(-172.20000000000002, 2.1088417881317425e-14),25,7,3,no,m,6,m,1.695294599980116,1,9,test1,1,1.6955697999801487,-42.0
19,cey,f,19,r,1,(-121.76378772032348, 121.76378772032349),24,5,2,no,m,6,None,None,0,10,test1,1,1.9800796000054106,-42.0
19,cey,f,19,r,1,(172.20000000000002, 0.0),21,25,4,yes,x,5,x,0.47437000001082197,1,11,test1,1,0.4745800000091549,-20.0
19,cey,f,19,r,1,(121.76378772032349, 121.76378772032349),22,-25,14,yes,x,5,x,0.4861773999873549,1,12,test1,1,0.4865208999835886,-70.0
19,cey,f,19,r,1,(121.76378772032346, -121.76378772032352),28,-25,14,yes,x,5,x,0.5661106000188738,1,13,test1,1,0.5662536000018008,-70.0
19,cey,f,19,r,1,(-121.76378772032352, -121.76378772032348),26,-3,11,yes,x,5,x,1.442005600023549,1,14,test1,1,1.4421701000246685,-48.0
19,cey,f,19,r,1,(-121.76378772032352, -121.76378772032348),26,-7,13,no,m,6,m,1.0431411000026856,1,15,test1,1,1.0433808999950998,-48.0
19,cey,f,19,r,1,(121.76378772032349, 121.76378772032349),22,-5,12,no,m,6,m,1.2177705999929458,1,16,test1,1,1.2179070000129286,-48.0
19,cey,f,19,r,1,(172.20000000000002, 0.0),21,-3,11,no,m,6,m,1.602875699987635,1,17,test1,1,1.6031152000068687,-48.0
19,cey,f,19,r,1,(121.76378772032346, -121.76378772032352),28,25,4,yes,x,5,x,0.5872582000156399,1,18,test1,1,0.5874990000156686,-20.0
19,cey,f,19,r,1,(-3.163262682197613e-14, -172.20000000000002),27,7,3,yes,x,5,x,0.6112442000012379,1,19,test1,1,0.6113446000090335,-38.0
19,cey,f,19,r,1,(121.76378772032346, -121.76378772032352),28,7,3,yes,x,5,x,0.7578511000028811,1,20,test1,1,0.757972699997481,-38.0
19,cey,f,19,r,1,(-172.20000000000002, 2.1088417881317425e-14),25,-7,13,yes,x,5,x,1.1453467999817804,1,21,test1,1,1.1455562000046484,-52.0
19,cey,f,19,r,1,(172.20000000000002, 0.0),21,-25,14,yes,x,5,x,0.5865790999960154,1,22,test1,1,0.5868783000041731,-70.0
19,cey,f,19,r,1,(-172.20000000000002, 2.1088417881317425e-14),25,-7,13,no,m,6,m,1.4225270000169985,1,23,test1,1,1.422752499987837,-70.0
19,cey,f,19,r,1,(-121.76378772032348, 121.76378772032349),24,7,3,no,m,6,x,1.4515348999993876,0,24,test1,1,1.4517432999855373,-70.0
19,cey,f,19,r,1,(-121.76378772032348, 121.76378772032349),24,-7,13,yes,x,5,x,0.7798694999946747,1,25,test1,1,0.7799988999904599,-52.0
19,cey,f,19,r,1,(1.0544208940658713e-14, 172.20000000000002),23,7,3,yes,x,5,x,0.5925901999871712,1,26,test1,1,0.5928160000185017,-38.0
19,cey,f,19,r,1,(-121.76378772032352, -121.76378772032348),26,3,1,yes,x,5,m,1.4163689999841154,0,27,test1,1,1.4164987000112887,-42.0
19,cey,f,19,r,1,(121.76378772032346, -121.76378772032352),28,-7,13,yes,x,5,x,0.8787492999981623,1,28,test1,1,0.8788974999915808,-52.0
19,cey,f,19,r,1,(1.0544208940658713e-14, 172.20000000000002),23,-5,12,no,m,6,x,1.1878858999989461,0,29,test1,1,1.1884254000033252,-52.0
19,cey,f,19,r,1,(-121.76378772032348, 121.76378772032349),24,-3,11,no,m,6,m,1.3226890999940224,1,30,test1,1,1.3232054999971297,-52.0
19,cey,f,19,r,1,(-172.20000000000002, 2.1088417881317425e-14),25,-3,11,yes,x,5,x,1.29819200001657,1,31,test1,1,1.2983553999802098,-48.0
19,cey,f,19,r,1,(1.0544208940658713e-14, 172.20000000000002),23,3,1,yes,x,5,m,1.5332679999992251,0,32,test1,1,1.5335591999755707,-42.0
19,cey,f,19,r,1,(-3.163262682197613e-14, -172.20000000000002),27,3,1,yes,x,5,m,1.35081080000964,0,33,test1,1,1.351100800005952,-42.0
19,cey,f,19,r,1,(121.76378772032349, 121.76378772032349),22,7,3,yes,x,5,x,0.520913099986501,1,34,test1,1,0.5211420000123326,-38.0
19,cey,f,19,r,1,(-121.76378772032352, -121.76378772032348),26,-25,14,yes,x,5,x,0.5202873999951407,1,35,test1,1,0.5205067000060808,-70.0
19,cey,f,19,r,1,(-121.76378772032348, 121.76378772032349),24,25,4,yes,x,5,x,0.4540011999779381,1,36,test1,1,0.45417740000993945,-20.0
19,cey,f,19,r,1,(121.76378772032349, 121.76378772032349),22,3,1,no,m,6,m,1.0496866999892518,1,37,test1,1,1.0498152999789454,-20.0
19,cey,f,19,r,1,(-121.76378772032352, -121.76378772032348),26,-7,13,yes,x,5,x,0.8227308999921661,1,38,test1,1,0.8228599000140093,-52.0
19,cey,f,19,r,1,(-172.20000000000002, 2.1088417881317425e-14),25,-25,14,yes,x,5,x,0.5444126999936998,1,39,test1,1,0.5446519000106491,-70.0
19,cey,f,19,r,1,(121.76378772032346, -121.76378772032352),28,-7,13,no,m,6,m,0.9107282000186387,1,40,test1,1,0.9110173000080977,-70.0
19,cey,f,19,r,1,(1.0544208940658713e-14, 172.20000000000002),23,5,2,yes,x,5,x,0.4805030999996234,1,41,test1,1,0.4807756999798585,-40.0
19,cey,f,19,r,1,(121.76378772032346, -121.76378772032352),28,25,4,yes,x,5,x,0.5008254999993369,1,42,test1,1,0.500941000005696,-20.0
19,cey,f,19,r,1,(-121.76378772032348, 121.76378772032349),24,3,1,yes,x,5,m,0.769537100015441,0,43,test1,1,0.7696596000168938,-42.0
19,cey,f,19,r,1,(-121.76378772032352, -121.76378772032348),26,7,3,yes,x,5,x,0.4740763000154402,1,44,test1,1,0.47432609999668784,-38.0
19,cey,f,19,r,1,(-121.76378772032352, -121.76378772032348),26,-5,12,yes,x,5,x,0.9268367999757174,1,45,test1,1,0.927112399978796,-50.0
19,cey,f,19,r,1,(-121.76378772032348, 121.76378772032349),24,-25,14,yes,x,5,x,0.6210156000161078,1,46,test1,1,0.6211189000168815,-70.0
19,cey,f,19,r,1,(-121.76378772032352, -121.76378772032348),26,-3,11,yes,x,5,x,1.1626414000056684,1,47,test1,1,1.1627572000143118,-48.0
19,cey,f,19,r,1,(-3.163262682197613e-14, -172.20000000000002),27,-25,14,yes,x,5,x,0.41504409999470226,1,48,test1,1,0.4151484000030905,-70.0
19,cey,f,19,r,1,(-121.76378772032352, -121.76378772032348),26,3,1,no,m,6,m,0.8160166000016034,1,49,test1,1,0.8163481000228785,-70.0
19,cey,f,19,r,1,(-3.163262682197613e-14, -172.20000000000002),27,-25,14,no,m,6,m,1.2239558000001125,1,50,test1,1,1.2240581999940332,-70.0
19,cey,f,19,r,1,(-172.20000000000002, 2.1088417881317425e-14),25,5,2,yes,x,5,x,0.6403706000128295,1,51,test1,1,0.6410189000016544,-40.0
19,cey,f,19,r,1,(-3.163262682197613e-14, -172.20000000000002),27,-7,13,no,m,6,m,0.8960824999958277,1,52,test1,1,0.8964880999992602,-40.0
19,cey,f,19,r,1,(-121.76378772032352, -121.76378772032348),26,7,3,yes,x,5,x,0.6308897999988403,1,53,test1,1,0.6312100000213832,-38.0
19,cey,f,19,r,1,(172.20000000000002, 0.0),21,5,2,yes,x,5,m,0.9390349999885075,0,54,test1,1,0.9394463000062387,-40.0
19,cey,f,19,r,1,(1.0544208940658713e-14, 172.20000000000002),23,-7,13,yes,x,5,x,0.5823698999884073,1,55,test1,1,0.5825236999953631,-52.0
19,cey,f,19,r,1,(121.76378772032349, 121.76378772032349),22,-25,14,yes,x,5,x,0.48374429999967106,1,56,test1,1,0.48402199998963624,-70.0
19,cey,f,19,r,1,(-121.76378772032348, 121.76378772032349),24,-5,12,yes,x,5,x,0.822854300000472,1,57,test1,1,0.8230216999945696,-50.0
19,cey,f,19,r,1,(-121.76378772032348, 121.76378772032349),24,-3,11,yes,x,5,x,0.866072200005874,1,58,test1,1,0.8662316999980249,-48.0
19,cey,f,19,r,1,(-121.76378772032348, 121.76378772032349),24,-7,13,no,m,6,m,1.1558434000180569,1,59,test1,1,1.1559857999964152,-48.0
19,cey,f,19,r,1,(-172.20000000000002, 2.1088417881317425e-14),25,-3,11,no,m,6,x,0.9618684000161011,0,60,test1,1,0.9621449999976903,-48.0
19,cey,f,19,r,1,(121.76378772032346, -121.76378772032352),28,3,1,yes,x,5,m,1.189793199999258,0,61,test1,1,1.1899212000134867,-42.0
19,cey,f,19,r,1,(-3.163262682197613e-14, -172.20000000000002),27,7,3,no,m,6,m,1.4092458999948576,1,62,test1,1,1.4093480000155978,-42.0
19,cey,f,19,r,1,(-121.76378772032352, -121.76378772032348),26,5,2,yes,x,5,x,0.598861600010423,1,63,test1,1,0.5989770000160206,-40.0
19,cey,f,19,r,1,(-121.76378772032348, 121.76378772032349),24,-5,12,yes,x,5,x,0.9495983000088017,1,64,test1,1,0.9499442999949679,-50.0
19,cey,f,19,r,1,(1.0544208940658713e-14, 172.20000000000002),23,-3,11,no,m,6,m,1.2075469999981578,1,65,test1,1,1.2076755999878515,-50.0
19,cey,f,19,r,1,(-3.163262682197613e-14, -172.20000000000002),27,-7,13,yes,x,5,x,0.6364892999990843,1,66,test1,1,0.6365939000097569,-52.0
19,cey,f,19,r,1,(1.0544208940658713e-14, 172.20000000000002),23,5,2,yes,x,5,x,0.8792163000034634,1,67,test1,1,0.8794114000047557,-40.0
19,cey,f,19,r,1,(-3.163262682197613e-14, -172.20000000000002),27,-3,11,yes,x,5,m,1.5098977999878116,0,68,test1,1,1.51011119998293,-48.0
19,cey,f,19,r,1,(-121.76378772032352, -121.76378772032348),26,25,4,yes,x,5,x,0.4678972999972757,1,69,test1,1,0.4685911000124179,-20.0
19,cey,f,19,r,1,(121.76378772032349, 121.76378772032349),22,-7,13,no,m,6,m,1.0802211000118405,1,70,test1,1,1.0803864999907091,-20.0
19,cey,f,19,r,1,(-121.76378772032352, -121.76378772032348),26,-25,14,no,m,6,m,1.435369399987394,1,71,test1,1,1.4355645999894477,-20.0
19,cey,f,19,r,1,(-121.76378772032348, 121.76378772032349),24,5,2,yes,x,5,x,0.7778308999841101,1,72,test1,1,0.7779613999882713,-40.0
19,cey,f,19,r,1,(1.0544208940658713e-14, 172.20000000000002),23,-25,14,no,m,6,m,1.0242596000025515,1,73,test1,1,1.024463600013405,-40.0
19,cey,f,19,r,1,(-121.76378772032348, 121.76378772032349),24,-5,12,no,m,6,m,1.2795083000091836,1,74,test1,1,1.2796486000006553,-40.0
19,cey,f,19,r,1,(121.76378772032349, 121.76378772032349),22,5,2,yes,x,5,x,0.6322540999972261,1,75,test1,1,0.6327829999790993,-40.0
19,cey,f,19,r,1,(-172.20000000000002, 2.1088417881317425e-14),25,25,4,yes,x,5,x,0.6147530000016559,1,76,test1,1,0.614855499996338,-20.0
19,cey,f,19,r,1,(1.0544208940658713e-14, 172.20000000000002),23,-25,14,yes,x,5,x,0.4670838000020012,1,77,test1,1,0.46722500000032596,-70.0
19,cey,f,19,r,1,(172.20000000000002, 0.0),21,25,4,yes,x,5,x,0.46704240000690334,1,78,test1,1,0.4673303999879863,-20.0
19,cey,f,19,r,1,(121.76378772032346, -121.76378772032352),28,3,1,yes,x,5,x,0.6745555000088643,1,79,test1,1,0.674885299988091,-42.0
19,cey,f,19,r,1,(-3.163262682197613e-14, -172.20000000000002),27,5,2,yes,x,5,x,0.6887887000048067,1,80,test1,1,0.6890390999906231,-40.0
19,cey,f,19,r,1,(121.76378772032346, -121.76378772032352),28,5,2,yes,x,5,x,0.684201199997915,1,81,test1,1,0.6843159999989439,-40.0
19,cey,f,19,r,1,(1.0544208940658713e-14, 172.20000000000002),23,-3,11,yes,x,5,m,1.1454412000020966,0,82,test1,1,1.1455466999905184,-48.0
19,cey,f,19,r,1,(172.20000000000002, 0.0),21,3,1,yes,x,5,m,1.012960899999598,0,83,test1,1,1.0135512000124436,-42.0
19,cey,f,19,r,1,(172.20000000000002, 0.0),21,-7,13,yes,x,5,x,0.502356700017117,1,84,test1,1,0.5026465999835636,-52.0
19,cey,f,19,r,1,(-121.76378772032352, -121.76378772032348),26,-5,12,yes,x,5,x,0.6106125999940559,1,85,test1,1,0.6112752000044566,-50.0
19,cey,f,19,r,1,(-121.76378772032352, -121.76378772032348),26,-5,12,no,m,6,m,1.2111087999946903,1,86,test1,1,1.211468800000148,-50.0
19,cey,f,19,r,1,(-3.163262682197613e-14, -172.20000000000002),27,7,3,yes,x,5,x,0.6893926999764517,1,87,test1,1,0.689535799989244,-38.0
19,cey,f,19,r,1,(121.76378772032349, 121.76378772032349),22,7,3,no,m,6,m,0.8426506000105292,1,88,test1,1,0.8427794000017457,-38.0
19,cey,f,19,r,1,(-3.163262682197613e-14, -172.20000000000002),27,-5,12,yes,x,5,x,0.598829000024125,1,89,test1,1,0.5992527000198606,-50.0
19,cey,f,19,r,1,(121.76378772032346, -121.76378772032352),28,-25,14,yes,x,5,x,0.5583752999955323,1,90,test1,1,0.5587341999926139,-70.0
19,cey,f,19,r,1,(172.20000000000002, 0.0),21,-5,12,yes,x,5,x,1.0774792000011075,1,91,test1,1,1.0776008999964688,-50.0
19,cey,f,19,r,1,(-3.163262682197613e-14, -172.20000000000002),27,3,1,yes,x,5,m,1.3252302999899257,0,92,test1,1,1.3255398999899626,-42.0
19,cey,f,19,r,1,(-172.20000000000002, 2.1088417881317425e-14),25,-25,14,no,m,6,x,0.7210243999725208,0,93,test1,1,0.7213128999865148,-42.0
19,cey,f,19,r,1,(121.76378772032349, 121.76378772032349),22,-5,12,yes,x,5,x,0.8602401000098325,1,94,test1,1,0.8604449999984354,-50.0
19,cey,f,19,r,1,(121.76378772032346, -121.76378772032352),28,3,1,no,m,6,m,0.9388588000147138,1,95,test1,1,0.9393913999956567,-50.0
19,cey,f,19,r,1,(-121.76378772032348, 121.76378772032349),24,25,4,yes,x,5,x,0.48525890000746585,1,96,test1,1,0.48580279998714104,-20.0
19,cey,f,19,r,1,(172.20000000000002, 0.0),21,25,4,no,m,6,m,0.9895574999973178,1,1,test2,1,0.9897913000022527,-20.0
19,cey,f,19,r,1,(121.76378772032349, 121.76378772032349),22,-25,14,no,m,6,m,1.0434217999863904,1,2,test2,1,1.0435853999806568,-20.0
19,cey,f,19,r,1,(1.0544208940658713e-14, 172.20000000000002),23,-25,14,yes,x,5,x,0.5037067999946885,1,3,test2,1,0.5038384000072256,-70.0
19,cey,f,19,r,1,(-121.76378772032352, -121.76378772032348),26,25,4,no,m,6,m,1.026674599997932,1,4,test2,1,1.0268040000228211,-70.0
19,cey,f,19,r,1,(-3.163262682197613e-14, -172.20000000000002),27,-5,12,no,m,6,m,0.8356219000124838,1,5,test2,1,0.83592359998147,-70.0
19,cey,f,19,r,1,(121.76378772032346, -121.76378772032352),28,7,3,no,m,6,m,0.6680544000118971,1,6,test2,1,0.6681819999939762,-70.0
19,cey,f,19,r,1,(-3.163262682197613e-14, -172.20000000000002),27,3,1,no,m,6,m,0.8731857999810018,1,7,test2,1,0.8733322999905795,-70.0
19,cey,f,19,r,1,(121.76378772032349, 121.76378772032349),22,3,1,yes,x,5,x,0.9349021000089124,1,8,test2,1,0.9351298999972641,-42.0
19,cey,f,19,r,1,(121.76378772032346, -121.76378772032352),28,-5,12,no,m,6,m,1.0345787000260316,1,9,test2,1,1.034696199989412,-42.0
19,cey,f,19,r,1,(1.0544208940658713e-14, 172.20000000000002),23,7,3,no,m,6,m,1.490814999997383,1,10,test2,1,1.491037600004347,-42.0
19,cey,f,19,r,1,(121.76378772032346, -121.76378772032352),28,5,2,yes,x,5,x,0.9572307000053115,1,11,test2,1,0.957806199992774,-40.0
19,cey,f,19,r,1,(121.76378772032349, 121.76378772032349),22,-3,11,yes,x,5,x,0.9591394999879412,1,12,test2,1,0.959281599993119,-48.0
19,cey,f,19,r,1,(-172.20000000000002, 2.1088417881317425e-14),25,7,3,yes,x,5,x,0.6271785999997519,1,13,test2,1,0.6273191999935079,-38.0
19,cey,f,19,r,1,(-121.76378772032352, -121.76378772032348),26,-25,14,yes,x,5,x,0.5692188999964856,1,14,test2,1,0.5693783999886364,-70.0
19,cey,f,19,r,1,(121.76378772032349, 121.76378772032349),22,5,2,no,m,6,x,1.1022165000031237,0,15,test2,1,1.1023339999956079,-70.0
19,cey,f,19,r,1,(-172.20000000000002, 2.1088417881317425e-14),25,-5,12,yes,x,5,x,0.6136231000127736,1,16,test2,1,0.6140136999893002,-50.0
19,cey,f,19,r,1,(-3.163262682197613e-14, -172.20000000000002),27,5,2,yes,x,5,x,1.0004895000020042,1,17,test2,1,1.000710300024366,-40.0
19,cey,f,19,r,1,(-121.76378772032348, 121.76378772032349),24,5,2,yes,x,5,x,0.6346982999821194,1,18,test2,1,0.6354023000167217,-40.0
19,cey,f,19,r,1,(121.76378772032349, 121.76378772032349),22,7,3,yes,x,5,x,0.5925620000052731,1,19,test2,1,0.5927420000080019,-38.0
19,cey,f,19,r,1,(121.76378772032349, 121.76378772032349),22,25,4,no,m,6,m,0.6022892000037245,1,20,test2,1,0.6025343999790493,-38.0
19,cey,f,19,r,1,(172.20000000000002, 0.0),21,-25,14,no,m,6,x,0.812796200014418,0,21,test2,1,0.8130709999823011,-38.0
19,cey,f,19,r,1,(121.76378772032346, -121.76378772032352),28,-3,11,yes,x,5,x,1.0973675999848638,1,22,test2,1,1.0979039999947418,-48.0
19,cey,f,19,r,1,(-172.20000000000002, 2.1088417881317425e-14),25,3,1,yes,x,5,m,1.0420503999921493,0,23,test2,1,1.04234610000276,-42.0
19,cey,f,19,r,1,(-172.20000000000002, 2.1088417881317425e-14),25,25,4,yes,x,5,x,0.5139879000198562,1,24,test2,1,0.5141026999917813,-20.0
19,cey,f,19,r,1,(-172.20000000000002, 2.1088417881317425e-14),25,-3,11,yes,x,5,x,1.2703996999771334,1,25,test2,1,1.2709398999868426,-48.0
19,cey,f,19,r,1,(1.0544208940658713e-14, 172.20000000000002),23,7,3,yes,x,5,x,0.6340770000242628,1,26,test2,1,0.6341794999898411,-38.0
19,cey,f,19,r,1,(121.76378772032346, -121.76378772032352),28,-3,11,no,m,6,x,0.6755819999962114,0,27,test2,1,0.6758326999843121,-38.0
19,cey,f,19,r,1,(172.20000000000002, 0.0),21,7,3,yes,x,5,x,0.6958220000087749,1,28,test2,1,0.6963040999835357,-38.0
19,cey,f,19,r,1,(1.0544208940658713e-14, 172.20000000000002),23,-7,13,yes,x,5,x,0.6042417999997269,1,29,test2,1,0.6044577000138815,-52.0
19,cey,f,19,r,1,(121.76378772032349, 121.76378772032349),22,-3,11,yes,x,5,m,0.82329440000467,0,30,test2,1,0.8235996999719646,-48.0
19,cey,f,19,r,1,(-121.76378772032348, 121.76378772032349),24,3,1,no,m,6,m,1.5517300000065006,1,31,test2,1,1.5523752000008244,-48.0
19,cey,f,19,r,1,(-3.163262682197613e-14, -172.20000000000002),27,5,2,no,m,6,m,1.0761687000049278,1,32,test2,1,1.076521299983142,-48.0
19,cey,f,19,r,1,(-121.76378772032348, 121.76378772032349),24,7,3,yes,x,5,x,0.5039004000136629,1,33,test2,1,0.504356799996458,-38.0
19,cey,f,19,r,1,(121.76378772032349, 121.76378772032349),22,3,1,yes,x,5,x,1.411761800001841,1,34,test2,1,1.411863200017251,-42.0
19,cey,f,19,r,1,(-3.163262682197613e-14, -172.20000000000002),27,-3,11,no,m,6,m,0.8857435999962036,1,35,test2,1,0.8861963000090327,-42.0
19,cey,f,19,r,1,(-121.76378772032352, -121.76378772032348),26,5,2,yes,x,5,x,0.927058399975067,1,36,test2,1,0.9271744999859948,-40.0
19,cey,f,19,r,1,(172.20000000000002, 0.0),21,5,2,yes,x,5,x,0.8342553000256885,1,37,test2,1,0.834358499996597,-40.0
19,cey,f,19,r,1,(172.20000000000002, 0.0),21,7,3,no,m,6,m,1.3007492999895476,1,38,test2,1,1.3009076000016648,-40.0
19,cey,f,19,r,1,(121.76378772032349, 121.76378772032349),22,25,4,yes,x,5,x,0.571077200002037,1,39,test2,1,0.5713663999922574,-20.0
19,cey,f,19,r,1,(-3.163262682197613e-14, -172.20000000000002),27,-3,11,yes,x,5,m,1.419475999980932,0,40,test2,1,1.4201167999999598,-48.0
19,cey,f,19,r,1,(121.76378772032349, 121.76378772032349),22,-5,12,yes,x,5,x,0.6120360000059009,1,41,test2,1,0.6121531999961007,-50.0
19,cey,f,19,r,1,(-172.20000000000002, 2.1088417881317425e-14),25,-7,13,yes,x,5,x,0.6045812000229489,1,42,test2,1,0.6048759999976028,-52.0
19,cey,f,19,r,1,(1.0544208940658713e-14, 172.20000000000002),23,-3,11,yes,x,5,x,0.7125235999992583,1,43,test2,1,0.7127214999927673,-48.0
19,cey,f,19,r,1,(-3.163262682197613e-14, -172.20000000000002),27,25,4,no,m,6,m,1.6204846999899019,1,44,test2,1,1.621045799984131,-48.0
19,cey,f,19,r,1,(-121.76378772032352, -121.76378772032348),26,5,2,no,m,6,m,1.5236781999992672,1,45,test2,1,1.5237944000109565,-48.0
19,cey,f,19,r,1,(1.0544208940658713e-14, 172.20000000000002),23,25,4,yes,x,5,x,0.5860766000114381,1,46,test2,1,0.5863165000046138,-20.0
19,cey,f,19,r,1,(121.76378772032349, 121.76378772032349),22,-7,13,yes,x,5,x,0.589543500012951,1,47,test2,1,0.5896452000015415,-52.0
19,cey,f,19,r,1,(-172.20000000000002, 2.1088417881317425e-14),25,25,4,no,m,6,m,0.781133000011323,1,48,test2,1,0.781268499995349,-52.0
19,cey,f,19,r,1,(-121.76378772032348, 121.76378772032349),24,3,1,yes,x,5,x,0.772743100009393,1,49,test2,1,0.7728751999966335,-42.0
19,cey,f,19,r,1,(-172.20000000000002, 2.1088417881317425e-14),25,3,1,no,m,6,m,1.112546599993948,1,50,test2,1,1.1126724999921862,-42.0
19,cey,f,19,r,1,(1.0544208940658713e-14, 172.20000000000002),23,25,4,no,m,6,m,1.0424009000125807,1,51,test2,1,1.042873200000031,-42.0
19,cey,f,19,r,1,(121.76378772032346, -121.76378772032352),28,-7,13,yes,x,5,x,0.6774905000056606,1,52,test2,1,0.6777295999927446,-52.0
19,cey,f,19,r,1,(172.20000000000002, 0.0),21,3,1,yes,x,5,m,1.034516200015787,0,53,test2,1,1.034618900011992,-42.0
19,cey,f,19,r,1,(172.20000000000002, 0.0),21,-5,12,no,m,6,m,1.3238370999752078,1,54,test2,1,1.3242791000229772,-42.0
19,cey,f,19,r,1,(1.0544208940658713e-14, 172.20000000000002),23,25,4,yes,x,5,x,0.546695000026375,1,55,test2,1,0.5469837999844458,-20.0
19,cey,f,19,r,1,(-121.76378772032348, 121.76378772032349),24,-7,13,yes,x,5,x,1.276215099991532,1,56,test2,1,1.2770562999940012,-52.0
19,cey,f,19,r,1,(-121.76378772032352, -121.76378772032348),26,25,4,yes,x,5,x,0.5434207999787759,1,57,test2,1,0.5436574000050314,-20.0
19,cey,f,19,r,1,(-121.76378772032352, -121.76378772032348),26,-3,11,no,m,6,m,0.8537351000122726,1,58,test2,1,0.8539464000205044,-20.0
19,cey,f,19,r,1,(121.76378772032346, -121.76378772032352),28,-5,12,yes,x,5,x,1.2940964000008535,1,59,test2,1,1.2941983999917284,-50.0
19,cey,f,19,r,1,(121.76378772032349, 121.76378772032349),22,25,4,yes,x,5,x,0.6014668999996502,1,60,test2,1,0.6015694999950938,-20.0
19,cey,f,19,r,1,(121.76378772032346, -121.76378772032352),28,5,2,no,m,6,m,0.8492166000069119,1,61,test2,1,0.8493226999999024,-20.0
19,cey,f,19,r,1,(-3.163262682197613e-14, -172.20000000000002),27,25,4,yes,x,5,x,0.5224787000042852,1,62,test2,1,0.5226872999919578,-20.0
19,cey,f,19,r,1,(-172.20000000000002, 2.1088417881317425e-14),25,5,2,yes,x,5,None,None,0,63,test2,1,1.9800969999923836,-40.0
19,cey,f,19,r,1,(172.20000000000002, 0.0),21,-5,12,yes,x,5,x,0.5223288999986835,1,64,test2,1,0.5224837000132538,-50.0
19,cey,f,19,r,1,(-3.163262682197613e-14, -172.20000000000002),27,-7,13,yes,x,5,x,0.6439636999857612,1,65,test2,1,0.6440879000001587,-52.0
19,cey,f,19,r,1,(121.76378772032346, -121.76378772032352),28,-5,12,yes,x,5,x,1.091942500002915,1,66,test2,1,1.0921799000061583,-50.0
19,cey,f,19,r,1,(121.76378772032349, 121.76378772032349),22,-3,11,no,m,6,m,0.7448666999989655,1,67,test2,1,0.7449708999774884,-50.0
19,cey,f,19,r,1,(1.0544208940658713e-14, 172.20000000000002),23,5,2,no,m,6,x,1.029258700000355,0,68,test2,1,1.0293651000247337,-50.0
19,cey,f,19,r,1,(121.76378772032346, -121.76378772032352),28,25,4,no,m,6,m,1.0274017000047024,1,69,test2,1,1.0278825999994297,-50.0
19,cey,f,19,r,1,(121.76378772032346, -121.76378772032352),28,-3,11,yes,x,5,m,0.9289313000044785,0,70,test2,1,0.9290327000198886,-48.0
19,cey,f,19,r,1,(172.20000000000002, 0.0),21,-25,14,yes,x,5,x,0.46276450000004843,1,71,test2,1,0.46288119998644106,-70.0
19,cey,f,19,r,1,(-172.20000000000002, 2.1088417881317425e-14),25,5,2,no,m,6,m,0.8415049999894109,1,72,test2,1,0.8417295999825001,-70.0
19,cey,f,19,r,1,(-121.76378772032352, -121.76378772032348),26,-7,13,yes,x,5,x,0.5865608000021894,1,73,test2,1,0.5869253000128083,-52.0
19,cey,f,19,r,1,(1.0544208940658713e-14, 172.20000000000002),23,-5,12,yes,x,5,x,0.6910524999839254,1,74,test2,1,0.6911874999932479,-50.0
19,cey,f,19,r,1,(-172.20000000000002, 2.1088417881317425e-14),25,7,3,yes,x,5,x,0.6373710999905597,1,75,test2,1,0.6376237999938894,-38.0
19,cey,f,19,r,1,(-121.76378772032348, 121.76378772032349),24,-25,14,no,m,6,m,1.0824823000002652,1,76,test2,1,1.0827538000012282,-38.0
19,cey,f,19,r,1,(121.76378772032349, 121.76378772032349),22,5,2,yes,x,5,x,1.003900399984559,1,77,test2,1,1.0040383999876212,-40.0
19,cey,f,19,r,1,(172.20000000000002, 0.0),21,-7,13,no,m,6,m,0.8197357000026386,1,78,test2,1,0.8203763000201434,-40.0
19,cey,f,19,r,1,(172.20000000000002, 0.0),21,-3,11,yes,x,5,m,0.9749862000171561,0,79,test2,1,0.9752198999922257,-48.0
19,cey,f,19,r,1,(1.0544208940658713e-14, 172.20000000000002),23,3,1,no,m,6,x,0.7719195999961812,0,80,test2,1,0.7722265000047628,-48.0
19,cey,f,19,r,1,(1.0544208940658713e-14, 172.20000000000002),23,-7,13,no,m,6,m,1.3525709999958053,1,81,test2,1,1.3528130000049714,-48.0
19,cey,f,19,r,1,(-172.20000000000002, 2.1088417881317425e-14),25,3,1,yes,x,5,x,0.7002008999988902,1,82,test2,1,0.7003900999843609,-42.0
19,cey,f,19,r,1,(-3.163262682197613e-14, -172.20000000000002),27,-25,14,yes,x,5,x,0.49113440001383424,1,83,test2,1,0.49135060000116937,-70.0
19,cey,f,19,r,1,(121.76378772032349, 121.76378772032349),22,-7,13,yes,x,5,x,0.6262088999792468,1,84,test2,1,0.6263245000154711,-52.0
19,cey,f,19,r,1,(172.20000000000002, 0.0),21,3,1,no,m,6,m,1.1753014999849256,1,85,test2,1,1.1757302999903914,-52.0
19,cey,f,19,r,1,(-3.163262682197613e-14, -172.20000000000002),27,25,4,yes,x,5,x,0.4974893000035081,1,86,test2,1,0.4977342000056524,-20.0
19,cey,f,19,r,1,(-3.163262682197613e-14, -172.20000000000002),27,-5,12,yes,x,5,x,0.6596199999912642,1,87,test2,1,0.6597735999966972,-50.0
19,cey,f,19,r,1,(-172.20000000000002, 2.1088417881317425e-14),25,-5,12,no,m,6,x,0.8011704000236932,0,88,test2,1,0.8012711999763269,-50.0
19,cey,f,19,r,1,(172.20000000000002, 0.0),21,-7,13,yes,x,5,x,0.5521542000060435,1,89,test2,1,0.5524470000236761,-52.0
19,cey,f,19,r,1,(1.0544208940658713e-14, 172.20000000000002),23,-5,12,yes,x,5,x,0.6002939000027254,1,90,test2,1,0.6004122000013012,-50.0
19,cey,f,19,r,1,(-121.76378772032352, -121.76378772032348),26,7,3,no,m,6,m,1.0788243999995757,1,91,test2,1,1.0790011000062805,-50.0
19,cey,f,19,r,1,(-121.76378772032348, 121.76378772032349),24,25,4,no,m,6,m,0.9459155999938957,1,92,test2,1,0.9460464000003412,-50.0
19,cey,f,19,r,1,(172.20000000000002, 0.0),21,-3,11,yes,x,5,x,1.3291907000239007,1,93,test2,1,1.3293061000003945,-48.0
19,cey,f,19,r,1,(-121.76378772032348, 121.76378772032349),24,-3,11,yes,x,5,m,1.1756500000192318,0,94,test2,1,1.1758654000004753,-48.0
19,cey,f,19,r,1,(172.20000000000002, 0.0),21,5,2,no,m,6,m,1.1013761000067461,1,95,test2,1,1.1015997999929823,-48.0
19,cey,f,19,r,1,(172.20000000000002, 0.0),21,7,3,yes,x,5,x,0.6244406999903731,1,96,test2,1,0.6245966000133194,-38.0
19,cey,f,19,r,1,(-172.20000000000002, 2.1088417881317425e-14),25,-5,12,yes,x,5,x,0.8772058000031393,1,1,test1,2,0.877392599999439,-50.0
19,cey,f,19,r,1,(-121.76378772032348, 121.76378772032349),24,7,3,yes,x,5,x,0.46055749998777173,1,2,test1,2,0.4606733999971766,-38.0
19,cey,f,19,r,1,(-172.20000000000002, 2.1088417881317425e-14),25,-25,14,yes,x,5,x,0.45422189999953844,1,3,test1,2,0.4544594000035431,-70.0
19,cey,f,19,r,1,(121.76378772032346, -121.76378772032352),28,7,3,yes,x,5,x,0.5287152999953832,1,4,test1,2,0.5288209999853279,-38.0
19,cey,f,19,r,1,(-121.76378772032352, -121.76378772032348),26,3,1,yes,x,5,m,0.7554191999952309,0,5,test1,2,0.7558081000170205,-42.0
19,cey,f,19,r,1,(121.76378772032346, -121.76378772032352),28,-25,14,no,m,6,m,1.2913475999957882,1,6,test1,2,1.2915936000063084,-42.0
19,cey,f,19,r,1,(-121.76378772032348, 121.76378772032349),24,-25,14,yes,x,5,x,0.4326561999914702,1,7,test1,2,0.43291380000300705,-70.0
19,cey,f,19,r,1,(1.0544208940658713e-14, 172.20000000000002),23,3,1,yes,x,5,m,0.9806587000202853,0,8,test1,2,0.9809500999981537,-42.0
19,cey,f,19,r,1,(-172.20000000000002, 2.1088417881317425e-14),25,7,3,no,m,6,m,0.9388104999961797,1,9,test1,2,0.9390377000090666,-42.0
19,cey,f,19,r,1,(-121.76378772032348, 121.76378772032349),24,5,2,no,m,6,x,0.9677966999879573,0,10,test1,2,0.9678965999919455,-42.0
19,cey,f,19,r,1,(172.20000000000002, 0.0),21,25,4,yes,x,5,x,0.5118915000057314,1,11,test1,2,0.5121928000007756,-20.0
19,cey,f,19,r,1,(121.76378772032349, 121.76378772032349),22,-25,14,yes,x,5,x,0.5875737000023946,1,12,test1,2,0.5879710000008345,-70.0
19,cey,f,19,r,1,(121.76378772032346, -121.76378772032352),28,-25,14,yes,x,5,x,0.6533628999895882,1,13,test1,2,0.6535669999720994,-70.0
19,cey,f,19,r,1,(-121.76378772032352, -121.76378772032348),26,-3,11,yes,x,5,x,0.5907329000183381,1,14,test1,2,0.5908480000216514,-48.0
19,cey,f,19,r,1,(-121.76378772032352, -121.76378772032348),26,-7,13,no,m,6,m,1.6185961000155658,1,15,test1,2,1.6188423999992665,-48.0
19,cey,f,19,r,1,(121.76378772032349, 121.76378772032349),22,-5,12,no,m,6,m,1.5024936000118032,1,16,test1,2,1.5025940000195988,-48.0
19,cey,f,19,r,1,(172.20000000000002, 0.0),21,-3,11,no,m,6,m,1.0808393000042997,1,17,test1,2,1.0809551999846008,-48.0
19,cey,f,19,r,1,(121.76378772032346, -121.76378772032352),28,25,4,yes,x,5,x,0.38623140001436695,1,18,test1,2,0.3867657000082545,-20.0
19,cey,f,19,r,1,(-3.163262682197613e-14, -172.20000000000002),27,7,3,yes,x,5,x,0.5432912000105716,1,19,test1,2,0.5436562999966554,-38.0
19,cey,f,19,r,1,(121.76378772032346, -121.76378772032352),28,7,3,yes,x,5,x,0.49104130000341684,1,20,test1,2,0.4913585999747738,-38.0
19,cey,f,19,r,1,(-172.20000000000002, 2.1088417881317425e-14),25,-7,13,yes,x,5,x,0.46352409999235533,1,21,test1,2,0.46362490000319667,-52.0
19,cey,f,19,r,1,(172.20000000000002, 0.0),21,-25,14,yes,x,5,x,0.49896820000139996,1,22,test1,2,0.4990656999871135,-70.0
19,cey,f,19,r,1,(-172.20000000000002, 2.1088417881317425e-14),25,-7,13,no,m,6,m,0.9390913999814074,1,23,test1,2,0.9392129000043496,-70.0
19,cey,f,19,r,1,(-121.76378772032348, 121.76378772032349),24,7,3,no,m,6,m,0.846051600005012,1,24,test1,2,0.8461528999905568,-70.0
19,cey,f,19,r,1,(-121.76378772032348, 121.76378772032349),24,-7,13,yes,x,5,x,0.5634793000062928,1,25,test1,2,0.5637686000263784,-52.0
19,cey,f,19,r,1,(1.0544208940658713e-14, 172.20000000000002),23,7,3,yes,x,5,x,0.5779238999821246,1,26,test1,2,0.5780237999861129,-38.0
19,cey,f,19,r,1,(-121.76378772032352, -121.76378772032348),26,3,1,yes,x,5,m,0.929908299993258,0,27,test1,2,0.9300145000161137,-42.0
19,cey,f,19,r,1,(121.76378772032346, -121.76378772032352),28,-7,13,yes,x,5,x,0.5777753999864217,1,28,test1,2,0.5779019999899901,-52.0
19,cey,f,19,r,1,(1.0544208940658713e-14, 172.20000000000002),23,-5,12,no,m,6,m,1.1202195000078063,1,29,test1,2,1.1203210000239778,-52.0
19,cey,f,19,r,1,(-121.76378772032348, 121.76378772032349),24,-3,11,no,m,6,m,1.2244567000016104,1,30,test1,2,1.225087099999655,-52.0
19,cey,f,19,r,1,(-172.20000000000002, 2.1088417881317425e-14),25,-3,11,yes,x,5,x,1.3374567000137176,1,31,test1,2,1.337856300000567,-48.0
19,cey,f,19,r,1,(1.0544208940658713e-14, 172.20000000000002),23,3,1,yes,x,5,x,0.9516773000068497,1,32,test1,2,0.9518080000125337,-42.0
19,cey,f,19,r,1,(-3.163262682197613e-14, -172.20000000000002),27,3,1,yes,x,5,x,0.87520979999681,1,33,test1,2,0.8753450000076555,-42.0
19,cey,f,19,r,1,(121.76378772032349, 121.76378772032349),22,7,3,yes,x,5,x,0.5184596000181045,1,34,test1,2,0.51868929999182,-38.0
19,cey,f,19,r,1,(-121.76378772032352, -121.76378772032348),26,-25,14,yes,x,5,x,0.6304011999745853,1,35,test1,2,0.6307067000016104,-70.0
19,cey,f,19,r,1,(-121.76378772032348, 121.76378772032349),24,25,4,yes,x,5,x,0.5180749999999534,1,36,test1,2,0.5181719000102021,-20.0
19,cey,f,19,r,1,(121.76378772032349, 121.76378772032349),22,3,1,no,m,6,m,0.8841844999988098,1,37,test1,2,0.8847156999981962,-20.0
19,cey,f,19,r,1,(-121.76378772032352, -121.76378772032348),26,-7,13,yes,x,5,x,0.6145586000056937,1,38,test1,2,0.6147697999840602,-52.0
19,cey,f,19,r,1,(-172.20000000000002, 2.1088417881317425e-14),25,-25,14,yes,x,5,x,0.4118505000078585,1,39,test1,2,0.4119504000118468,-70.0
19,cey,f,19,r,1,(121.76378772032346, -121.76378772032352),28,-7,13,no,m,6,m,0.8143745999841485,1,40,test1,2,0.8147335999819916,-70.0
19,cey,f,19,r,1,(1.0544208940658713e-14, 172.20000000000002),23,5,2,yes,x,5,x,0.6626284999947529,1,41,test1,2,0.6630062999902293,-40.0
19,cey,f,19,r,1,(121.76378772032346, -121.76378772032352),28,25,4,yes,x,5,x,0.5237128000007942,1,42,test1,2,0.5238677999877837,-20.0
19,cey,f,19,r,1,(-121.76378772032348, 121.76378772032349),24,3,1,yes,x,5,m,1.0133400999766309,0,43,test1,2,1.013442399998894,-42.0
19,cey,f,19,r,1,(-121.76378772032352, -121.76378772032348),26,7,3,yes,x,5,x,0.6731876999838278,1,44,test1,2,0.6734381999995094,-38.0
19,cey,f,19,r,1,(-121.76378772032352, -121.76378772032348),26,-5,12,yes,x,5,x,0.5609468999900855,1,45,test1,2,0.5611905999830924,-50.0
19,cey,f,19,r,1,(-121.76378772032348, 121.76378772032349),24,-25,14,yes,x,5,x,0.4567008000158239,1,46,test1,2,0.4568518000014592,-70.0
19,cey,f,19,r,1,(-121.76378772032352, -121.76378772032348),26,-3,11,yes,x,5,m,0.8653387000085786,0,47,test1,2,0.8654368999996223,-48.0
19,cey,f,19,r,1,(-3.163262682197613e-14, -172.20000000000002),27,-25,14,yes,x,5,x,0.5113034000096377,1,48,test1,2,0.511466299998574,-70.0
19,cey,f,19,r,1,(-121.76378772032352, -121.76378772032348),26,3,1,no,m,6,m,0.9288915999932215,1,49,test1,2,0.9291833000024781,-70.0
19,cey,f,19,r,1,(-3.163262682197613e-14, -172.20000000000002),27,-25,14,no,m,6,x,0.9943300999875646,0,50,test1,2,0.9944359000073746,-70.0
19,cey,f,19,r,1,(-172.20000000000002, 2.1088417881317425e-14),25,5,2,yes,x,5,x,0.8861677999957465,1,51,test1,2,0.8864472999994177,-40.0
19,cey,f,19,r,1,(-3.163262682197613e-14, -172.20000000000002),27,-7,13,no,m,6,m,1.1548256000096444,1,52,test1,2,1.1549267999944277,-40.0
19,cey,f,19,r,1,(-121.76378772032352, -121.76378772032348),26,7,3,yes,x,5,x,0.5185671000217553,1,53,test1,2,0.5188985000131652,-38.0
19,cey,f,19,r,1,(172.20000000000002, 0.0),21,5,2,yes,x,5,x,0.6681907000020146,1,54,test1,2,0.6682913000113331,-40.0
19,cey,f,19,r,1,(1.0544208940658713e-14, 172.20000000000002),23,-7,13,yes,x,5,x,0.606589700008044,1,55,test1,2,0.6068353999871761,-52.0
19,cey,f,19,r,1,(121.76378772032349, 121.76378772032349),22,-25,14,yes,x,5,x,0.4975788999872748,1,56,test1,2,0.49793040001532063,-70.0
19,cey,f,19,r,1,(-121.76378772032348, 121.76378772032349),24,-5,12,yes,x,5,x,1.2243814000103157,1,57,test1,2,1.2244852999865543,-50.0
19,cey,f,19,r,1,(-121.76378772032348, 121.76378772032349),24,-3,11,yes,x,5,m,1.0974541000032332,0,58,test1,2,1.097858199995244,-48.0
19,cey,f,19,r,1,(-121.76378772032348, 121.76378772032349),24,-7,13,no,m,6,m,1.214449599996442,1,59,test1,2,1.2148528999823611,-48.0
19,cey,f,19,r,1,(-172.20000000000002, 2.1088417881317425e-14),25,-3,11,no,m,6,m,1.1482033000211231,1,60,test1,2,1.1486931999970693,-48.0
19,cey,f,19,r,1,(121.76378772032346, -121.76378772032352),28,3,1,yes,x,5,x,1.0596154000086244,1,61,test1,2,1.0598128999990877,-42.0
19,cey,f,19,r,1,(-3.163262682197613e-14, -172.20000000000002),27,7,3,no,m,6,m,1.1368712000257801,1,62,test1,2,1.1369853999931365,-42.0
19,cey,f,19,r,1,(-121.76378772032352, -121.76378772032348),26,5,2,yes,x,5,m,1.3003673999919556,0,63,test1,2,1.3005241999926511,-40.0
19,cey,f,19,r,1,(-121.76378772032348, 121.76378772032349),24,-5,12,yes,x,5,x,0.8416891999950167,1,64,test1,2,0.841938300000038,-50.0
19,cey,f,19,r,1,(1.0544208940658713e-14, 172.20000000000002),23,-3,11,no,m,6,m,1.0834765000035986,1,65,test1,2,1.083742800023174,-50.0
19,cey,f,19,r,1,(-3.163262682197613e-14, -172.20000000000002),27,-7,13,yes,x,5,x,0.6129457000060938,1,66,test1,2,0.6132550000038464,-52.0
19,cey,f,19,r,1,(1.0544208940658713e-14, 172.20000000000002),23,5,2,yes,x,5,x,0.6171967000118457,1,67,test1,2,0.6173110000090674,-40.0
19,cey,f,19,r,1,(-3.163262682197613e-14, -172.20000000000002),27,-3,11,yes,x,5,x,1.4673946000111755,1,68,test1,2,1.4675393000070471,-48.0
19,cey,f,19,r,1,(-121.76378772032352, -121.76378772032348),26,25,4,yes,x,5,x,0.5300954999984242,1,69,test1,2,0.5303203999937978,-20.0
19,cey,f,19,r,1,(121.76378772032349, 121.76378772032349),22,-7,13,no,m,6,m,1.171576200023992,1,70,test1,2,1.171993099997053,-20.0
19,cey,f,19,r,1,(-121.76378772032352, -121.76378772032348),26,-25,14,no,m,6,m,1.4371963999874424,1,71,test1,2,1.4374521000136156,-20.0
19,cey,f,19,r,1,(-121.76378772032348, 121.76378772032349),24,5,2,yes,x,5,x,0.8830126999819186,1,72,test1,2,0.883130500005791,-40.0
19,cey,f,19,r,1,(1.0544208940658713e-14, 172.20000000000002),23,-25,14,no,m,6,m,1.095755000016652,1,73,test1,2,1.0958810000156518,-40.0
19,cey,f,19,r,1,(-121.76378772032348, 121.76378772032349),24,-5,12,no,m,6,x,1.1189141999930143,0,74,test1,2,1.1190729000081774,-40.0
19,cey,f,19,r,1,(121.76378772032349, 121.76378772032349),22,5,2,yes,x,5,x,0.6523599000065587,1,75,test1,2,0.6524914000183344,-40.0
19,cey,f,19,r,1,(-172.20000000000002, 2.1088417881317425e-14),25,25,4,yes,x,5,x,0.47212729998864233,1,76,test1,2,0.47237780000432394,-20.0
19,cey,f,19,r,1,(1.0544208940658713e-14, 172.20000000000002),23,-25,14,yes,x,5,x,0.48335819999920204,1,77,test1,2,0.48382239998318255,-70.0
19,cey,f,19,r,1,(172.20000000000002, 0.0),21,25,4,yes,x,5,x,0.5253340000053868,1,78,test1,2,0.5256434000039008,-20.0
19,cey,f,19,r,1,(121.76378772032346, -121.76378772032352),28,3,1,yes,x,5,m,1.497949900018284,0,79,test1,2,1.4982644999981858,-42.0
19,cey,f,19,r,1,(-3.163262682197613e-14, -172.20000000000002),27,5,2,yes,x,5,x,0.8199457000009716,1,80,test1,2,0.8202915999863762,-40.0
19,cey,f,19,r,1,(121.76378772032346, -121.76378772032352),28,5,2,yes,x,5,x,1.2321751000126824,1,81,test1,2,1.2328262999944855,-40.0
19,cey,f,19,r,1,(1.0544208940658713e-14, 172.20000000000002),23,-3,11,yes,x,5,x,1.2520429999858607,1,82,test1,2,1.252521499991417,-48.0
19,cey,f,19,r,1,(172.20000000000002, 0.0),21,3,1,yes,x,5,x,1.0104247000126634,1,83,test1,2,1.0106088999891654,-42.0
19,cey,f,19,r,1,(172.20000000000002, 0.0),21,-7,13,yes,x,5,x,0.5290854000195395,1,84,test1,2,0.5292577000218444,-52.0
19,cey,f,19,r,1,(-121.76378772032352, -121.76378772032348),26,-5,12,yes,x,5,x,1.2984124000067823,1,85,test1,2,1.29863179998938,-50.0
19,cey,f,19,r,1,(-121.76378772032352, -121.76378772032348),26,-5,12,no,m,6,m,1.3633117999997921,1,86,test1,2,1.3638570999901276,-50.0
19,cey,f,19,r,1,(-3.163262682197613e-14, -172.20000000000002),27,7,3,yes,x,5,x,0.5988769000105094,1,87,test1,2,0.5989807000150904,-38.0
19,cey,f,19,r,1,(121.76378772032349, 121.76378772032349),22,7,3,no,m,6,m,0.6649411999969743,1,88,test1,2,0.6651197999890428,-38.0
19,cey,f,19,r,1,(-3.163262682197613e-14, -172.20000000000002),27,-5,12,yes,x,5,x,1.0816180000256281,1,89,test1,2,1.0817192000104114,-50.0
19,cey,f,19,r,1,(121.76378772032346, -121.76378772032352),28,-25,14,yes,x,5,x,0.5852152000006754,1,90,test1,2,0.5853207999898586,-70.0
19,cey,f,19,r,1,(172.20000000000002, 0.0),21,-5,12,yes,x,5,x,0.9826700999983586,1,91,test1,2,0.9828885000024457,-50.0
19,cey,f,19,r,1,(-3.163262682197613e-14, -172.20000000000002),27,3,1,yes,x,5,m,0.8743471999769099,0,92,test1,2,0.8746795000042766,-42.0
19,cey,f,19,r,1,(-172.20000000000002, 2.1088417881317425e-14),25,-25,14,no,m,6,m,1.4486573000031058,1,93,test1,2,1.448847499996191,-42.0
19,cey,f,19,r,1,(121.76378772032349, 121.76378772032349),22,-5,12,yes,x,5,x,0.6680278000130784,1,94,test1,2,0.6686022999929264,-50.0
19,cey,f,19,r,1,(121.76378772032346, -121.76378772032352),28,3,1,no,m,6,m,1.0928636000026017,1,95,test1,2,1.0931083000032231,-50.0
19,cey,f,19,r,1,(-121.76378772032348, 121.76378772032349),24,25,4,yes,x,5,x,0.7629807000048459,1,96,test1,2,0.7631031000055373,-20.0
19,cey,f,19,r,1,(172.20000000000002, 0.0),21,25,4,no,m,6,m,1.0294873999955598,1,1,test2,2,1.0295948999992106,-20.0
19,cey,f,19,r,1,(121.76378772032349, 121.76378772032349),22,-25,14,no,m,6,m,0.9862221999792382,1,2,test2,2,0.9864783999801148,-20.0
19,cey,f,19,r,1,(1.0544208940658713e-14, 172.20000000000002),23,-25,14,yes,x,5,x,0.4347478999989107,1,3,test2,2,0.4349091000040062,-70.0
19,cey,f,19,r,1,(-121.76378772032352, -121.76378772032348),26,25,4,no,m,6,m,0.6982789000030607,1,4,test2,2,0.6984436999773607,-70.0
19,cey,f,19,r,1,(-3.163262682197613e-14, -172.20000000000002),27,-5,12,no,m,6,m,0.7297167000069749,1,5,test2,2,0.7307522000046447,-70.0
19,cey,f,19,r,1,(121.76378772032346, -121.76378772032352),28,7,3,no,m,6,m,0.7422974999935832,1,6,test2,2,0.7427156000048853,-70.0
19,cey,f,19,r,1,(-3.163262682197613e-14, -172.20000000000002),27,3,1,no,m,6,m,0.7108538000029512,1,7,test2,2,0.711004699987825,-70.0
19,cey,f,19,r,1,(121.76378772032349, 121.76378772032349),22,3,1,yes,x,5,m,0.592705000017304,0,8,test2,2,0.5930453999899328,-42.0
19,cey,f,19,r,1,(121.76378772032346, -121.76378772032352),28,-5,12,no,m,6,m,1.0339537000108976,1,9,test2,2,1.0340685000119265,-42.0
19,cey,f,19,r,1,(1.0544208940658713e-14, 172.20000000000002),23,7,3,no,m,6,m,1.0467306000064127,1,10,test2,2,1.0473385000077542,-42.0
19,cey,f,19,r,1,(121.76378772032346, -121.76378772032352),28,5,2,yes,x,5,x,0.5354679999873042,1,11,test2,2,0.5361343999975361,-40.0
19,cey,f,19,r,1,(121.76378772032349, 121.76378772032349),22,-3,11,yes,x,5,m,0.65221980001661,0,12,test2,2,0.6527382000058424,-48.0
19,cey,f,19,r,1,(-172.20000000000002, 2.1088417881317425e-14),25,7,3,yes,x,5,x,0.6233129999891389,1,13,test2,2,0.6234766999841668,-38.0
19,cey,f,19,r,1,(-121.76378772032352, -121.76378772032348),26,-25,14,yes,x,5,x,0.5228690999792889,1,14,test2,2,0.5233858000137843,-70.0
19,cey,f,19,r,1,(121.76378772032349, 121.76378772032349),22,5,2,no,m,6,m,0.8457871999999043,1,15,test2,2,0.846077599999262,-70.0
19,cey,f,19,r,1,(-172.20000000000002, 2.1088417881317425e-14),25,-5,12,yes,x,5,x,0.7384661000105552,1,16,test2,2,0.7385807000100613,-50.0
19,cey,f,19,r,1,(-3.163262682197613e-14, -172.20000000000002),27,5,2,yes,x,5,x,0.567078100022627,1,17,test2,2,0.5677699999941979,-40.0
19,cey,f,19,r,1,(-121.76378772032348, 121.76378772032349),24,5,2,yes,x,5,x,0.652226200007135,1,18,test2,2,0.6527231000072788,-40.0
19,cey,f,19,r,1,(121.76378772032349, 121.76378772032349),22,7,3,yes,x,5,x,0.6328177999821492,1,19,test2,2,0.6330063999921549,-38.0
19,cey,f,19,r,1,(121.76378772032349, 121.76378772032349),22,25,4,no,m,6,m,0.9782674000016414,1,20,test2,2,0.9784269999945536,-38.0
19,cey,f,19,r,1,(172.20000000000002, 0.0),21,-25,14,no,m,6,m,0.8521155999915209,1,21,test2,2,0.8523608999967109,-38.0
19,cey,f,19,r,1,(121.76378772032346, -121.76378772032352),28,-3,11,yes,x,5,x,1.1516064000024926,1,22,test2,2,1.1517324000014924,-48.0
19,cey,f,19,r,1,(-172.20000000000002, 2.1088417881317425e-14),25,3,1,yes,x,5,m,0.9859903999895323,0,23,test2,2,0.9862273999897297,-42.0
19,cey,f,19,r,1,(-172.20000000000002, 2.1088417881317425e-14),25,25,4,yes,x,5,x,0.48074719999567606,1,24,test2,2,0.4808517000055872,-20.0
19,cey,f,19,r,1,(-172.20000000000002, 2.1088417881317425e-14),25,-3,11,yes,x,5,m,1.053456499997992,0,25,test2,2,1.0536039999860805,-48.0
19,cey,f,19,r,1,(1.0544208940658713e-14, 172.20000000000002),23,7,3,yes,x,5,x,0.4907007000001613,1,26,test2,2,0.4910946999734733,-38.0
19,cey,f,19,r,1,(121.76378772032346, -121.76378772032352),28,-3,11,no,m,6,m,0.936251999984961,1,27,test2,2,0.9364170999906491,-38.0
19,cey,f,19,r,1,(172.20000000000002, 0.0),21,7,3,yes,x,5,x,0.5249902999785263,1,28,test2,2,0.5252170000167098,-38.0
19,cey,f,19,r,1,(1.0544208940658713e-14, 172.20000000000002),23,-7,13,yes,x,5,x,0.5963047999830451,1,29,test2,2,0.5968908999930136,-52.0
19,cey,f,19,r,1,(121.76378772032349, 121.76378772032349),22,-3,11,yes,x,5,x,1.0460441999894101,1,30,test2,2,1.0464256000122987,-48.0
19,cey,f,19,r,1,(-121.76378772032348, 121.76378772032349),24,3,1,no,m,6,m,0.738054400018882,1,31,test2,2,0.738453700003447,-48.0
19,cey,f,19,r,1,(-3.163262682197613e-14, -172.20000000000002),27,5,2,no,m,6,m,1.0604685000143945,1,32,test2,2,1.0606369999877643,-48.0
19,cey,f,19,r,1,(-121.76378772032348, 121.76378772032349),24,7,3,yes,x,5,x,0.5737922000116669,1,33,test2,2,0.5740381999930833,-38.0
19,cey,f,19,r,1,(121.76378772032349, 121.76378772032349),22,3,1,yes,x,5,x,0.9068584000051487,1,34,test2,2,0.9072897000005469,-42.0
19,cey,f,19,r,1,(-3.163262682197613e-14, -172.20000000000002),27,-3,11,no,m,6,m,0.7916228999965824,1,35,test2,2,0.7917385999753606,-42.0
19,cey,f,19,r,1,(-121.76378772032352, -121.76378772032348),26,5,2,yes,x,5,x,0.6980092999874614,1,36,test2,2,0.6982471000228543,-40.0
19,cey,f,19,r,1,(172.20000000000002, 0.0),21,5,2,yes,x,5,x,0.8255372999992687,1,37,test2,2,0.8256714000017382,-40.0
19,cey,f,19,r,1,(172.20000000000002, 0.0),21,7,3,no,m,6,m,0.908265299978666,1,38,test2,2,0.9085632000060286,-40.0
19,cey,f,19,r,1,(121.76378772032349, 121.76378772032349),22,25,4,yes,x,5,x,0.508489500003634,1,39,test2,2,0.5086076000006869,-20.0
19,cey,f,19,r,1,(-3.163262682197613e-14, -172.20000000000002),27,-3,11,yes,x,5,m,1.0186914000078104,0,40,test2,2,1.019399999990128,-48.0
19,cey,f,19,r,1,(121.76378772032349, 121.76378772032349),22,-5,12,yes,x,5,x,0.649648899998283,1,41,test2,2,0.6498376000090502,-50.0
19,cey,f,19,r,1,(-172.20000000000002, 2.1088417881317425e-14),25,-7,13,yes,x,5,m,0.8040876999730244,0,42,test2,2,0.8047944999998435,-52.0
19,cey,f,19,r,1,(1.0544208940658713e-14, 172.20000000000002),23,-3,11,yes,x,5,x,1.0917451999848709,1,43,test2,2,1.091982400015695,-48.0
19,cey,f,19,r,1,(-3.163262682197613e-14, -172.20000000000002),27,25,4,no,m,6,m,1.1136113999818917,1,44,test2,2,1.1138481999805663,-48.0
19,cey,f,19,r,1,(-121.76378772032352, -121.76378772032348),26,5,2,no,m,6,m,1.095154000009643,1,45,test2,2,1.0953052999975625,-48.0
19,cey,f,19,r,1,(1.0544208940658713e-14, 172.20000000000002),23,25,4,yes,x,5,x,0.45418719999725,1,46,test2,2,0.4545810999989044,-20.0
19,cey,f,19,r,1,(121.76378772032349, 121.76378772032349),22,-7,13,yes,x,5,x,0.5672785000060685,1,47,test2,2,0.5675041000067722,-52.0
19,cey,f,19,r,1,(-172.20000000000002, 2.1088417881317425e-14),25,25,4,no,m,6,m,0.9221827999863308,1,48,test2,2,0.9224857999943197,-52.0
19,cey,f,19,r,1,(-121.76378772032348, 121.76378772032349),24,3,1,yes,x,5,x,1.0400291999976616,1,49,test2,2,1.0403450000158045,-42.0
19,cey,f,19,r,1,(-172.20000000000002, 2.1088417881317425e-14),25,3,1,no,m,6,m,1.0419262000068557,1,50,test2,2,1.042250200000126,-42.0
19,cey,f,19,r,1,(1.0544208940658713e-14, 172.20000000000002),23,25,4,no,m,6,m,0.9433276999916416,1,51,test2,2,0.9434492999862414,-42.0
19,cey,f,19,r,1,(121.76378772032346, -121.76378772032352),28,-7,13,yes,x,5,x,0.5527010999794584,1,52,test2,2,0.5529590000223834,-52.0
19,cey,f,19,r,1,(172.20000000000002, 0.0),21,3,1,yes,x,5,x,1.2097451000008732,1,53,test2,2,1.2099009999947157,-42.0
19,cey,f,19,r,1,(172.20000000000002, 0.0),21,-5,12,no,m,6,m,0.9772739000036381,1,54,test2,2,0.9773784999852069,-42.0
19,cey,f,19,r,1,(1.0544208940658713e-14, 172.20000000000002),23,25,4,yes,x,5,x,0.5248155999870505,1,55,test2,2,0.524918000010075,-20.0
19,cey,f,19,r,1,(-121.76378772032348, 121.76378772032349),24,-7,13,yes,x,5,x,0.6560548999987077,1,56,test2,2,0.6562841999984812,-52.0
19,cey,f,19,r,1,(-121.76378772032352, -121.76378772032348),26,25,4,yes,x,5,x,0.6144255999824964,1,57,test2,2,0.6145264999940991,-20.0
19,cey,f,19,r,1,(-121.76378772032352, -121.76378772032348),26,-3,11,no,m,6,m,0.8389840000018012,1,58,test2,2,0.8393796000164002,-20.0
19,cey,f,19,r,1,(121.76378772032346, -121.76378772032352),28,-5,12,yes,x,5,x,0.6678753000160214,1,59,test2,2,0.6680985999992117,-50.0
19,cey,f,19,r,1,(121.76378772032349, 121.76378772032349),22,25,4,yes,x,5,x,0.521992499998305,1,60,test2,2,0.5222157000098377,-20.0
19,cey,f,19,r,1,(121.76378772032346, -121.76378772032352),28,5,2,no,m,6,m,0.9118290999904275,1,61,test2,2,0.9120321999944281,-20.0
19,cey,f,19,r,1,(-3.163262682197613e-14, -172.20000000000002),27,25,4,yes,x,5,x,0.5109045999997761,1,62,test2,2,0.5111985999974422,-20.0
19,cey,f,19,r,1,(-172.20000000000002, 2.1088417881317425e-14),25,5,2,yes,x,5,m,0.9469375000044238,0,63,test2,2,0.9470399999991059,-40.0
19,cey,f,19,r,1,(172.20000000000002, 0.0),21,-5,12,yes,x,5,x,0.5941198999935295,1,64,test2,2,0.594281499972567,-50.0
19,cey,f,19,r,1,(-3.163262682197613e-14, -172.20000000000002),27,-7,13,yes,x,5,x,0.6331256999983452,1,65,test2,2,0.6332583000184968,-52.0
19,cey,f,19,r,1,(121.76378772032346, -121.76378772032352),28,-5,12,yes,x,5,x,0.8587959999858867,1,66,test2,2,0.8596241000050213,-50.0
19,cey,f,19,r,1,(121.76378772032349, 121.76378772032349),22,-3,11,no,m,6,m,1.001568200008478,1,67,test2,2,1.001882199983811,-50.0
19,cey,f,19,r,1,(1.0544208940658713e-14, 172.20000000000002),23,5,2,no,m,6,m,0.8940044000046328,1,68,test2,2,0.89415320000262,-50.0
19,cey,f,19,r,1,(121.76378772032346, -121.76378772032352),28,25,4,no,m,6,m,0.9223463000089396,1,69,test2,2,0.9225090999971144,-50.0
19,cey,f,19,r,1,(121.76378772032346, -121.76378772032352),28,-3,11,yes,x,5,m,1.1094511999981478,0,70,test2,2,1.1096664000069723,-48.0
19,cey,f,19,r,1,(172.20000000000002, 0.0),21,-25,14,yes,x,5,x,0.5338017999893054,1,71,test2,2,0.5338991000025999,-70.0
19,cey,f,19,r,1,(-172.20000000000002, 2.1088417881317425e-14),25,5,2,no,m,6,m,0.8250946999760345,1,72,test2,2,0.8252345999935642,-70.0
19,cey,f,19,r,1,(-121.76378772032352, -121.76378772032348),26,-7,13,yes,x,5,x,0.6329225999943446,1,73,test2,2,0.6330464000056963,-52.0
19,cey,f,19,r,1,(1.0544208940658713e-14, 172.20000000000002),23,-5,12,yes,x,5,x,0.6942258999915794,1,74,test2,2,0.6945140000025276,-50.0
19,cey,f,19,r,1,(-172.20000000000002, 2.1088417881317425e-14),25,7,3,yes,x,5,x,0.8395837999996729,1,75,test2,2,0.8400444999861065,-38.0
19,cey,f,19,r,1,(-121.76378772032348, 121.76378772032349),24,-25,14,no,m,6,m,0.8914170999778435,1,76,test2,2,0.8915845000010449,-38.0
19,cey,f,19,r,1,(121.76378772032349, 121.76378772032349),22,5,2,yes,x,5,x,0.708209500007797,1,77,test2,2,0.7085756000014953,-40.0
19,cey,f,19,r,1,(172.20000000000002, 0.0),21,-7,13,no,m,6,m,0.7444422999978997,1,78,test2,2,0.7445449999941047,-40.0
19,cey,f,19,r,1,(172.20000000000002, 0.0),21,-3,11,yes,x,5,x,1.1705441000231076,1,79,test2,2,1.1708409000129905,-48.0
19,cey,f,19,r,1,(1.0544208940658713e-14, 172.20000000000002),23,3,1,no,m,6,m,0.824020300002303,1,80,test2,2,0.8244883999868762,-48.0
19,cey,f,19,r,1,(1.0544208940658713e-14, 172.20000000000002),23,-7,13,no,m,6,m,1.176232700003311,1,81,test2,2,1.1764869000180624,-48.0
19,cey,f,19,r,1,(-172.20000000000002, 2.1088417881317425e-14),25,3,1,yes,x,5,x,0.8945262999914121,1,82,test2,2,0.8946259999938775,-42.0
19,cey,f,19,r,1,(-3.163262682197613e-14, -172.20000000000002),27,-25,14,yes,x,5,x,0.5073577000002842,1,83,test2,2,0.5074640999955591,-70.0
19,cey,f,19,r,1,(121.76378772032349, 121.76378772032349),22,-7,13,yes,x,5,x,0.5676534000085667,1,84,test2,2,0.5677865000034217,-52.0
19,cey,f,19,r,1,(172.20000000000002, 0.0),21,3,1,no,m,6,m,0.7627784000069369,1,85,test2,2,0.7628835000214167,-52.0
19,cey,f,19,r,1,(-3.163262682197613e-14, -172.20000000000002),27,25,4,yes,x,5,x,0.47014439999475144,1,86,test2,2,0.470564999995986,-20.0
19,cey,f,19,r,1,(-3.163262682197613e-14, -172.20000000000002),27,-5,12,yes,x,5,x,0.5404769000015222,1,87,test2,2,0.5409065000130795,-50.0
19,cey,f,19,r,1,(-172.20000000000002, 2.1088417881317425e-14),25,-5,12,no,m,6,m,0.8390651000081562,1,88,test2,2,0.8391915000102017,-50.0
19,cey,f,19,r,1,(172.20000000000002, 0.0),21,-7,13,yes,x,5,x,0.4164259000099264,1,89,test2,2,0.4166360999806784,-52.0
19,cey,f,19,r,1,(1.0544208940658713e-14, 172.20000000000002),23,-5,12,yes,x,5,x,0.5934025000024121,1,90,test2,2,0.5936145999876317,-50.0
19,cey,f,19,r,1,(-121.76378772032352, -121.76378772032348),26,7,3,no,m,6,x,0.8886771999823395,0,91,test2,2,0.8887996000121348,-50.0
19,cey,f,19,r,1,(-121.76378772032348, 121.76378772032349),24,25,4,no,m,6,m,1.216622300009476,1,92,test2,2,1.2168557000113651,-50.0
19,cey,f,19,r,1,(172.20000000000002, 0.0),21,-3,11,yes,x,5,x,0.8721158000116702,1,93,test2,2,0.872335899999598,-48.0
19,cey,f,19,r,1,(-121.76378772032348, 121.76378772032349),24,-3,11,yes,x,5,x,1.6146031999960542,1,94,test2,2,1.614718400000129,-48.0
19,cey,f,19,r,1,(172.20000000000002, 0.0),21,5,2,no,m,6,m,0.7384855000127573,1,95,test2,2,0.7386271000141278,-48.0
19,cey,f,19,r,1,(172.20000000000002, 0.0),21,7,3,yes,x,5,x,0.6655728000041563,1,96,test2,2,0.6657370000029914,-38.0
19,cey,f,19,r,1,(-172.20000000000002, 2.1088417881317425e-14),25,-5,12,yes,x,5,x,0.6766684000031091,1,1,test1,3,0.6769680999859702,-50.0
19,cey,f,19,r,1,(-121.76378772032348, 121.76378772032349),24,7,3,yes,x,5,x,0.4437174999911804,1,2,test1,3,0.4438860999944154,-38.0
19,cey,f,19,r,1,(-172.20000000000002, 2.1088417881317425e-14),25,-25,14,yes,x,5,x,0.41222759999800473,1,3,test1,3,0.41235490000690334,-70.0
19,cey,f,19,r,1,(121.76378772032346, -121.76378772032352),28,7,3,yes,x,5,x,0.5701282999943942,1,4,test1,3,0.5703039999934845,-38.0
19,cey,f,19,r,1,(-121.76378772032352, -121.76378772032348),26,3,1,yes,x,5,m,0.6859922999865375,0,5,test1,3,0.6862276000028942,-42.0
19,cey,f,19,r,1,(121.76378772032346, -121.76378772032352),28,-25,14,no,m,6,m,0.7620733999938238,1,6,test1,3,0.7622012000065297,-42.0
19,cey,f,19,r,1,(-121.76378772032348, 121.76378772032349),24,-25,14,yes,x,5,x,0.4901611999957822,1,7,test1,3,0.4908171000133734,-70.0
19,cey,f,19,r,1,(1.0544208940658713e-14, 172.20000000000002),23,3,1,yes,x,5,x,0.5305888000002597,1,8,test1,3,0.5308982999995351,-42.0
19,cey,f,19,r,1,(-172.20000000000002, 2.1088417881317425e-14),25,7,3,no,m,6,m,0.9039355000131764,1,9,test1,3,0.9041418000124395,-42.0
19,cey,f,19,r,1,(-121.76378772032348, 121.76378772032349),24,5,2,no,m,6,m,0.889340199995786,1,10,test1,3,0.8895849999971688,-42.0
19,cey,f,19,r,1,(172.20000000000002, 0.0),21,25,4,yes,x,5,x,0.455312000005506,1,11,test1,3,0.4556319999974221,-20.0
19,cey,f,19,r,1,(121.76378772032349, 121.76378772032349),22,-25,14,yes,x,5,x,0.43431779998354614,1,12,test1,3,0.4346864999970421,-70.0
19,cey,f,19,r,1,(121.76378772032346, -121.76378772032352),28,-25,14,yes,x,5,x,0.4624922999937553,1,13,test1,3,0.46315929997945204,-70.0
19,cey,f,19,r,1,(-121.76378772032352, -121.76378772032348),26,-3,11,yes,x,5,m,0.8496367000043392,0,14,test1,3,0.8497894000029191,-48.0
19,cey,f,19,r,1,(-121.76378772032352, -121.76378772032348),26,-7,13,no,m,6,m,0.8906435999961104,1,15,test1,3,0.8908057000080589,-48.0
19,cey,f,19,r,1,(121.76378772032349, 121.76378772032349),22,-5,12,no,m,6,m,0.7401691999984905,1,16,test1,3,0.7402651000011247,-48.0
19,cey,f,19,r,1,(172.20000000000002, 0.0),21,-3,11,no,m,6,m,0.7413000999949872,1,17,test1,3,0.7417224000091664,-48.0
19,cey,f,19,r,1,(121.76378772032346, -121.76378772032352),28,25,4,yes,x,5,x,0.5463451000105124,1,18,test1,3,0.5464711000095122,-20.0
19,cey,f,19,r,1,(-3.163262682197613e-14, -172.20000000000002),27,7,3,yes,x,5,x,1.0659315999946557,1,19,test1,3,1.0661097000120208,-38.0
19,cey,f,19,r,1,(121.76378772032346, -121.76378772032352),28,7,3,yes,x,5,x,0.7418791000091005,1,20,test1,3,0.7420344999991357,-38.0
19,cey,f,19,r,1,(-172.20000000000002, 2.1088417881317425e-14),25,-7,13,yes,x,5,x,0.6794801999931224,1,21,test1,3,0.6798328000004403,-52.0
19,cey,f,19,r,1,(172.20000000000002, 0.0),21,-25,14,yes,x,5,x,0.5214909999922384,1,22,test1,3,0.5220312000019476,-70.0
19,cey,f,19,r,1,(-172.20000000000002, 2.1088417881317425e-14),25,-7,13,no,m,6,m,0.6823789000045508,1,23,test1,3,0.6826662000094075,-70.0
19,cey,f,19,r,1,(-121.76378772032348, 121.76378772032349),24,7,3,no,m,6,m,1.0454239000100642,1,24,test1,3,1.0456014999945182,-70.0
19,cey,f,19,r,1,(-121.76378772032348, 121.76378772032349),24,-7,13,yes,x,5,x,0.5287305999954697,1,25,test1,3,0.5290079999831505,-52.0
19,cey,f,19,r,1,(1.0544208940658713e-14, 172.20000000000002),23,7,3,yes,x,5,x,0.5199458000133745,1,26,test1,3,0.5200515000033192,-38.0
19,cey,f,19,r,1,(-121.76378772032352, -121.76378772032348),26,3,1,yes,x,5,m,0.7265382999903522,0,27,test1,3,0.726988500013249,-42.0
19,cey,f,19,r,1,(121.76378772032346, -121.76378772032352),28,-7,13,yes,x,5,x,0.6038082000159193,1,28,test1,3,0.6039072000130545,-52.0
19,cey,f,19,r,1,(1.0544208940658713e-14, 172.20000000000002),23,-5,12,no,m,6,m,0.7745146999950521,1,29,test1,3,0.7747068999742623,-52.0
19,cey,f,19,r,1,(-121.76378772032348, 121.76378772032349),24,-3,11,no,m,6,m,1.1001650000107475,1,30,test1,3,1.1004494999942835,-52.0
19,cey,f,19,r,1,(-172.20000000000002, 2.1088417881317425e-14),25,-3,11,yes,x,5,x,0.9306516000069678,1,31,test1,3,0.9311266000149772,-48.0
19,cey,f,19,r,1,(1.0544208940658713e-14, 172.20000000000002),23,3,1,yes,x,5,m,1.2328657000034582,0,32,test1,3,1.2331038999836892,-42.0
19,cey,f,19,r,1,(-3.163262682197613e-14, -172.20000000000002),27,3,1,yes,x,5,m,1.3559466000006068,0,33,test1,3,1.3564766999916174,-42.0
19,cey,f,19,r,1,(121.76378772032349, 121.76378772032349),22,7,3,yes,x,5,x,0.5815004000032786,1,34,test1,3,0.5816008999827318,-38.0
19,cey,f,19,r,1,(-121.76378772032352, -121.76378772032348),26,-25,14,yes,x,5,x,0.5359451999829616,1,35,test1,3,0.5362196999776643,-70.0
19,cey,f,19,r,1,(-121.76378772032348, 121.76378772032349),24,25,4,yes,x,5,x,0.4828089000075124,1,36,test1,3,0.4831183000060264,-20.0
19,cey,f,19,r,1,(121.76378772032349, 121.76378772032349),22,3,1,no,m,6,m,0.8406559000140987,1,37,test1,3,0.8408314000116661,-20.0
19,cey,f,19,r,1,(-121.76378772032352, -121.76378772032348),26,-7,13,yes,x,5,x,0.5660823000071105,1,38,test1,3,0.5661832999903709,-52.0
19,cey,f,19,r,1,(-172.20000000000002, 2.1088417881317425e-14),25,-25,14,yes,x,5,x,0.6504486000048928,1,39,test1,3,0.6506410999863874,-70.0
19,cey,f,19,r,1,(121.76378772032346, -121.76378772032352),28,-7,13,no,m,6,m,0.7376281000033487,1,40,test1,3,0.7377571000251919,-70.0
19,cey,f,19,r,1,(1.0544208940658713e-14, 172.20000000000002),23,5,2,yes,x,5,x,0.7372735000099055,1,41,test1,3,0.7377681000216398,-40.0
19,cey,f,19,r,1,(121.76378772032346, -121.76378772032352),28,25,4,yes,x,5,x,0.7327064000128303,1,42,test1,3,0.7328094000113197,-20.0
19,cey,f,19,r,1,(-121.76378772032348, 121.76378772032349),24,3,1,yes,x,5,x,1.0449144000012893,1,43,test1,3,1.0450313000183087,-42.0
19,cey,f,19,r,1,(-121.76378772032352, -121.76378772032348),26,7,3,yes,x,5,x,0.5527933999837842,1,44,test1,3,0.5529126999899745,-38.0
19,cey,f,19,r,1,(-121.76378772032352, -121.76378772032348),26,-5,12,yes,x,5,x,0.5663178999966476,1,45,test1,3,0.5665555000014137,-50.0
19,cey,f,19,r,1,(-121.76378772032348, 121.76378772032349),24,-25,14,yes,x,5,x,0.6024459999753162,1,46,test1,3,0.6027602999820374,-70.0
19,cey,f,19,r,1,(-121.76378772032352, -121.76378772032348),26,-3,11,yes,x,5,m,1.284745999990264,0,47,test1,3,1.284912200004328,-48.0
19,cey,f,19,r,1,(-3.163262682197613e-14, -172.20000000000002),27,-25,14,yes,x,5,x,0.46752470001229085,1,48,test1,3,0.46770399998058565,-70.0
19,cey,f,19,r,1,(-121.76378772032352, -121.76378772032348),26,3,1,no,m,6,m,0.7249389000062365,1,49,test1,3,0.7252406999759842,-70.0
19,cey,f,19,r,1,(-3.163262682197613e-14, -172.20000000000002),27,-25,14,no,m,6,m,0.7402758999960497,1,50,test1,3,0.7415067999972962,-70.0
19,cey,f,19,r,1,(-172.20000000000002, 2.1088417881317425e-14),25,5,2,yes,x,5,x,0.9941147000063211,1,51,test1,3,0.9943690999934915,-40.0
19,cey,f,19,r,1,(-3.163262682197613e-14, -172.20000000000002),27,-7,13,no,m,6,m,1.1652761999866925,1,52,test1,3,1.1658044999931008,-40.0
19,cey,f,19,r,1,(-121.76378772032352, -121.76378772032348),26,7,3,yes,x,5,x,0.7270897999987938,1,53,test1,3,0.7274653999775182,-38.0
19,cey,f,19,r,1,(172.20000000000002, 0.0),21,5,2,yes,x,5,x,0.7245796000061091,1,54,test1,3,0.7247617999964859,-40.0
19,cey,f,19,r,1,(1.0544208940658713e-14, 172.20000000000002),23,-7,13,yes,x,5,x,0.5293642999895383,1,55,test1,3,0.5295889999833889,-52.0
19,cey,f,19,r,1,(121.76378772032349, 121.76378772032349),22,-25,14,yes,x,5,x,0.4263671000080649,1,56,test1,3,0.4268756000092253,-70.0
19,cey,f,19,r,1,(-121.76378772032348, 121.76378772032349),24,-5,12,yes,x,5,x,0.7656459999852814,1,57,test1,3,0.7659329999878537,-50.0
19,cey,f,19,r,1,(-121.76378772032348, 121.76378772032349),24,-3,11,yes,x,5,x,1.0268783000065014,1,58,test1,3,1.0272884999867529,-48.0
19,cey,f,19,r,1,(-121.76378772032348, 121.76378772032349),24,-7,13,no,m,6,m,0.808711299992865,1,59,test1,3,0.8088609999977052,-48.0
19,cey,f,19,r,1,(-172.20000000000002, 2.1088417881317425e-14),25,-3,11,no,m,6,m,1.130379299982451,1,60,test1,3,1.1305495999986306,-48.0
19,cey,f,19,r,1,(121.76378772032346, -121.76378772032352),28,3,1,yes,x,5,x,0.7605140000232495,1,61,test1,3,0.7606164000171702,-42.0
19,cey,f,19,r,1,(-3.163262682197613e-14, -172.20000000000002),27,7,3,no,m,6,x,0.9493194999813568,0,62,test1,3,0.9497854000073858,-42.0
19,cey,f,19,r,1,(-121.76378772032352, -121.76378772032348),26,5,2,yes,x,5,m,1.1815054999897256,0,63,test1,3,1.1817289000027813,-40.0
19,cey,f,19,r,1,(-121.76378772032348, 121.76378772032349),24,-5,12,yes,x,5,x,0.5847536999790464,1,64,test1,3,0.5849565000098664,-50.0
19,cey,f,19,r,1,(1.0544208940658713e-14, 172.20000000000002),23,-3,11,no,m,6,m,1.0185903000237886,1,65,test1,3,1.0186926000169478,-50.0
19,cey,f,19,r,1,(-3.163262682197613e-14, -172.20000000000002),27,-7,13,yes,x,5,x,0.5115323000063654,1,66,test1,3,0.5116353000048548,-52.0
19,cey,f,19,r,1,(1.0544208940658713e-14, 172.20000000000002),23,5,2,yes,x,5,x,0.832900499983225,1,67,test1,3,0.8336521000019275,-40.0
19,cey,f,19,r,1,(-3.163262682197613e-14, -172.20000000000002),27,-3,11,yes,x,5,x,1.273742300021695,1,68,test1,3,1.2742655999900308,-48.0
19,cey,f,19,r,1,(-121.76378772032352, -121.76378772032348),26,25,4,yes,x,5,x,0.6049674000241794,1,69,test1,3,0.6053550000069663,-20.0
19,cey,f,19,r,1,(121.76378772032349, 121.76378772032349),22,-7,13,no,m,6,m,1.2157740000111517,1,70,test1,3,1.2162656000000425,-20.0
19,cey,f,19,r,1,(-121.76378772032352, -121.76378772032348),26,-25,14,no,m,6,m,0.9597107000008691,1,71,test1,3,0.9598620999895502,-20.0
19,cey,f,19,r,1,(-121.76378772032348, 121.76378772032349),24,5,2,yes,x,5,x,0.4950773000018671,1,72,test1,3,0.49571339998510666,-40.0
19,cey,f,19,r,1,(1.0544208940658713e-14, 172.20000000000002),23,-25,14,no,m,6,m,0.7814902999962214,1,73,test1,3,0.7818934000097215,-40.0
19,cey,f,19,r,1,(-121.76378772032348, 121.76378772032349),24,-5,12,no,m,6,m,0.8409771999868099,1,74,test1,3,0.8411882999935187,-40.0
19,cey,f,19,r,1,(121.76378772032349, 121.76378772032349),22,5,2,yes,x,5,x,0.60674860002473,1,75,test1,3,0.6069323999981862,-40.0
19,cey,f,19,r,1,(-172.20000000000002, 2.1088417881317425e-14),25,25,4,yes,x,5,x,0.6372885000018869,1,76,test1,3,0.6379205999837723,-20.0
19,cey,f,19,r,1,(1.0544208940658713e-14, 172.20000000000002),23,-25,14,yes,x,5,x,0.5360164000012446,1,77,test1,3,0.5361160000029486,-70.0
19,cey,f,19,r,1,(172.20000000000002, 0.0),21,25,4,yes,x,5,m,0.48441589999129064,0,78,test1,3,0.4845981999824289,-20.0
19,cey,f,19,r,1,(121.76378772032346, -121.76378772032352),28,3,1,yes,x,5,m,0.6986003000056371,0,79,test1,3,0.698713099991437,-42.0
19,cey,f,19,r,1,(-3.163262682197613e-14, -172.20000000000002),27,5,2,yes,x,5,x,0.6287974999868311,1,80,test1,3,0.6292006000003312,-40.0
19,cey,f,19,r,1,(121.76378772032346, -121.76378772032352),28,5,2,yes,x,5,x,0.5542738999938592,1,81,test1,3,0.5545175999868661,-40.0
19,cey,f,19,r,1,(1.0544208940658713e-14, 172.20000000000002),23,-3,11,yes,x,5,m,0.719895100017311,0,82,test1,3,0.7204076999914832,-48.0
19,cey,f,19,r,1,(172.20000000000002, 0.0),21,3,1,yes,x,5,m,0.8562743999937084,0,83,test1,3,0.856709600018803,-42.0
19,cey,f,19,r,1,(172.20000000000002, 0.0),21,-7,13,yes,x,5,x,0.5759273000003304,1,84,test1,3,0.5760485999926459,-52.0
19,cey,f,19,r,1,(-121.76378772032352, -121.76378772032348),26,-5,12,yes,x,5,x,0.5551517000130843,1,85,test1,3,0.5553846000111662,-50.0
19,cey,f,19,r,1,(-121.76378772032352, -121.76378772032348),26,-5,12,no,m,6,m,0.95265410002321,1,86,test1,3,0.9529587000142783,-50.0
19,cey,f,19,r,1,(-3.163262682197613e-14, -172.20000000000002),27,7,3,yes,x,5,x,0.5251093000115361,1,87,test1,3,0.525275000021793,-38.0
19,cey,f,19,r,1,(121.76378772032349, 121.76378772032349),22,7,3,no,m,6,m,0.6811714000068605,1,88,test1,3,0.6812915999908,-38.0
19,cey,f,19,r,1,(-3.163262682197613e-14, -172.20000000000002),27,-5,12,yes,x,5,x,0.6133040999993682,1,89,test1,3,0.6135887000127696,-50.0
19,cey,f,19,r,1,(121.76378772032346, -121.76378772032352),28,-25,14,yes,x,5,x,0.5371990999847185,1,90,test1,3,0.5374302999989595,-70.0
19,cey,f,19,r,1,(172.20000000000002, 0.0),21,-5,12,yes,x,5,x,0.7782678000221495,1,91,test1,3,0.7787859000090975,-50.0
19,cey,f,19,r,1,(-3.163262682197613e-14, -172.20000000000002),27,3,1,yes,x,5,x,0.9380134000093676,1,92,test1,3,0.938662700005807,-42.0
19,cey,f,19,r,1,(-172.20000000000002, 2.1088417881317425e-14),25,-25,14,no,m,6,m,0.7417764000128955,1,93,test1,3,0.7418935000023339,-42.0
19,cey,f,19,r,1,(121.76378772032349, 121.76378772032349),22,-5,12,yes,x,5,x,0.8579403999901842,1,94,test1,3,0.8581611000117846,-50.0
19,cey,f,19,r,1,(121.76378772032346, -121.76378772032352),28,3,1,no,m,6,m,0.7227455000102054,1,95,test1,3,0.7229753999854438,-50.0
19,cey,f,19,r,1,(-121.76378772032348, 121.76378772032349),24,25,4,yes,x,5,x,0.4771181000105571,1,96,test1,3,0.47722060000523925,-20.0
19,cey,f,19,r,1,(172.20000000000002, 0.0),21,25,4,no,m,6,m,0.8189942999742925,1,1,test2,3,0.8191573999938555,-20.0
19,cey,f,19,r,1,(121.76378772032349, 121.76378772032349),22,-25,14,no,m,6,m,0.7197393999958877,1,2,test2,3,0.7200173000164796,-20.0
19,cey,f,19,r,1,(1.0544208940658713e-14, 172.20000000000002),23,-25,14,yes,x,5,x,0.46717220000573434,1,3,test2,3,0.4672860999999102,-70.0
19,cey,f,19,r,1,(-121.76378772032352, -121.76378772032348),26,25,4,no,m,6,m,0.6288662000151817,1,4,test2,3,0.6289692999853287,-70.0
19,cey,f,19,r,1,(-3.163262682197613e-14, -172.20000000000002),27,-5,12,no,m,6,m,0.682277999992948,1,5,test2,3,0.6825641999894287,-70.0
19,cey,f,19,r,1,(121.76378772032346, -121.76378772032352),28,7,3,no,m,6,m,0.752282399975229,1,6,test2,3,0.75252239999827,-70.0
19,cey,f,19,r,1,(-3.163262682197613e-14, -172.20000000000002),27,3,1,no,m,6,m,0.5864086999790743,1,7,test2,3,0.5865077000053134,-70.0
19,cey,f,19,r,1,(121.76378772032349, 121.76378772032349),22,3,1,yes,x,5,x,0.695309200003976,1,8,test2,3,0.6954146999923978,-42.0
19,cey,f,19,r,1,(121.76378772032346, -121.76378772032352),28,-5,12,no,m,6,m,0.6928136999777053,1,9,test2,3,0.6930566000228282,-42.0
19,cey,f,19,r,1,(1.0544208940658713e-14, 172.20000000000002),23,7,3,no,m,6,x,1.027480699995067,0,10,test2,3,1.0275947999907658,-42.0
19,cey,f,19,r,1,(121.76378772032346, -121.76378772032352),28,5,2,yes,x,5,x,0.707694899989292,1,11,test2,3,0.7080239999922924,-40.0
19,cey,f,19,r,1,(121.76378772032349, 121.76378772032349),22,-3,11,yes,x,5,x,1.0984247000014875,1,12,test2,3,1.0985646999906749,-48.0
19,cey,f,19,r,1,(-172.20000000000002, 2.1088417881317425e-14),25,7,3,yes,x,5,x,0.9053572999837343,1,13,test2,3,0.9055853000027128,-38.0
19,cey,f,19,r,1,(-121.76378772032352, -121.76378772032348),26,-25,14,yes,x,5,x,0.5327037000097334,1,14,test2,3,0.5328266999858897,-70.0
19,cey,f,19,r,1,(121.76378772032349, 121.76378772032349),22,5,2,no,m,6,m,0.9464800999849103,1,15,test2,3,0.9468893999874126,-70.0
19,cey,f,19,r,1,(-172.20000000000002, 2.1088417881317425e-14),25,-5,12,yes,x,5,x,1.0219359999755397,1,16,test2,3,1.0222544000134803,-50.0
19,cey,f,19,r,1,(-3.163262682197613e-14, -172.20000000000002),27,5,2,yes,x,5,x,1.0661098000127822,1,17,test2,3,1.066244200017536,-40.0
19,cey,f,19,r,1,(-121.76378772032348, 121.76378772032349),24,5,2,yes,x,5,x,0.5336132000084035,1,18,test2,3,0.5341363000043202,-40.0
19,cey,f,19,r,1,(121.76378772032349, 121.76378772032349),22,7,3,yes,x,5,x,0.6008863000024576,1,19,test2,3,0.6009905000100844,-38.0
19,cey,f,19,r,1,(121.76378772032349, 121.76378772032349),22,25,4,no,m,6,m,0.7059382000006735,1,20,test2,3,0.706036400020821,-38.0
19,cey,f,19,r,1,(172.20000000000002, 0.0),21,-25,14,no,m,6,m,0.9583142999908887,1,21,test2,3,0.9584167999855708,-38.0
19,cey,f,19,r,1,(121.76378772032346, -121.76378772032352),28,-3,11,yes,x,5,m,0.9942728000169154,0,22,test2,3,0.9945066000218503,-48.0
19,cey,f,19,r,1,(-172.20000000000002, 2.1088417881317425e-14),25,3,1,yes,x,5,x,1.303937999997288,1,23,test2,3,1.3040421000041533,-42.0
19,cey,f,19,r,1,(-172.20000000000002, 2.1088417881317425e-14),25,25,4,yes,x,5,x,0.5042551000078674,1,24,test2,3,0.5043837999983225,-20.0
19,cey,f,19,r,1,(-172.20000000000002, 2.1088417881317425e-14),25,-3,11,yes,x,5,m,1.0172277000092436,0,25,test2,3,1.0174067000043578,-48.0
19,cey,f,19,r,1,(1.0544208940658713e-14, 172.20000000000002),23,7,3,yes,x,5,x,0.5774280999903567,1,26,test2,3,0.577580700017279,-38.0
19,cey,f,19,r,1,(121.76378772032346, -121.76378772032352),28,-3,11,no,m,6,m,0.8502073000126984,1,27,test2,3,0.8504956999968272,-38.0
19,cey,f,19,r,1,(172.20000000000002, 0.0),21,7,3,yes,x,5,x,0.5668162000074517,1,28,test2,3,0.5669752999965567,-38.0
19,cey,f,19,r,1,(1.0544208940658713e-14, 172.20000000000002),23,-7,13,yes,x,5,x,0.5414741999993566,1,29,test2,3,0.5415921999956481,-52.0
19,cey,f,19,r,1,(121.76378772032349, 121.76378772032349),22,-3,11,yes,x,5,m,1.4558713999867905,0,30,test2,3,1.4561252999992575,-48.0
19,cey,f,19,r,1,(-121.76378772032348, 121.76378772032349),24,3,1,no,m,6,m,0.7938054999976885,1,31,test2,3,0.7939484000089578,-48.0
19,cey,f,19,r,1,(-3.163262682197613e-14, -172.20000000000002),27,5,2,no,m,6,x,0.6666511000075843,0,32,test2,3,0.6669794000044931,-48.0
19,cey,f,19,r,1,(-121.76378772032348, 121.76378772032349),24,7,3,yes,x,5,x,0.655042800004594,1,33,test2,3,0.655142599978717,-38.0
19,cey,f,19,r,1,(121.76378772032349, 121.76378772032349),22,3,1,yes,x,5,x,0.8823855000082403,1,34,test2,3,0.8826741999946535,-42.0
19,cey,f,19,r,1,(-3.163262682197613e-14, -172.20000000000002),27,-3,11,no,m,6,m,1.0998963000020012,1,35,test2,3,1.1001390000164974,-42.0
19,cey,f,19,r,1,(-121.76378772032352, -121.76378772032348),26,5,2,yes,x,5,x,0.630391700018663,1,36,test2,3,0.6306836000003386,-40.0
19,cey,f,19,r,1,(172.20000000000002, 0.0),21,5,2,yes,x,5,x,0.7461980000080075,1,37,test2,3,0.7469091999810189,-40.0
19,cey,f,19,r,1,(172.20000000000002, 0.0),21,7,3,no,m,6,m,0.9494155000138562,1,38,test2,3,0.9497049000055995,-40.0
19,cey,f,19,r,1,(121.76378772032349, 121.76378772032349),22,25,4,yes,x,5,x,0.5430792000261135,1,39,test2,3,0.5434408000146504,-20.0
19,cey,f,19,r,1,(-3.163262682197613e-14, -172.20000000000002),27,-3,11,yes,x,5,x,0.9715511000249535,1,40,test2,3,0.9718528000230435,-48.0
19,cey,f,19,r,1,(121.76378772032349, 121.76378772032349),22,-5,12,yes,x,5,x,0.7886734000057913,1,41,test2,3,0.7889035000116564,-50.0
19,cey,f,19,r,1,(-172.20000000000002, 2.1088417881317425e-14),25,-7,13,yes,x,5,x,0.6070311999937985,1,42,test2,3,0.6077063999837264,-52.0
19,cey,f,19,r,1,(1.0544208940658713e-14, 172.20000000000002),23,-3,11,yes,x,5,x,0.6152749999891967,1,43,test2,3,0.6153780000167899,-48.0
19,cey,f,19,r,1,(-3.163262682197613e-14, -172.20000000000002),27,25,4,no,m,6,m,1.1226679000246804,1,44,test2,3,1.1227717000001576,-48.0
19,cey,f,19,r,1,(-121.76378772032352, -121.76378772032348),26,5,2,no,m,6,m,1.2952353000000585,1,45,test2,3,1.2954277000098955,-48.0
19,cey,f,19,r,1,(1.0544208940658713e-14, 172.20000000000002),23,25,4,yes,x,5,x,0.46663370000896975,1,46,test2,3,0.46716689999448135,-20.0
19,cey,f,19,r,1,(121.76378772032349, 121.76378772032349),22,-7,13,yes,x,5,x,0.4918314999958966,1,47,test2,3,0.4920610000262968,-52.0
19,cey,f,19,r,1,(-172.20000000000002, 2.1088417881317425e-14),25,25,4,no,m,6,m,0.8328329999931157,1,48,test2,3,0.8331175999774132,-52.0
19,cey,f,19,r,1,(-121.76378772032348, 121.76378772032349),24,3,1,yes,x,5,m,1.3676743999822065,0,49,test2,3,1.3679573999834247,-42.0
19,cey,f,19,r,1,(-172.20000000000002, 2.1088417881317425e-14),25,3,1,no,m,6,m,1.0358217000029981,1,50,test2,3,1.0364644000073895,-42.0
19,cey,f,19,r,1,(1.0544208940658713e-14, 172.20000000000002),23,25,4,no,m,6,x,0.5106277999875601,0,51,test2,3,0.5107540000171866,-42.0
19,cey,f,19,r,1,(121.76378772032346, -121.76378772032352),28,-7,13,yes,x,5,x,0.5986228999972809,1,52,test2,3,0.5989009999902919,-52.0
19,cey,f,19,r,1,(172.20000000000002, 0.0),21,3,1,yes,x,5,x,1.4504447000217624,1,53,test2,3,1.4505467000126373,-42.0
19,cey,f,19,r,1,(172.20000000000002, 0.0),21,-5,12,no,m,6,m,0.7818402999837417,1,54,test2,3,0.781971499993233,-42.0
19,cey,f,19,r,1,(1.0544208940658713e-14, 172.20000000000002),23,25,4,yes,x,5,x,0.4998845999944024,1,55,test2,3,0.5001541000092402,-20.0
19,cey,f,19,r,1,(-121.76378772032348, 121.76378772032349),24,-7,13,yes,x,5,x,0.7323515999887604,1,56,test2,3,0.7324548999895342,-52.0
19,cey,f,19,r,1,(-121.76378772032352, -121.76378772032348),26,25,4,yes,x,5,x,0.5344095999898855,1,57,test2,3,0.5347008999960963,-20.0
19,cey,f,19,r,1,(-121.76378772032352, -121.76378772032348),26,-3,11,no,m,6,m,0.6707638000079896,1,58,test2,3,0.6708818000042811,-20.0
19,cey,f,19,r,1,(121.76378772032346, -121.76378772032352),28,-5,12,yes,x,5,x,0.7389156999997795,1,59,test2,3,0.7391358000168111,-50.0
19,cey,f,19,r,1,(121.76378772032349, 121.76378772032349),22,25,4,yes,x,5,x,0.6551657000090927,1,60,test2,3,0.6555701000033878,-20.0
19,cey,f,19,r,1,(121.76378772032346, -121.76378772032352),28,5,2,no,m,6,x,0.9611625999968965,0,61,test2,3,0.9613469000032637,-20.0
19,cey,f,19,r,1,(-3.163262682197613e-14, -172.20000000000002),27,25,4,yes,x,5,x,0.4625350999995135,1,62,test2,3,0.4626936000131536,-20.0
19,cey,f,19,r,1,(-172.20000000000002, 2.1088417881317425e-14),25,5,2,yes,x,5,x,0.8243242999888025,1,63,test2,3,0.8246375000162516,-40.0
19,cey,f,19,r,1,(172.20000000000002, 0.0),21,-5,12,yes,x,5,x,0.6277813999913633,1,64,test2,3,0.6281205000123009,-50.0
19,cey,f,19,r,1,(-3.163262682197613e-14, -172.20000000000002),27,-7,13,yes,x,5,x,0.48436689999653026,1,65,test2,3,0.4844712000049185,-52.0
19,cey,f,19,r,1,(121.76378772032346, -121.76378772032352),28,-5,12,yes,x,5,x,0.6487101000093389,1,66,test2,3,0.6488485999871045,-50.0
19,cey,f,19,r,1,(121.76378772032349, 121.76378772032349),22,-3,11,no,m,6,m,0.7650832000072114,1,67,test2,3,0.7654924000089522,-50.0
19,cey,f,19,r,1,(1.0544208940658713e-14, 172.20000000000002),23,5,2,no,m,6,m,0.6415547000069637,1,68,test2,3,0.6416555999894626,-50.0
19,cey,f,19,r,1,(121.76378772032346, -121.76378772032352),28,25,4,no,m,6,m,1.0486000999808311,1,69,test2,3,1.0489995999960229,-50.0
19,cey,f,19,r,1,(121.76378772032346, -121.76378772032352),28,-3,11,yes,x,5,x,1.0372690000222065,1,70,test2,3,1.037376399995992,-48.0
19,cey,f,19,r,1,(172.20000000000002, 0.0),21,-25,14,yes,x,5,x,0.544238000002224,1,71,test2,3,0.544336499995552,-70.0
19,cey,f,19,r,1,(-172.20000000000002, 2.1088417881317425e-14),25,5,2,no,m,6,m,0.669601400004467,1,72,test2,3,0.669703199993819,-70.0
19,cey,f,19,r,1,(-121.76378772032352, -121.76378772032348),26,-7,13,yes,x,5,x,0.46315369999501854,1,73,test2,3,0.46328280001762323,-52.0
19,cey,f,19,r,1,(1.0544208940658713e-14, 172.20000000000002),23,-5,12,yes,x,5,x,1.3432312000077218,1,74,test2,3,1.3437713999883272,-50.0
19,cey,f,19,r,1,(-172.20000000000002, 2.1088417881317425e-14),25,7,3,yes,x,5,x,0.6377453000168316,1,75,test2,3,0.6379310000047553,-38.0
19,cey,f,19,r,1,(-121.76378772032348, 121.76378772032349),24,-25,14,no,m,6,m,1.2861619000032078,1,76,test2,3,1.2863727000076324,-38.0
19,cey,f,19,r,1,(121.76378772032349, 121.76378772032349),22,5,2,yes,x,5,x,1.1672752000158653,1,77,test2,3,1.167503599979682,-40.0
19,cey,f,19,r,1,(172.20000000000002, 0.0),21,-7,13,no,m,6,m,0.9513388999912422,1,78,test2,3,0.9515813000034541,-40.0
19,cey,f,19,r,1,(172.20000000000002, 0.0),21,-3,11,yes,x,5,x,1.5182786000077613,1,79,test2,3,1.5188011999998707,-48.0
19,cey,f,19,r,1,(1.0544208940658713e-14, 172.20000000000002),23,3,1,no,m,6,x,0.7671200000040699,0,80,test2,3,0.767383600003086,-48.0
19,cey,f,19,r,1,(1.0544208940658713e-14, 172.20000000000002),23,-7,13,no,m,6,m,0.9155347000050824,1,81,test2,3,0.9158836000133306,-48.0
19,cey,f,19,r,1,(-172.20000000000002, 2.1088417881317425e-14),25,3,1,yes,x,5,m,1.2912303000048269,0,82,test2,3,1.2914788000052795,-42.0
19,cey,f,19,r,1,(-3.163262682197613e-14, -172.20000000000002),27,-25,14,yes,x,5,x,0.5256437000061851,1,83,test2,3,0.5258428000088315,-70.0
19,cey,f,19,r,1,(121.76378772032349, 121.76378772032349),22,-7,13,yes,x,5,x,0.6061360999883618,1,84,test2,3,0.6063919000152964,-52.0
19,cey,f,19,r,1,(172.20000000000002, 0.0),21,3,1,no,m,6,m,0.9319218999880832,1,85,test2,3,0.9325014999776613,-52.0
19,cey,f,19,r,1,(-3.163262682197613e-14, -172.20000000000002),27,25,4,yes,x,5,x,0.6090934000094421,1,86,test2,3,0.6097825000179,-20.0
19,cey,f,19,r,1,(-3.163262682197613e-14, -172.20000000000002),27,-5,12,yes,x,5,x,0.9092143000161741,1,87,test2,3,0.9095406999986153,-50.0
19,cey,f,19,r,1,(-172.20000000000002, 2.1088417881317425e-14),25,-5,12,no,m,6,m,0.9889358000073116,1,88,test2,3,0.9892210999969393,-50.0
19,cey,f,19,r,1,(172.20000000000002, 0.0),21,-7,13,yes,x,5,x,0.5420779999985825,1,89,test2,3,0.5423674999910872,-52.0
19,cey,f,19,r,1,(1.0544208940658713e-14, 172.20000000000002),23,-5,12,yes,x,5,x,0.5465576999995392,1,90,test2,3,0.5468358999933116,-50.0
19,cey,f,19,r,1,(-121.76378772032352, -121.76378772032348),26,7,3,no,m,6,m,0.8262620000168681,1,91,test2,3,0.8264870999846607,-50.0
19,cey,f,19,r,1,(-121.76378772032348, 121.76378772032349),24,25,4,no,m,6,m,0.6061612000048626,1,92,test2,3,0.6062586000189185,-50.0
19,cey,f,19,r,1,(172.20000000000002, 0.0),21,-3,11,yes,x,5,m,1.058543599996483,0,93,test2,3,1.0586713000084274,-48.0
19,cey,f,19,r,1,(-121.76378772032348, 121.76378772032349),24,-3,11,yes,x,5,x,0.7041536999749951,1,94,test2,3,0.7046589000092354,-48.0
19,cey,f,19,r,1,(172.20000000000002, 0.0),21,5,2,no,m,6,m,0.7118934000027366,1,95,test2,3,0.712204900017241,-48.0
19,cey,f,19,r,1,(172.20000000000002, 0.0),21,7,3,yes,x,5,x,0.5966331999807153,1,96,test2,3,0.5970390000147745,-38.0
19,cey,f,19,r,1,(-172.20000000000002, 2.1088417881317425e-14),25,-5,12,yes,x,5,x,0.681588900013594,1,1,test1,4,0.6818323999759741,-50.0
19,cey,f,19,r,1,(-121.76378772032348, 121.76378772032349),24,7,3,yes,x,5,x,0.5462198000168428,1,2,test1,4,0.5468849999888334,-38.0
19,cey,f,19,r,1,(-172.20000000000002, 2.1088417881317425e-14),25,-25,14,yes,x,5,x,0.35179720001178794,1,3,test1,4,0.3519091999914963,-70.0
19,cey,f,19,r,1,(121.76378772032346, -121.76378772032352),28,7,3,yes,x,5,x,0.5704960000002757,1,4,test1,4,0.5705981999926735,-38.0
19,cey,f,19,r,1,(-121.76378772032352, -121.76378772032348),26,3,1,yes,x,5,m,0.7183618000126444,0,5,test1,4,0.7184956999844871,-42.0
19,cey,f,19,r,1,(121.76378772032346, -121.76378772032352),28,-25,14,no,m,6,m,0.7577951999846846,1,6,test1,4,0.7580845000047702,-42.0
19,cey,f,19,r,1,(-121.76378772032348, 121.76378772032349),24,-25,14,yes,x,5,x,0.5359332999796607,1,7,test1,4,0.5360361999773886,-70.0
19,cey,f,19,r,1,(1.0544208940658713e-14, 172.20000000000002),23,3,1,yes,x,5,x,1.0867587000248022,1,8,test1,4,1.0870475000119768,-42.0
19,cey,f,19,r,1,(-172.20000000000002, 2.1088417881317425e-14),25,7,3,no,m,6,m,0.7552407000039238,1,9,test1,4,0.7554744000080973,-42.0
19,cey,f,19,r,1,(-121.76378772032348, 121.76378772032349),24,5,2,no,m,6,m,0.8520063000032678,1,10,test1,4,0.8524437000160106,-42.0
19,cey,f,19,r,1,(172.20000000000002, 0.0),21,25,4,yes,x,5,x,0.4862135000003036,1,11,test1,4,0.4863294999813661,-20.0
19,cey,f,19,r,1,(121.76378772032349, 121.76378772032349),22,-25,14,yes,x,5,x,0.49659369999426417,1,12,test1,4,0.4967490999842994,-70.0
19,cey,f,19,r,1,(121.76378772032346, -121.76378772032352),28,-25,14,yes,x,5,x,0.5009892000234686,1,13,test1,4,0.5011644999904092,-70.0
19,cey,f,19,r,1,(-121.76378772032352, -121.76378772032348),26,-3,11,yes,x,5,x,1.5808216999867,1,14,test1,4,1.5811261000053491,-48.0
19,cey,f,19,r,1,(-121.76378772032352, -121.76378772032348),26,-7,13,no,m,6,m,1.1353592000086792,1,15,test1,4,1.1355831999971997,-48.0
19,cey,f,19,r,1,(121.76378772032349, 121.76378772032349),22,-5,12,no,m,6,m,0.9014175999909639,1,16,test1,4,0.9015531999757513,-48.0
19,cey,f,19,r,1,(172.20000000000002, 0.0),21,-3,11,no,m,6,m,0.7435119999863673,1,17,test1,4,0.7436884999915492,-48.0
19,cey,f,19,r,1,(121.76378772032346, -121.76378772032352),28,25,4,yes,x,5,x,0.6775078999926336,1,18,test1,4,0.6776309999986552,-20.0
19,cey,f,19,r,1,(-3.163262682197613e-14, -172.20000000000002),27,7,3,yes,x,5,x,0.7606697999872267,1,19,test1,4,0.7608117000199854,-38.0
19,cey,f,19,r,1,(121.76378772032346, -121.76378772032352),28,7,3,yes,x,5,x,0.7863622000149917,1,20,test1,4,0.7864663999935146,-38.0
19,cey,f,19,r,1,(-172.20000000000002, 2.1088417881317425e-14),25,-7,13,yes,x,5,x,0.6255429000011645,1,21,test1,4,0.6257696000102442,-52.0
19,cey,f,19,r,1,(172.20000000000002, 0.0),21,-25,14,yes,x,5,x,0.46634489999269135,1,22,test1,4,0.46663880001869984,-70.0
19,cey,f,19,r,1,(-172.20000000000002, 2.1088417881317425e-14),25,-7,13,no,m,6,m,0.7791084999917075,1,23,test1,4,0.7792409000103362,-70.0
19,cey,f,19,r,1,(-121.76378772032348, 121.76378772032349),24,7,3,no,m,6,m,0.9078429999935906,1,24,test1,4,0.9080075999954715,-70.0
19,cey,f,19,r,1,(-121.76378772032348, 121.76378772032349),24,-7,13,yes,x,5,x,0.46861310000531375,1,25,test1,4,0.46871690000989474,-52.0
19,cey,f,19,r,1,(1.0544208940658713e-14, 172.20000000000002),23,7,3,yes,x,5,x,0.49108669999986887,1,26,test1,4,0.49118599999928847,-38.0
19,cey,f,19,r,1,(-121.76378772032352, -121.76378772032348),26,3,1,yes,x,5,m,0.8126440000196453,0,27,test1,4,0.8127479999966454,-42.0
19,cey,f,19,r,1,(121.76378772032346, -121.76378772032352),28,-7,13,yes,x,5,x,0.5237031000142451,1,28,test1,4,0.5242367000028025,-52.0
19,cey,f,19,r,1,(1.0544208940658713e-14, 172.20000000000002),23,-5,12,no,m,6,m,0.6121662000077777,1,29,test1,4,0.6125363000028301,-52.0
19,cey,f,19,r,1,(-121.76378772032348, 121.76378772032349),24,-3,11,no,m,6,m,0.5972280999994837,1,30,test1,4,0.5979252000106499,-52.0
19,cey,f,19,r,1,(-172.20000000000002, 2.1088417881317425e-14),25,-3,11,yes,x,5,x,1.1044843000127003,1,31,test1,4,1.1048412999953143,-48.0
19,cey,f,19,r,1,(1.0544208940658713e-14, 172.20000000000002),23,3,1,yes,x,5,m,0.6579337999864947,0,32,test1,4,0.6583878000092227,-42.0
19,cey,f,19,r,1,(-3.163262682197613e-14, -172.20000000000002),27,3,1,yes,x,5,x,1.0297930000233464,1,33,test1,4,1.0298944000096526,-42.0
19,cey,f,19,r,1,(121.76378772032349, 121.76378772032349),22,7,3,yes,x,5,x,0.572930099995574,1,34,test1,4,0.5730903999938164,-38.0
19,cey,f,19,r,1,(-121.76378772032352, -121.76378772032348),26,-25,14,yes,x,5,x,0.4787996999802999,1,35,test1,4,0.4790373000141699,-70.0
19,cey,f,19,r,1,(-121.76378772032348, 121.76378772032349),24,25,4,yes,x,5,x,0.43641210001078434,1,36,test1,4,0.4365354999899864,-20.0
19,cey,f,19,r,1,(121.76378772032349, 121.76378772032349),22,3,1,no,m,6,m,0.6643123000103515,1,37,test1,4,0.6647229999944102,-20.0
19,cey,f,19,r,1,(-121.76378772032352, -121.76378772032348),26,-7,13,yes,x,5,x,0.5509054000140168,1,38,test1,4,0.551358299999265,-52.0
19,cey,f,19,r,1,(-172.20000000000002, 2.1088417881317425e-14),25,-25,14,yes,x,5,x,0.4915138999931514,1,39,test1,4,0.49165119999088347,-70.0
19,cey,f,19,r,1,(121.76378772032346, -121.76378772032352),28,-7,13,no,m,6,m,0.7145730000047479,1,40,test1,4,0.7146890999865718,-70.0
19,cey,f,19,r,1,(1.0544208940658713e-14, 172.20000000000002),23,5,2,yes,x,5,x,1.0518067999801133,1,41,test1,4,1.0524869000073522,-40.0
19,cey,f,19,r,1,(121.76378772032346, -121.76378772032352),28,25,4,yes,x,5,x,0.5368192000023555,1,42,test1,4,0.537121399975149,-20.0
19,cey,f,19,r,1,(-121.76378772032348, 121.76378772032349),24,3,1,yes,x,5,x,0.5614316999854054,1,43,test1,4,0.5615731000143569,-42.0
19,cey,f,19,r,1,(-121.76378772032352, -121.76378772032348),26,7,3,yes,x,5,x,0.5243619999964722,1,44,test1,4,0.5244795999897178,-38.0
19,cey,f,19,r,1,(-121.76378772032352, -121.76378772032348),26,-5,12,yes,x,5,x,0.6032648000109475,1,45,test1,4,0.6036600999941584,-50.0
19,cey,f,19,r,1,(-121.76378772032348, 121.76378772032349),24,-25,14,yes,x,5,x,0.5410299000213854,1,46,test1,4,0.5411328000191133,-70.0
19,cey,f,19,r,1,(-121.76378772032352, -121.76378772032348),26,-3,11,yes,x,5,m,0.8677108999982011,0,47,test1,4,0.8679971999954432,-48.0
19,cey,f,19,r,1,(-3.163262682197613e-14, -172.20000000000002),27,-25,14,yes,x,5,x,0.5241128000197932,1,48,test1,4,0.5242776999948546,-70.0
19,cey,f,19,r,1,(-121.76378772032352, -121.76378772032348),26,3,1,no,m,6,m,1.0601749000197742,1,49,test1,4,1.0604810999939218,-70.0
19,cey,f,19,r,1,(-3.163262682197613e-14, -172.20000000000002),27,-25,14,no,m,6,m,0.8225508999894373,1,50,test1,4,0.8226551000261679,-70.0
19,cey,f,19,r,1,(-172.20000000000002, 2.1088417881317425e-14),25,5,2,yes,x,5,x,0.5832611000223551,1,51,test1,4,0.583376299997326,-40.0
19,cey,f,19,r,1,(-3.163262682197613e-14, -172.20000000000002),27,-7,13,no,m,6,m,0.5521183000237215,1,52,test1,4,0.5523164000187535,-40.0
19,cey,f,19,r,1,(-121.76378772032352, -121.76378772032348),26,7,3,yes,x,5,x,0.5794274999934714,1,53,test1,4,0.5795301999896765,-38.0
19,cey,f,19,r,1,(172.20000000000002, 0.0),21,5,2,yes,x,5,x,0.5778163999784738,1,54,test1,4,0.5779201000113972,-40.0
19,cey,f,19,r,1,(1.0544208940658713e-14, 172.20000000000002),23,-7,13,yes,x,5,x,0.5162271999870427,1,55,test1,4,0.5166295999952126,-52.0
19,cey,f,19,r,1,(121.76378772032349, 121.76378772032349),22,-25,14,yes,x,5,x,0.48482839998905547,1,56,test1,4,0.4851090000011027,-70.0
19,cey,f,19,r,1,(-121.76378772032348, 121.76378772032349),24,-5,12,yes,x,5,x,0.5729172000137623,1,57,test1,4,0.5732051999948453,-50.0
19,cey,f,19,r,1,(-121.76378772032348, 121.76378772032349),24,-3,11,yes,x,5,x,1.3588461999897845,1,58,test1,4,1.3589823999791406,-48.0
19,cey,f,19,r,1,(-121.76378772032348, 121.76378772032349),24,-7,13,no,m,6,m,0.9449411999958102,1,59,test1,4,0.9450936999928672,-48.0
19,cey,f,19,r,1,(-172.20000000000002, 2.1088417881317425e-14),25,-3,11,no,m,6,m,0.9603714999975637,1,60,test1,4,0.9607697000028566,-48.0
19,cey,f,19,r,1,(121.76378772032346, -121.76378772032352),28,3,1,yes,x,5,x,0.5935345999896526,1,61,test1,4,0.5937375999928918,-42.0
19,cey,f,19,r,1,(-3.163262682197613e-14, -172.20000000000002),27,7,3,no,m,6,m,1.3653801000036765,1,62,test1,4,1.3655490999808535,-42.0
19,cey,f,19,r,1,(-121.76378772032352, -121.76378772032348),26,5,2,yes,x,5,x,0.533850000007078,1,63,test1,4,0.5339621000166517,-40.0
19,cey,f,19,r,1,(-121.76378772032348, 121.76378772032349),24,-5,12,yes,x,5,x,0.4896749000181444,1,64,test1,4,0.49011199999949895,-50.0
19,cey,f,19,r,1,(1.0544208940658713e-14, 172.20000000000002),23,-3,11,no,m,6,m,0.6102572999952827,1,65,test1,4,0.6110367999935988,-50.0
19,cey,f,19,r,1,(-3.163262682197613e-14, -172.20000000000002),27,-7,13,yes,x,5,x,0.5254674000025261,1,66,test1,4,0.5258021999907214,-52.0
19,cey,f,19,r,1,(1.0544208940658713e-14, 172.20000000000002),23,5,2,yes,x,5,x,0.4946118999796454,1,67,test1,4,0.49490619997959584,-40.0
19,cey,f,19,r,1,(-3.163262682197613e-14, -172.20000000000002),27,-3,11,yes,x,5,x,1.0351829000283033,1,68,test1,4,1.035399399988819,-48.0
19,cey,f,19,r,1,(-121.76378772032352, -121.76378772032348),26,25,4,yes,x,5,x,0.4965820000215899,1,69,test1,4,0.49673600000096485,-20.0
19,cey,f,19,r,1,(121.76378772032349, 121.76378772032349),22,-7,13,no,m,6,m,0.7716791999991983,1,70,test1,4,0.7718451999826357,-20.0
19,cey,f,19,r,1,(-121.76378772032352, -121.76378772032348),26,-25,14,no,m,6,m,0.7434601999993902,1,71,test1,4,0.7435841999831609,-20.0
19,cey,f,19,r,1,(-121.76378772032348, 121.76378772032349),24,5,2,yes,x,5,x,0.4888358999742195,1,72,test1,4,0.48895629998878576,-40.0
19,cey,f,19,r,1,(1.0544208940658713e-14, 172.20000000000002),23,-25,14,no,m,6,m,0.8414568000007421,1,73,test1,4,0.8416832000075374,-40.0
19,cey,f,19,r,1,(-121.76378772032348, 121.76378772032349),24,-5,12,no,m,6,m,0.7132274000032339,1,74,test1,4,0.7135268999845721,-40.0
19,cey,f,19,r,1,(121.76378772032349, 121.76378772032349),22,5,2,yes,x,5,x,0.7258599000051618,1,75,test1,4,0.7266370999859646,-40.0
19,cey,f,19,r,1,(-172.20000000000002, 2.1088417881317425e-14),25,25,4,yes,x,5,x,0.6019365999964066,1,76,test1,4,0.6022503999993205,-20.0
19,cey,f,19,r,1,(1.0544208940658713e-14, 172.20000000000002),23,-25,14,yes,x,5,x,0.44725140000809915,1,77,test1,4,0.4473723999981303,-70.0
19,cey,f,19,r,1,(172.20000000000002, 0.0),21,25,4,yes,x,5,x,0.4854291999945417,1,78,test1,4,0.48554009999497794,-20.0
19,cey,f,19,r,1,(121.76378772032346, -121.76378772032352),28,3,1,yes,x,5,m,0.6848439000023063,0,79,test1,4,0.6849421000224538,-42.0
19,cey,f,19,r,1,(-3.163262682197613e-14, -172.20000000000002),27,5,2,yes,x,5,x,0.4912966000265442,1,80,test1,4,0.4915296999970451,-40.0
19,cey,f,19,r,1,(121.76378772032346, -121.76378772032352),28,5,2,yes,x,5,x,0.8390461999806575,1,81,test1,4,0.8393041999952402,-40.0
19,cey,f,19,r,1,(1.0544208940658713e-14, 172.20000000000002),23,-3,11,yes,x,5,x,0.6680619000107981,1,82,test1,4,0.668229800008703,-48.0
19,cey,f,19,r,1,(172.20000000000002, 0.0),21,3,1,yes,x,5,x,1.1049664999882225,1,83,test1,4,1.1050955999817234,-42.0
19,cey,f,19,r,1,(172.20000000000002, 0.0),21,-7,13,yes,x,5,x,0.5554212999995798,1,84,test1,4,0.5558612000022549,-52.0
19,cey,f,19,r,1,(-121.76378772032352, -121.76378772032348),26,-5,12,yes,x,5,x,0.5113706999982242,1,85,test1,4,0.5115975000080653,-50.0
19,cey,f,19,r,1,(-121.76378772032352, -121.76378772032348),26,-5,12,no,m,6,x,0.7343761999800336,0,86,test1,4,0.7345850999990944,-50.0
19,cey,f,19,r,1,(-3.163262682197613e-14, -172.20000000000002),27,7,3,yes,x,5,x,0.49900300000444986,1,87,test1,4,0.4990991000086069,-38.0
19,cey,f,19,r,1,(121.76378772032349, 121.76378772032349),22,7,3,no,m,6,m,0.8752743999939412,1,88,test1,4,0.8755449000163935,-38.0
19,cey,f,19,r,1,(-3.163262682197613e-14, -172.20000000000002),27,-5,12,yes,x,5,x,0.5209087999828625,1,89,test1,4,0.5213326000084635,-50.0
19,cey,f,19,r,1,(121.76378772032346, -121.76378772032352),28,-25,14,yes,x,5,x,0.5165121000027284,1,90,test1,4,0.516860399977304,-70.0
19,cey,f,19,r,1,(172.20000000000002, 0.0),21,-5,12,yes,x,5,x,0.5535929999896325,1,91,test1,4,0.5542482000018936,-50.0
19,cey,f,19,r,1,(-3.163262682197613e-14, -172.20000000000002),27,3,1,yes,x,5,x,0.5212751999788452,1,92,test1,4,0.5216911000024993,-42.0
19,cey,f,19,r,1,(-172.20000000000002, 2.1088417881317425e-14),25,-25,14,no,m,6,m,0.8198795999924187,1,93,test1,4,0.8203175000089686,-42.0
19,cey,f,19,r,1,(121.76378772032349, 121.76378772032349),22,-5,12,yes,x,5,x,0.5838471000024583,1,94,test1,4,0.5839604000211693,-50.0
19,cey,f,19,r,1,(121.76378772032346, -121.76378772032352),28,3,1,no,m,6,x,1.1314270999864675,0,95,test1,4,1.1315293999796268,-50.0
19,cey,f,19,r,1,(-121.76378772032348, 121.76378772032349),24,25,4,yes,x,5,x,0.4235968999855686,1,96,test1,4,0.42376360000343993,-20.0
19,cey,f,19,r,1,(172.20000000000002, 0.0),21,25,4,no,m,6,m,0.630244700005278,1,1,test2,4,0.6303990000160411,-20.0
19,cey,f,19,r,1,(121.76378772032349, 121.76378772032349),22,-25,14,no,m,6,m,0.46521900000516325,1,2,test2,4,0.46534509997582063,-20.0
19,cey,f,19,r,1,(1.0544208940658713e-14, 172.20000000000002),23,-25,14,yes,x,5,x,0.4316430000180844,1,3,test2,4,0.43180540000321344,-70.0
19,cey,f,19,r,1,(-121.76378772032352, -121.76378772032348),26,25,4,no,m,6,m,0.7118631000048481,1,4,test2,4,0.7121094000176527,-70.0
19,cey,f,19,r,1,(-3.163262682197613e-14, -172.20000000000002),27,-5,12,no,m,6,m,0.5408974000019953,1,5,test2,4,0.5413931999937631,-70.0
19,cey,f,19,r,1,(121.76378772032346, -121.76378772032352),28,7,3,no,m,6,m,0.45275180001044646,1,6,test2,4,0.4529119999788236,-70.0
19,cey,f,19,r,1,(-3.163262682197613e-14, -172.20000000000002),27,3,1,no,m,6,m,0.39760220001335256,1,7,test2,4,0.3979995000117924,-70.0
19,cey,f,19,r,1,(121.76378772032349, 121.76378772032349),22,3,1,yes,x,5,m,0.41236049999133684,0,8,test2,4,0.4124821999866981,-42.0
19,cey,f,19,r,1,(121.76378772032346, -121.76378772032352),28,-5,12,no,m,6,m,0.6222746999992523,1,9,test2,4,0.6224799000192434,-42.0
19,cey,f,19,r,1,(1.0544208940658713e-14, 172.20000000000002),23,7,3,no,m,6,m,0.5542516999994405,1,10,test2,4,0.5544733000278939,-42.0
19,cey,f,19,r,1,(121.76378772032346, -121.76378772032352),28,5,2,yes,x,5,x,0.6392568000010215,1,11,test2,4,0.639473800023552,-40.0
19,cey,f,19,r,1,(121.76378772032349, 121.76378772032349),22,-3,11,yes,x,5,m,0.5702362000010908,0,12,test2,4,0.5704071000218391,-48.0
19,cey,f,19,r,1,(-172.20000000000002, 2.1088417881317425e-14),25,7,3,yes,x,5,x,0.38885620000655763,1,13,test2,4,0.3890179000154603,-38.0
19,cey,f,19,r,1,(-121.76378772032352, -121.76378772032348),26,-25,14,yes,x,5,x,0.4076530000020284,1,14,test2,4,0.40781909998622723,-70.0
19,cey,f,19,r,1,(121.76378772032349, 121.76378772032349),22,5,2,no,m,6,m,0.6651128999947105,1,15,test2,4,0.6652089999988675,-70.0
19,cey,f,19,r,1,(-172.20000000000002, 2.1088417881317425e-14),25,-5,12,yes,x,5,x,0.7224412999930792,1,16,test2,4,0.7225400000170339,-50.0
19,cey,f,19,r,1,(-3.163262682197613e-14, -172.20000000000002),27,5,2,yes,x,5,m,0.6487774999986868,0,17,test2,4,0.6490633000212256,-40.0
19,cey,f,19,r,1,(-121.76378772032348, 121.76378772032349),24,5,2,yes,x,5,x,0.6081103000033181,1,18,test2,4,0.6082079999905545,-40.0
19,cey,f,19,r,1,(121.76378772032349, 121.76378772032349),22,7,3,yes,x,5,x,0.6534586999914609,1,19,test2,4,0.6536945000116248,-38.0
19,cey,f,19,r,1,(121.76378772032349, 121.76378772032349),22,25,4,no,m,6,m,1.2297634000133257,1,20,test2,4,1.2299547000147868,-38.0
19,cey,f,19,r,1,(172.20000000000002, 0.0),21,-25,14,no,m,6,m,0.8049696999951266,1,21,test2,4,0.8050962000270374,-38.0
19,cey,f,19,r,1,(121.76378772032346, -121.76378772032352),28,-3,11,yes,x,5,m,0.6925621000118554,0,22,test2,4,0.6932315000158269,-48.0
19,cey,f,19,r,1,(-172.20000000000002, 2.1088417881317425e-14),25,3,1,yes,x,5,x,0.7479566000110935,1,23,test2,4,0.7481788999866694,-42.0
19,cey,f,19,r,1,(-172.20000000000002, 2.1088417881317425e-14),25,25,4,yes,x,5,x,0.6403995000000577,1,24,test2,4,0.6406886000186205,-20.0
19,cey,f,19,r,1,(-172.20000000000002, 2.1088417881317425e-14),25,-3,11,yes,x,5,m,1.058691899990663,0,25,test2,4,1.0588303999975324,-48.0
19,cey,f,19,r,1,(1.0544208940658713e-14, 172.20000000000002),23,7,3,yes,x,5,m,0.7779653000179678,0,26,test2,4,0.7780824000074062,-38.0
19,cey,f,19,r,1,(121.76378772032346, -121.76378772032352),28,-3,11,no,m,6,m,1.9436447999905795,1,27,test2,4,1.943747599987546,-38.0
19,cey,f,19,r,1,(172.20000000000002, 0.0),21,7,3,yes,x,5,x,0.4445050999929663,1,28,test2,4,0.4446740999992471,-38.0
19,cey,f,19,r,1,(1.0544208940658713e-14, 172.20000000000002),23,-7,13,yes,x,5,x,0.509757299994817,1,29,test2,4,0.5098707999859471,-52.0
19,cey,f,19,r,1,(121.76378772032349, 121.76378772032349),22,-3,11,yes,x,5,m,0.6643868999963161,0,30,test2,4,0.6646112999878824,-48.0
19,cey,f,19,r,1,(-121.76378772032348, 121.76378772032349),24,3,1,no,m,6,m,0.9873970999906305,1,31,test2,4,0.9877882999717258,-48.0
19,cey,f,19,r,1,(-3.163262682197613e-14, -172.20000000000002),27,5,2,no,m,6,m,0.7344832000089809,1,32,test2,4,0.7347164000093471,-48.0
19,cey,f,19,r,1,(-121.76378772032348, 121.76378772032349),24,7,3,yes,x,5,x,0.5466823999886401,1,33,test2,4,0.5468039999832399,-38.0
19,cey,f,19,r,1,(121.76378772032349, 121.76378772032349),22,3,1,yes,x,5,m,0.7609388999990188,0,34,test2,4,0.7610688999993727,-42.0
19,cey,f,19,r,1,(-3.163262682197613e-14, -172.20000000000002),27,-3,11,no,m,6,m,0.7654589999874588,1,35,test2,4,0.7657362000027206,-42.0
19,cey,f,19,r,1,(-121.76378772032352, -121.76378772032348),26,5,2,yes,x,5,x,0.5868193999922369,1,36,test2,4,0.5869366000115406,-40.0
19,cey,f,19,r,1,(172.20000000000002, 0.0),21,5,2,yes,x,5,m,0.5596163000154775,0,37,test2,4,0.559748400002718,-40.0
19,cey,f,19,r,1,(172.20000000000002, 0.0),21,7,3,no,m,6,m,0.6546484999998938,1,38,test2,4,0.6551727000041865,-40.0
19,cey,f,19,r,1,(121.76378772032349, 121.76378772032349),22,25,4,yes,x,5,x,0.5445355999981984,1,39,test2,4,0.5458022000093479,-20.0
19,cey,f,19,r,1,(-3.163262682197613e-14, -172.20000000000002),27,-3,11,yes,x,5,x,0.7797526000067592,1,40,test2,4,0.7802952000056393,-48.0
19,cey,f,19,r,1,(121.76378772032349, 121.76378772032349),22,-5,12,yes,x,5,x,0.6393883000127971,1,41,test2,4,0.6397668000136036,-50.0
19,cey,f,19,r,1,(-172.20000000000002, 2.1088417881317425e-14),25,-7,13,yes,x,5,x,0.5951510999875609,1,42,test2,4,0.595385399996303,-52.0
19,cey,f,19,r,1,(1.0544208940658713e-14, 172.20000000000002),23,-3,11,yes,x,5,x,1.0785417000006419,1,43,test2,4,1.0786425000114832,-48.0
19,cey,f,19,r,1,(-3.163262682197613e-14, -172.20000000000002),27,25,4,no,m,6,m,0.626804200001061,1,44,test2,4,0.6269192000036128,-48.0
19,cey,f,19,r,1,(-121.76378772032352, -121.76378772032348),26,5,2,no,m,6,m,0.6764171999820974,1,45,test2,4,0.6767651000118349,-48.0
19,cey,f,19,r,1,(1.0544208940658713e-14, 172.20000000000002),23,25,4,yes,x,5,x,0.4722687000175938,1,46,test2,4,0.4723674000124447,-20.0
19,cey,f,19,r,1,(121.76378772032349, 121.76378772032349),22,-7,13,yes,x,5,x,0.7070687999948859,1,47,test2,4,0.7072832999983802,-52.0
19,cey,f,19,r,1,(-172.20000000000002, 2.1088417881317425e-14),25,25,4,no,m,6,m,0.6941428999998607,1,48,test2,4,0.6943040999758523,-52.0
19,cey,f,19,r,1,(-121.76378772032348, 121.76378772032349),24,3,1,yes,x,5,x,0.5950657000066712,1,49,test2,4,0.5951662000152282,-42.0
19,cey,f,19,r,1,(-172.20000000000002, 2.1088417881317425e-14),25,3,1,no,m,6,m,0.9908631000143941,1,50,test2,4,0.9909772000100929,-42.0
19,cey,f,19,r,1,(1.0544208940658713e-14, 172.20000000000002),23,25,4,no,m,6,m,0.9489530000137165,1,51,test2,4,0.9490675000124611,-42.0
19,cey,f,19,r,1,(121.76378772032346, -121.76378772032352),28,-7,13,yes,x,5,x,0.5859187000023667,1,52,test2,4,0.5860240000183694,-52.0
19,cey,f,19,r,1,(172.20000000000002, 0.0),21,3,1,yes,x,5,x,1.0190595000167377,1,53,test2,4,1.019173500011675,-42.0
19,cey,f,19,r,1,(172.20000000000002, 0.0),21,-5,12,no,m,6,m,1.4471026999817695,1,54,test2,4,1.4475400999945123,-42.0
19,cey,f,19,r,1,(1.0544208940658713e-14, 172.20000000000002),23,25,4,yes,x,5,x,0.465288999985205,1,55,test2,4,0.46541240002261475,-20.0
19,cey,f,19,r,1,(-121.76378772032348, 121.76378772032349),24,-7,13,yes,x,5,x,0.6577381000097375,1,56,test2,4,0.6580115999968257,-52.0
19,cey,f,19,r,1,(-121.76378772032352, -121.76378772032348),26,25,4,yes,x,5,x,0.6123014999902807,1,57,test2,4,0.6124178000027314,-20.0
19,cey,f,19,r,1,(-121.76378772032352, -121.76378772032348),26,-3,11,no,m,6,m,0.6255382000235841,1,58,test2,4,0.6257513000164181,-20.0
