subj_id,subj_name,subj_gender ,subj_age,subj_handedness,subj_runNum,tar_l_x,tar_l_y,loc_code,tar_ori,tar_code,tar_pre ,cor_response,pre_code,subj_response,RT,correct,trial_num,type,bloc_num,dur, real_tar
19,cey,f,19,r,2,(-3.163262682197613e-14, -172.20000000000002),27,-7,13,yes,x,5,x,0.7507783999999447,1,1,test1,1,0.751066400000127,-52.0
19,cey,f,19,r,2,(-172.20000000000002, 2.1088417881317425e-14),25,-3,11,yes,x,5,x,0.8188526999992973,1,2,test1,1,0.8192794999995385,-48.0
19,cey,f,19,r,2,(-172.20000000000002, 2.1088417881317425e-14),25,-25,14,yes,x,5,x,0.37320140000065294,1,3,test1,1,0.3733423000003313,-70.0
19,cey,f,19,r,2,(121.76378772032349, 121.76378772032349),22,25,4,yes,x,5,x,0.4373932999997123,1,4,test1,1,0.4379532000002655,-20.0
19,cey,f,19,r,2,(121.76378772032346, -121.76378772032352),28,5,2,yes,x,5,x,0.5778731999998854,1,5,test1,1,0.5780324000006658,-40.0
19,cey,f,19,r,2,(-3.163262682197613e-14, -172.20000000000002),27,3,1,yes,x,5,m,0.6655501000004733,0,6,test1,1,0.6660205999996833,-42.0
19,cey,f,19,r,2,(-172.20000000000002, 2.1088417881317425e-14),25,3,1,yes,x,5,m,1.0535110000000714,0,7,test1,1,1.0537445999998454,-42.0
19,cey,f,19,r,2,(-121.76378772032352, -121.76378772032348),26,-3,11,yes,x,5,x,1.4031540999994832,1,8,test1,1,1.4034130999998524,-48.0
19,cey,f,19,r,2,(-172.20000000000002, 2.1088417881317425e-14),25,-7,13,no,m,6,m,1.0297434000003705,1,9,test1,1,1.0299360999997589,-48.0
19,cey,f,19,r,2,(-121.76378772032348, 121.76378772032349),24,3,1,no,m,6,m,1.070380799999839,1,10,test1,1,1.070600199999717,-48.0
19,cey,f,19,r,2,(-3.163262682197613e-14, -172.20000000000002),27,7,3,yes,x,5,x,0.4828556000002209,1,11,test1,1,0.4829965999997512,-38.0
19,cey,f,19,r,2,(-3.163262682197613e-14, -172.20000000000002),27,-7,13,no,m,6,m,0.6748428000000786,1,12,test1,1,0.6750922000001083,-38.0
19,cey,f,19,r,2,(121.76378772032349, 121.76378772032349),22,-7,13,yes,x,5,x,0.4652013999993869,1,13,test1,1,0.4654569000003903,-52.0
19,cey,f,19,r,2,(121.76378772032346, -121.76378772032352),28,3,1,yes,x,5,x,1.102979299999788,1,14,test1,1,1.103387400000429,-42.0
19,cey,f,19,r,2,(121.76378772032346, -121.76378772032352),28,5,2,no,m,6,x,1.218504600000415,0,15,test1,1,1.2186110000002373,-42.0
19,cey,f,19,r,2,(-121.76378772032348, 121.76378772032349),24,-25,14,yes,x,5,x,0.5612721999996211,1,16,test1,1,0.5614730999996027,-70.0
19,cey,f,19,r,2,(121.76378772032349, 121.76378772032349),22,-3,11,no,m,6,m,0.6083439000003636,1,17,test1,1,0.6087019999995391,-70.0
19,cey,f,19,r,2,(1.0544208940658713e-14, 172.20000000000002),23,5,2,no,m,6,m,0.9988028999996459,1,18,test1,1,0.9989669000005961,-70.0
19,cey,f,19,r,2,(-121.76378772032352, -121.76378772032348),26,-5,12,yes,x,5,x,1.1007768999998007,1,19,test1,1,1.1008793999999398,-50.0
19,cey,f,19,r,2,(121.76378772032346, -121.76378772032352),28,7,3,yes,x,5,x,0.5182107999999062,1,20,test1,1,0.5190511000000697,-38.0
19,cey,f,19,r,2,(172.20000000000002, 0.0),21,-5,12,yes,x,5,x,0.41067629999997735,1,21,test1,1,0.4111475000008795,-50.0
19,cey,f,19,r,2,(-121.76378772032352, -121.76378772032348),26,-3,11,no,m,6,m,0.6546651999997266,1,22,test1,1,0.6549439000000348,-50.0
19,cey,f,19,r,2,(-121.76378772032352, -121.76378772032348),26,7,3,yes,x,5,x,0.5188054000000193,1,23,test1,1,0.5191186000001835,-38.0
19,cey,f,19,r,2,(-121.76378772032348, 121.76378772032349),24,-25,14,no,m,6,m,0.727085999999872,1,24,test1,1,0.7278316000001723,-38.0
19,cey,f,19,r,2,(-3.163262682197613e-14, -172.20000000000002),27,3,1,yes,x,5,x,0.4141522999998415,1,25,test1,1,0.4142726000000039,-42.0
19,cey,f,19,r,2,(121.76378772032346, -121.76378772032352),28,-7,13,yes,x,5,x,0.4566801000000851,1,26,test1,1,0.4570779000005132,-52.0
19,cey,f,19,r,2,(121.76378772032346, -121.76378772032352),28,-5,12,no,m,6,m,0.7113136999996641,1,27,test1,1,0.7114482999995744,-52.0
19,cey,f,19,r,2,(172.20000000000002, 0.0),21,3,1,no,m,6,m,0.9598270999995293,1,28,test1,1,0.9599560999995447,-52.0
19,cey,f,19,r,2,(-121.76378772032352, -121.76378772032348),26,-5,12,no,m,6,m,0.8683236000006218,1,29,test1,1,0.8687055999998847,-52.0
19,cey,f,19,r,2,(1.0544208940658713e-14, 172.20000000000002),23,-7,13,yes,x,5,x,0.423105900000337,1,30,test1,1,0.42375369999990653,-52.0
19,cey,f,19,r,2,(-172.20000000000002, 2.1088417881317425e-14),25,25,4,yes,x,5,x,0.37427540000044246,1,31,test1,1,0.374450500000421,-20.0
19,cey,f,19,r,2,(172.20000000000002, 0.0),21,5,2,no,m,6,m,0.6971103000005314,1,32,test1,1,0.6972261000000799,-20.0
19,cey,f,19,r,2,(-121.76378772032352, -121.76378772032348),26,-7,13,yes,x,5,x,0.43313279999983934,1,33,test1,1,0.4334036999998716,-52.0
19,cey,f,19,r,2,(172.20000000000002, 0.0),21,-3,11,no,m,6,m,0.7691067000005205,1,34,test1,1,0.7693423000000621,-52.0
19,cey,f,19,r,2,(-3.163262682197613e-14, -172.20000000000002),27,5,2,yes,x,5,x,0.6090950999996494,1,35,test1,1,0.609233399999539,-40.0
19,cey,f,19,r,2,(121.76378772032346, -121.76378772032352),28,-25,14,no,m,6,m,0.7868963000000804,1,36,test1,1,0.7870198999999047,-40.0
19,cey,f,19,r,2,(-172.20000000000002, 2.1088417881317425e-14),25,25,4,yes,x,5,x,0.355183799999395,1,37,test1,1,0.3553769000000102,-20.0
19,cey,f,19,r,2,(121.76378772032349, 121.76378772032349),22,-3,11,yes,x,5,m,0.8805584000001545,0,38,test1,1,0.8807947000004788,-48.0
19,cey,f,19,r,2,(-3.163262682197613e-14, -172.20000000000002),27,-5,12,no,m,6,m,0.5758526999998139,1,39,test1,1,0.5759582000000592,-48.0
19,cey,f,19,r,2,(-3.163262682197613e-14, -172.20000000000002),27,5,2,no,m,6,m,0.8867921000000933,1,40,test1,1,0.8869653000001563,-48.0
19,cey,f,19,r,2,(121.76378772032349, 121.76378772032349),22,-7,13,no,m,6,m,0.6152938000004724,1,41,test1,1,0.6157131999998455,-48.0
19,cey,f,19,r,2,(121.76378772032349, 121.76378772032349),22,25,4,no,m,6,m,0.7979158000007374,1,42,test1,1,0.798161099999561,-48.0
19,cey,f,19,r,2,(-172.20000000000002, 2.1088417881317425e-14),25,-7,13,yes,x,5,x,0.5971892999996271,1,43,test1,1,0.5974372999999105,-52.0
19,cey,f,19,r,2,(172.20000000000002, 0.0),21,-5,12,yes,x,5,m,0.50089349999962,0,44,test1,1,0.5011018000004697,-50.0
19,cey,f,19,r,2,(121.76378772032346, -121.76378772032352),28,-3,11,no,m,6,m,0.6891347000000678,1,45,test1,1,0.6893069999996442,-50.0
19,cey,f,19,r,2,(172.20000000000002, 0.0),21,7,3,yes,x,5,x,0.3428561000000627,1,46,test1,1,0.3432343000004039,-38.0
19,cey,f,19,r,2,(-172.20000000000002, 2.1088417881317425e-14),25,3,1,no,m,6,m,0.528707100000247,1,47,test1,1,0.5289269000004424,-38.0
19,cey,f,19,r,2,(1.0544208940658713e-14, 172.20000000000002),23,-3,11,yes,x,5,x,0.6206443999999465,1,48,test1,1,0.6208815999998478,-48.0
19,cey,f,19,r,2,(172.20000000000002, 0.0),21,-25,14,yes,x,5,x,0.38797470000008616,1,49,test1,1,0.3883646999993289,-70.0
19,cey,f,19,r,2,(-3.163262682197613e-14, -172.20000000000002),27,7,3,yes,x,5,x,0.43392260000018723,1,50,test1,1,0.4340533000004143,-38.0
19,cey,f,19,r,2,(172.20000000000002, 0.0),21,-25,14,no,m,6,m,0.6706036999994467,1,51,test1,1,0.670780299999933,-38.0
19,cey,f,19,r,2,(-3.163262682197613e-14, -172.20000000000002),27,-3,11,no,m,6,m,0.7853024000005462,1,52,test1,1,0.7856191999999282,-38.0
19,cey,f,19,r,2,(-121.76378772032352, -121.76378772032348),26,-7,13,yes,x,5,x,0.388228199999503,1,53,test1,1,0.38846039999953064,-52.0
19,cey,f,19,r,2,(-3.163262682197613e-14, -172.20000000000002),27,-5,12,yes,x,5,x,0.4287610000001223,1,54,test1,1,0.4289089000003514,-50.0
19,cey,f,19,r,2,(121.76378772032349, 121.76378772032349),22,5,2,no,m,6,m,0.6359471999994639,1,55,test1,1,0.6360485000004701,-50.0
19,cey,f,19,r,2,(-121.76378772032352, -121.76378772032348),26,-7,13,no,m,6,m,0.765565599999718,1,56,test1,1,0.7658601999992243,-50.0
19,cey,f,19,r,2,(-121.76378772032348, 121.76378772032349),24,-7,13,no,m,6,m,1.0492062000002988,1,57,test1,1,1.0493598000002748,-50.0
19,cey,f,19,r,2,(121.76378772032349, 121.76378772032349),22,7,3,no,m,6,m,0.9419604000004256,1,58,test1,1,0.9422770000001037,-50.0
19,cey,f,19,r,2,(1.0544208940658713e-14, 172.20000000000002),23,-5,12,yes,x,5,x,0.3457005999998728,1,59,test1,1,0.3458878999999797,-50.0
19,cey,f,19,r,2,(-121.76378772032348, 121.76378772032349),24,7,3,no,m,6,m,1.0042198000001008,1,60,test1,1,1.0044664000006378,-50.0
19,cey,f,19,r,2,(-3.163262682197613e-14, -172.20000000000002),27,7,3,no,m,6,m,0.7914927000001626,1,61,test1,1,0.7918331000000762,-50.0
19,cey,f,19,r,2,(-121.76378772032352, -121.76378772032348),26,7,3,no,m,6,x,0.8979461999997511,0,62,test1,1,0.8981743000003917,-50.0
19,cey,f,19,r,2,(172.20000000000002, 0.0),21,-3,11,yes,x,5,x,0.8825815999998667,1,63,test1,1,0.8827695999998468,-48.0
19,cey,f,19,r,2,(121.76378772032346, -121.76378772032352),28,3,1,no,m,6,m,1.1348171999998158,1,64,test1,1,1.1351041000007172,-48.0
19,cey,f,19,r,2,(-172.20000000000002, 2.1088417881317425e-14),25,-25,14,no,m,6,m,0.9940220999997109,1,65,test1,1,0.9942170000003898,-48.0
19,cey,f,19,r,2,(-121.76378772032352, -121.76378772032348),26,25,4,yes,x,5,x,0.4453163999996832,1,66,test1,1,0.4454144000001179,-20.0
19,cey,f,19,r,2,(-121.76378772032348, 121.76378772032349),24,-5,12,yes,x,5,x,0.5006575000006706,1,67,test1,1,0.5009056999997483,-50.0
19,cey,f,19,r,2,(121.76378772032349, 121.76378772032349),22,3,1,yes,x,5,x,0.8449399999999514,1,68,test1,1,0.8450417000003654,-42.0
19,cey,f,19,r,2,(1.0544208940658713e-14, 172.20000000000002),23,5,2,yes,x,5,x,0.42103659999975207,1,69,test1,1,0.4211365000001024,-40.0
19,cey,f,19,r,2,(-121.76378772032348, 121.76378772032349),24,25,4,no,m,6,m,0.6374556000000666,1,70,test1,1,0.6376057999996192,-40.0
19,cey,f,19,r,2,(1.0544208940658713e-14, 172.20000000000002),23,-25,14,yes,x,5,x,0.33570009999948525,1,71,test1,1,0.3357990000004065,-70.0
19,cey,f,19,r,2,(121.76378772032349, 121.76378772032349),22,-25,14,no,m,6,m,1.1772033000006559,1,72,test1,1,1.1778807000000597,-70.0
19,cey,f,19,r,2,(-121.76378772032352, -121.76378772032348),26,5,2,no,m,6,m,0.9344615999998496,1,73,test1,1,0.9346452999998291,-70.0
19,cey,f,19,r,2,(-172.20000000000002, 2.1088417881317425e-14),25,-3,11,no,m,6,m,0.9826947999999902,1,74,test1,1,0.983310800000254,-70.0
19,cey,f,19,r,2,(-172.20000000000002, 2.1088417881317425e-14),25,5,2,yes,x,5,x,0.423245400000269,1,75,test1,1,0.42334830000072543,-40.0
19,cey,f,19,r,2,(1.0544208940658713e-14, 172.20000000000002),23,3,1,yes,x,5,x,0.5859302999997453,1,76,test1,1,0.5862089000002015,-42.0
19,cey,f,19,r,2,(-121.76378772032348, 121.76378772032349),24,-3,11,no,m,6,m,0.8057306000000608,1,77,test1,1,0.8059518999998545,-42.0
19,cey,f,19,r,2,(-121.76378772032352, -121.76378772032348),26,5,2,yes,x,5,x,0.5148455999997168,1,78,test1,1,0.5150045999998838,-40.0
19,cey,f,19,r,2,(121.76378772032349, 121.76378772032349),22,-5,12,yes,x,5,x,0.4165703000007852,1,79,test1,1,0.4167131000003792,-50.0
19,cey,f,19,r,2,(121.76378772032349, 121.76378772032349),22,-5,12,no,m,6,m,0.6552071999994951,1,80,test1,1,0.6554219999998168,-50.0
19,cey,f,19,r,2,(-121.76378772032352, -121.76378772032348),26,7,3,yes,x,5,x,0.4318913999995857,1,81,test1,1,0.4320510000006834,-38.0
19,cey,f,19,r,2,(-172.20000000000002, 2.1088417881317425e-14),25,-5,12,no,m,6,m,0.8813597999997,1,82,test1,1,0.8815830000003189,-38.0
19,cey,f,19,r,2,(-121.76378772032352, -121.76378772032348),26,25,4,no,m,6,m,0.6696069999998144,1,83,test1,1,0.6697457999998733,-38.0
19,cey,f,19,r,2,(121.76378772032349, 121.76378772032349),22,3,1,yes,x,5,m,0.7795532999998613,0,84,test1,1,0.7800732000005155,-42.0
19,cey,f,19,r,2,(-121.76378772032348, 121.76378772032349),24,5,2,no,m,6,m,1.0147171999997227,1,85,test1,1,1.0148854999997639,-42.0
19,cey,f,19,r,2,(-3.163262682197613e-14, -172.20000000000002),27,25,4,yes,x,5,x,0.43489709999994375,1,86,test1,1,0.4352828999999474,-20.0
19,cey,f,19,r,2,(-121.76378772032348, 121.76378772032349),24,-25,14,yes,x,5,x,0.38700859999971726,1,87,test1,1,0.38710139999966486,-70.0
19,cey,f,19,r,2,(121.76378772032346, -121.76378772032352),28,-5,12,yes,x,5,x,0.7586510000000999,1,88,test1,1,0.7588905000002342,-50.0
19,cey,f,19,r,2,(121.76378772032349, 121.76378772032349),22,7,3,yes,x,5,x,0.43957030000001396,1,89,test1,1,0.4398001999998087,-38.0
19,cey,f,19,r,2,(1.0544208940658713e-14, 172.20000000000002),23,-7,13,no,m,6,m,0.6602971000002071,1,90,test1,1,0.660461899999973,-38.0
19,cey,f,19,r,2,(1.0544208940658713e-14, 172.20000000000002),23,7,3,no,m,6,m,0.8927769000001717,1,91,test1,1,0.8929180000004635,-38.0
19,cey,f,19,r,2,(-172.20000000000002, 2.1088417881317425e-14),25,7,3,no,m,6,m,0.6918682000004992,1,92,test1,1,0.6920040000004519,-38.0
19,cey,f,19,r,2,(121.76378772032346, -121.76378772032352),28,3,1,yes,x,5,x,0.6060859999997774,1,93,test1,1,0.6061959999997271,-42.0
19,cey,f,19,r,2,(172.20000000000002, 0.0),21,3,1,yes,x,5,m,0.754293900000448,0,94,test1,1,0.7548849000004338,-42.0
19,cey,f,19,r,2,(-121.76378772032352, -121.76378772032348),26,25,4,yes,x,5,x,0.3091488999998546,1,95,test1,1,0.30925180000031105,-20.0
19,cey,f,19,r,2,(121.76378772032346, -121.76378772032352),28,5,2,yes,x,5,x,0.5528747999996995,1,96,test1,1,0.5530350999997609,-40.0
19,cey,f,19,r,2,(172.20000000000002, 0.0),21,25,4,yes,x,5,x,0.44038389999968786,1,1,test2,1,0.4407708000007915,-20.0
19,cey,f,19,r,2,(-172.20000000000002, 2.1088417881317425e-14),25,7,3,yes,x,5,x,0.426150599999346,1,2,test2,1,0.4264479000003121,-38.0
19,cey,f,19,r,2,(-3.163262682197613e-14, -172.20000000000002),27,-7,13,yes,x,5,x,0.39931909999995696,1,3,test2,1,0.39955430000009073,-52.0
19,cey,f,19,r,2,(1.0544208940658713e-14, 172.20000000000002),23,-7,13,yes,x,5,x,0.3620156999995743,1,4,test2,1,0.36236470000039844,-52.0
19,cey,f,19,r,2,(-121.76378772032352, -121.76378772032348),26,-3,11,yes,x,5,x,0.3750380999999834,1,5,test2,1,0.37517010000010487,-48.0
19,cey,f,19,r,2,(-3.163262682197613e-14, -172.20000000000002),27,3,1,no,m,6,m,0.7179006999995181,1,6,test2,1,0.718030799999724,-48.0
19,cey,f,19,r,2,(121.76378772032349, 121.76378772032349),22,-25,14,yes,x,5,x,0.37531140000010055,1,7,test2,1,0.3755073000002085,-70.0
19,cey,f,19,r,2,(172.20000000000002, 0.0),21,25,4,no,m,6,m,0.49475320000055945,1,8,test2,1,0.49489530000028026,-70.0
19,cey,f,19,r,2,(172.20000000000002, 0.0),21,7,3,yes,x,5,x,0.3940436000002592,1,9,test2,1,0.39416220000020985,-38.0
19,cey,f,19,r,2,(-121.76378772032348, 121.76378772032349),24,5,2,yes,x,5,x,0.386313699999846,1,10,test2,1,0.3865522999994937,-40.0
19,cey,f,19,r,2,(1.0544208940658713e-14, 172.20000000000002),23,25,4,no,m,6,m,0.7742600999999922,1,11,test2,1,0.7744926999994277,-40.0
19,cey,f,19,r,2,(1.0544208940658713e-14, 172.20000000000002),23,25,4,yes,x,5,x,0.4603477999999086,1,12,test2,1,0.4606388000001971,-20.0
19,cey,f,19,r,2,(-3.163262682197613e-14, -172.20000000000002),27,-3,11,yes,x,5,m,0.7382477999999537,0,13,test2,1,0.7384897000001729,-48.0
19,cey,f,19,r,2,(-3.163262682197613e-14, -172.20000000000002),27,-5,12,yes,x,5,x,0.46367340000051627,1,14,test2,1,0.46447600000010425,-50.0
19,cey,f,19,r,2,(-172.20000000000002, 2.1088417881317425e-14),25,5,2,no,m,6,m,1.1591279000003851,1,15,test2,1,1.1594423999995342,-50.0
19,cey,f,19,r,2,(-172.20000000000002, 2.1088417881317425e-14),25,-5,12,yes,x,5,x,0.5719867999996495,1,16,test2,1,0.5721162999998342,-50.0
19,cey,f,19,r,2,(-172.20000000000002, 2.1088417881317425e-14),25,5,2,yes,x,5,x,0.4062688000003618,1,17,test2,1,0.4063968999998906,-40.0
19,cey,f,19,r,2,(-121.76378772032352, -121.76378772032348),26,3,1,yes,x,5,m,0.6172570999997333,0,18,test2,1,0.6173666000004232,-42.0
19,cey,f,19,r,2,(172.20000000000002, 0.0),21,-7,13,yes,x,5,x,0.37978579999980866,1,19,test2,1,0.38010900000062975,-52.0
19,cey,f,19,r,2,(-3.163262682197613e-14, -172.20000000000002),27,-25,14,no,m,6,m,0.7003355000006195,1,20,test2,1,0.7004360999999335,-52.0
19,cey,f,19,r,2,(-121.76378772032348, 121.76378772032349),24,7,3,yes,x,5,x,0.39050849999966886,1,21,test2,1,0.3908611999995628,-38.0
19,cey,f,19,r,2,(-121.76378772032352, -121.76378772032348),26,-25,14,no,m,6,m,0.5985953000008521,1,22,test2,1,0.5992647000002762,-38.0
19,cey,f,19,r,2,(1.0544208940658713e-14, 172.20000000000002),23,3,1,yes,x,5,x,0.7595475999996779,1,23,test2,1,0.7597861000003832,-42.0
19,cey,f,19,r,2,(121.76378772032346, -121.76378772032352),28,25,4,yes,x,5,x,0.38980109999920387,1,24,test2,1,0.39002999999956955,-20.0
19,cey,f,19,r,2,(-121.76378772032348, 121.76378772032349),24,-5,12,no,m,6,m,0.7393823000002158,1,25,test2,1,0.739549399999305,-20.0
19,cey,f,19,r,2,(1.0544208940658713e-14, 172.20000000000002),23,-5,12,yes,x,5,x,0.5323057999994489,1,26,test2,1,0.5323979999993753,-50.0
19,cey,f,19,r,2,(1.0544208940658713e-14, 172.20000000000002),23,-3,11,no,m,6,m,0.6048230000005788,1,27,test2,1,0.605338400000619,-50.0
19,cey,f,19,r,2,(121.76378772032346, -121.76378772032352),28,25,4,no,m,6,m,0.6115122999999585,1,28,test2,1,0.6122933000006014,-50.0
19,cey,f,19,r,2,(-121.76378772032352, -121.76378772032348),26,3,1,yes,x,5,m,0.5884709000001749,0,29,test2,1,0.589008300000387,-42.0
19,cey,f,19,r,2,(-121.76378772032348, 121.76378772032349),24,-5,12,yes,x,5,x,0.7149139000002833,1,30,test2,1,0.7152980999999272,-50.0
19,cey,f,19,r,2,(172.20000000000002, 0.0),21,25,4,yes,x,5,x,0.43325390000063635,1,31,test2,1,0.4333837999993193,-20.0
19,cey,f,19,r,2,(1.0544208940658713e-14, 172.20000000000002),23,-5,12,no,m,6,m,0.6861951999999292,1,32,test2,1,0.6865422000000763,-20.0
19,cey,f,19,r,2,(-121.76378772032352, -121.76378772032348),26,3,1,no,m,6,m,0.6979971999999179,1,33,test2,1,0.6982041999999637,-20.0
19,cey,f,19,r,2,(-121.76378772032348, 121.76378772032349),24,-7,13,yes,x,5,x,0.3427351999998791,1,34,test2,1,0.34297889999925246,-52.0
19,cey,f,19,r,2,(-121.76378772032348, 121.76378772032349),24,7,3,yes,x,5,x,0.3637847999998485,1,35,test2,1,0.36388929999975517,-38.0
19,cey,f,19,r,2,(-121.76378772032348, 121.76378772032349),24,25,4,yes,x,5,x,0.3200974999999744,1,36,test2,1,0.32030500000018947,-20.0
19,cey,f,19,r,2,(-121.76378772032348, 121.76378772032349),24,-3,11,yes,x,5,m,0.5966282999997929,0,37,test2,1,0.5969748999996227,-48.0
19,cey,f,19,r,2,(172.20000000000002, 0.0),21,-5,12,no,m,6,m,0.773443999999472,1,38,test2,1,0.7736325000005309,-48.0
19,cey,f,19,r,2,(172.20000000000002, 0.0),21,5,2,yes,x,5,x,0.4173131999996258,1,39,test2,1,0.4176368000007642,-40.0
19,cey,f,19,r,2,(121.76378772032349, 121.76378772032349),22,3,1,no,m,6,m,0.9825715000006312,1,40,test2,1,0.9826852999995026,-40.0
19,cey,f,19,r,2,(1.0544208940658713e-14, 172.20000000000002),23,7,3,yes,x,5,x,0.317418099999486,1,41,test2,1,0.31754799999998795,-38.0
19,cey,f,19,r,2,(-3.163262682197613e-14, -172.20000000000002),27,25,4,yes,x,5,x,0.415018699999564,1,42,test2,1,0.41563610000048357,-20.0
19,cey,f,19,r,2,(172.20000000000002, 0.0),21,-7,13,yes,x,5,x,0.4055744000006598,1,43,test2,1,0.4062162000000171,-52.0
19,cey,f,19,r,2,(121.76378772032349, 121.76378772032349),22,5,2,yes,x,5,x,0.6431499000000258,1,44,test2,1,0.6436192000001029,-40.0
19,cey,f,19,r,2,(121.76378772032349, 121.76378772032349),22,5,2,yes,x,5,x,0.534049299999424,1,45,test2,1,0.5341788000005181,-40.0
19,cey,f,19,r,2,(-121.76378772032348, 121.76378772032349),24,3,1,yes,x,5,x,0.5156814000001759,1,46,test2,1,0.5162596999998641,-42.0
19,cey,f,19,r,2,(172.20000000000002, 0.0),21,3,1,yes,x,5,x,0.9248538000001645,1,47,test2,1,0.9249560999996902,-42.0
19,cey,f,19,r,2,(-3.163262682197613e-14, -172.20000000000002),27,25,4,no,m,6,m,0.5986708999998882,1,48,test2,1,0.5990794999997888,-42.0
19,cey,f,19,r,2,(172.20000000000002, 0.0),21,-7,13,no,m,6,m,0.5587335999998686,1,49,test2,1,0.5588348999999653,-42.0
19,cey,f,19,r,2,(121.76378772032346, -121.76378772032352),28,25,4,yes,x,5,x,0.40396640000017214,1,50,test2,1,0.404080299999805,-20.0
19,cey,f,19,r,2,(-172.20000000000002, 2.1088417881317425e-14),25,-5,12,yes,x,5,x,0.7727161999991949,1,51,test2,1,0.7728314000005412,-50.0
19,cey,f,19,r,2,(-172.20000000000002, 2.1088417881317425e-14),25,25,4,no,m,6,m,0.456966900000225,1,52,test2,1,0.4572617000003447,-50.0
19,cey,f,19,r,2,(172.20000000000002, 0.0),21,7,3,no,m,6,m,0.8841381000002002,1,53,test2,1,0.8844467999997505,-50.0
19,cey,f,19,r,2,(172.20000000000002, 0.0),21,-3,11,yes,x,5,x,0.5156677999993917,1,54,test2,1,0.515798100000211,-48.0
19,cey,f,19,r,2,(172.20000000000002, 0.0),21,5,2,yes,x,5,x,0.5500265999999101,1,55,test2,1,0.5501279000000068,-40.0
19,cey,f,19,r,2,(-3.163262682197613e-14, -172.20000000000002),27,-3,11,yes,x,5,m,0.6208231000000524,0,56,test2,1,0.620951600000808,-48.0
19,cey,f,19,r,2,(-121.76378772032348, 121.76378772032349),24,-3,11,yes,x,5,x,0.6123284000004787,1,57,test2,1,0.6124592999995002,-48.0
19,cey,f,19,r,2,(-3.163262682197613e-14, -172.20000000000002),27,-25,14,yes,x,5,x,0.4069982999999411,1,58,test2,1,0.4071674000006169,-70.0
19,cey,f,19,r,2,(121.76378772032346, -121.76378772032352),28,-7,13,no,m,6,m,1.5050888000005216,1,59,test2,1,1.5056133999996746,-70.0
19,cey,f,19,r,2,(1.0544208940658713e-14, 172.20000000000002),23,3,1,no,m,6,m,0.8705380999999761,1,60,test2,1,0.8706576000004134,-70.0
19,cey,f,19,r,2,(121.76378772032349, 121.76378772032349),22,-5,12,yes,x,5,x,0.4630929999993896,1,61,test2,1,0.4631955000004382,-50.0
19,cey,f,19,r,2,(-121.76378772032352, -121.76378772032348),26,5,2,yes,x,5,x,0.6856995000007373,1,62,test2,1,0.6865347000002657,-40.0
19,cey,f,19,r,2,(-121.76378772032352, -121.76378772032348),26,-25,14,yes,x,5,x,0.3811093999993318,1,63,test2,1,0.3813749999999345,-70.0
19,cey,f,19,r,2,(121.76378772032346, -121.76378772032352),28,-25,14,yes,x,5,x,0.37171420000049693,1,64,test2,1,0.3720912999997381,-70.0
19,cey,f,19,r,2,(121.76378772032346, -121.76378772032352),28,-3,11,yes,x,5,m,0.8361599999998361,0,65,test2,1,0.8362545999998474,-48.0
19,cey,f,19,r,2,(172.20000000000002, 0.0),21,-25,14,yes,x,5,None,None,0,66,test2,1,1.98009809999985,-70.0
19,cey,f,19,r,2,(121.76378772032349, 121.76378772032349),22,-25,14,yes,x,5,x,0.4356777000002694,1,67,test2,1,0.43579849999969156,-70.0
19,cey,f,19,r,2,(1.0544208940658713e-14, 172.20000000000002),23,-25,14,yes,x,5,x,0.41229049999947165,1,68,test2,1,0.41244860000006156,-70.0
19,cey,f,19,r,2,(121.76378772032346, -121.76378772032352),28,7,3,no,m,6,m,0.6873498000004474,1,69,test2,1,0.6877094999999827,-70.0
19,cey,f,19,r,2,(1.0544208940658713e-14, 172.20000000000002),23,-25,14,no,m,6,m,0.7298635999995895,1,70,test2,1,0.7305390000001353,-70.0
19,cey,f,19,r,2,(121.76378772032349, 121.76378772032349),22,-3,11,yes,x,5,x,0.7551275999994687,1,71,test2,1,0.7554409999993368,-48.0
19,cey,f,19,r,2,(-172.20000000000002, 2.1088417881317425e-14),25,3,1,yes,x,5,m,0.7289672999995673,0,72,test2,1,0.7290972000000693,-42.0
19,cey,f,19,r,2,(1.0544208940658713e-14, 172.20000000000002),23,25,4,yes,x,5,x,0.37208430000009685,1,73,test2,1,0.37262079999982234,-20.0
19,cey,f,19,r,2,(-121.76378772032348, 121.76378772032349),24,-7,13,yes,x,5,x,0.9130092999994304,1,74,test2,1,0.9131889000000228,-52.0
19,cey,f,19,r,2,(-121.76378772032348, 121.76378772032349),24,5,2,yes,x,5,x,0.5188426000004256,1,75,test2,1,0.5189470000004803,-40.0
19,cey,f,19,r,2,(-121.76378772032348, 121.76378772032349),24,3,1,yes,x,5,x,0.5009962000003725,1,76,test2,1,0.5011736999995264,-42.0
19,cey,f,19,r,2,(-172.20000000000002, 2.1088417881317425e-14),25,-25,14,yes,x,5,x,0.48088649999954214,1,77,test2,1,0.48104630000034376,-70.0
19,cey,f,19,r,2,(121.76378772032346, -121.76378772032352),28,-25,14,yes,x,5,x,0.44931150000047637,1,78,test2,1,0.4497344000001249,-70.0
19,cey,f,19,r,2,(-172.20000000000002, 2.1088417881317425e-14),25,-3,11,yes,x,5,m,0.8167718000004243,0,79,test2,1,0.8173019999994722,-48.0
19,cey,f,19,r,2,(121.76378772032346, -121.76378772032352),28,7,3,yes,x,5,x,0.49221420000048965,1,80,test2,1,0.4925439999997252,-38.0
19,cey,f,19,r,2,(121.76378772032349, 121.76378772032349),22,7,3,yes,x,5,x,0.46822640000027604,1,81,test2,1,0.468468799999755,-38.0
19,cey,f,19,r,2,(-172.20000000000002, 2.1088417881317425e-14),25,-7,13,yes,x,5,x,0.4728893000001335,1,82,test2,1,0.4731153999991875,-52.0
19,cey,f,19,r,2,(1.0544208940658713e-14, 172.20000000000002),23,5,2,yes,x,5,x,0.3772571000008611,1,83,test2,1,0.3773604999996678,-40.0
19,cey,f,19,r,2,(121.76378772032349, 121.76378772032349),22,-7,13,yes,x,5,x,0.4424073000000135,1,84,test2,1,0.4430816000003688,-52.0
19,cey,f,19,r,2,(-3.163262682197613e-14, -172.20000000000002),27,5,2,yes,x,5,x,0.42371559999992314,1,85,test2,1,0.4238363999993453,-40.0
19,cey,f,19,r,2,(-172.20000000000002, 2.1088417881317425e-14),25,7,3,yes,x,5,x,0.4111620000003313,1,86,test2,1,0.4113280000001396,-38.0
19,cey,f,19,r,2,(-121.76378772032352, -121.76378772032348),26,-25,14,yes,x,5,x,0.4166300999995656,1,87,test2,1,0.416991500000222,-70.0
19,cey,f,19,r,2,(121.76378772032346, -121.76378772032352),28,-7,13,yes,x,5,x,0.49297889999979816,1,88,test2,1,0.4932128999998895,-52.0
19,cey,f,19,r,2,(1.0544208940658713e-14, 172.20000000000002),23,7,3,yes,x,5,x,0.38820529999975406,1,89,test2,1,0.3888946000006399,-38.0
19,cey,f,19,r,2,(-121.76378772032348, 121.76378772032349),24,25,4,yes,x,5,x,0.36883169999964593,1,90,test2,1,0.36893009999948845,-20.0
19,cey,f,19,r,2,(-3.163262682197613e-14, -172.20000000000002),27,-25,14,yes,x,5,x,0.35516629999983707,1,91,test2,1,0.3556724000000031,-70.0
19,cey,f,19,r,2,(121.76378772032349, 121.76378772032349),22,25,4,yes,x,5,x,0.38055870000061987,1,92,test2,1,0.38079500000003463,-20.0
19,cey,f,19,r,2,(1.0544208940658713e-14, 172.20000000000002),23,-3,11,yes,x,5,m,0.6321216000005734,0,93,test2,1,0.6326093999996374,-48.0
19,cey,f,19,r,2,(-121.76378772032352, -121.76378772032348),26,-5,12,yes,x,5,x,0.3656474999997954,1,94,test2,1,0.3660507000004145,-50.0
19,cey,f,19,r,2,(121.76378772032346, -121.76378772032352),28,-5,12,yes,x,5,x,0.5957416000001103,1,95,test2,1,0.5958590000000186,-50.0
19,cey,f,19,r,2,(121.76378772032346, -121.76378772032352),28,-3,11,yes,x,5,x,1.09525450000001,1,96,test2,1,1.0953604000005726,-48.0
19,cey,f,19,r,2,(-3.163262682197613e-14, -172.20000000000002),27,-7,13,yes,x,5,x,1.6582836000006864,1,1,test1,2,1.658493200000521,-52.0
19,cey,f,19,r,2,(-172.20000000000002, 2.1088417881317425e-14),25,-3,11,yes,x,5,x,1.0111759000001257,1,2,test1,2,1.0113805000000866,-48.0
19,cey,f,19,r,2,(-172.20000000000002, 2.1088417881317425e-14),25,-25,14,yes,x,5,x,0.4027885999994396,1,3,test1,2,0.4032162999992579,-70.0
19,cey,f,19,r,2,(121.76378772032349, 121.76378772032349),22,25,4,yes,x,5,x,0.49246229999971547,1,4,test1,2,0.4932343000000401,-20.0
19,cey,f,19,r,2,(121.76378772032346, -121.76378772032352),28,5,2,yes,x,5,x,0.5500222000000576,1,5,test1,2,0.550327500000094,-40.0
19,cey,f,19,r,2,(-3.163262682197613e-14, -172.20000000000002),27,3,1,yes,x,5,x,0.6221136000003753,1,6,test1,2,0.6226729999998497,-42.0
19,cey,f,19,r,2,(-172.20000000000002, 2.1088417881317425e-14),25,3,1,yes,x,5,m,0.7627859000003809,0,7,test1,2,0.7629158999998253,-42.0
19,cey,f,19,r,2,(-121.76378772032352, -121.76378772032348),26,-3,11,yes,x,5,x,1.7347337000001062,1,8,test1,2,1.7350444000003336,-48.0
19,cey,f,19,r,2,(-172.20000000000002, 2.1088417881317425e-14),25,-7,13,no,m,6,m,0.6755037999992055,1,9,test1,2,0.6758181999994122,-48.0
19,cey,f,19,r,2,(-121.76378772032348, 121.76378772032349),24,3,1,no,m,6,m,1.0516278000004604,1,10,test1,2,1.051727299999584,-48.0
19,cey,f,19,r,2,(-3.163262682197613e-14, -172.20000000000002),27,7,3,yes,x,5,x,0.514045800000531,1,11,test1,2,0.5142696000002616,-38.0
19,cey,f,19,r,2,(-3.163262682197613e-14, -172.20000000000002),27,-7,13,no,m,6,m,0.856938199999604,1,12,test1,2,0.8577022999998007,-38.0
19,cey,f,19,r,2,(121.76378772032349, 121.76378772032349),22,-7,13,yes,x,5,x,0.4977561000005153,1,13,test1,2,0.4979657000003499,-52.0
19,cey,f,19,r,2,(121.76378772032346, -121.76378772032352),28,3,1,yes,x,5,x,0.9489886000001206,1,14,test1,2,0.9492224000005081,-42.0
19,cey,f,19,r,2,(121.76378772032346, -121.76378772032352),28,5,2,no,m,6,x,0.39513690000057977,0,15,test1,2,0.3952395999995133,-42.0
19,cey,f,19,r,2,(-121.76378772032348, 121.76378772032349),24,-25,14,yes,x,5,x,0.36662109999997483,1,16,test1,2,0.3670876000005592,-70.0
19,cey,f,19,r,2,(121.76378772032349, 121.76378772032349),22,-3,11,no,m,6,m,0.8340747000002011,1,17,test1,2,0.8343086000004405,-70.0
19,cey,f,19,r,2,(1.0544208940658713e-14, 172.20000000000002),23,5,2,no,m,6,m,0.8363969999991241,1,18,test1,2,0.8365599999997357,-70.0
19,cey,f,19,r,2,(-121.76378772032352, -121.76378772032348),26,-5,12,yes,x,5,x,0.5728250000001935,1,19,test1,2,0.5729987000004257,-50.0
19,cey,f,19,r,2,(121.76378772032346, -121.76378772032352),28,7,3,yes,x,5,x,0.5424575000006371,1,20,test1,2,0.5431188000002294,-38.0
19,cey,f,19,r,2,(172.20000000000002, 0.0),21,-5,12,yes,x,5,x,0.5932591999999204,1,21,test1,2,0.5933860000004643,-50.0
19,cey,f,19,r,2,(-121.76378772032352, -121.76378772032348),26,-3,11,no,m,6,m,0.9999364999994214,1,22,test1,2,1.0003758000002563,-50.0
19,cey,f,19,r,2,(-121.76378772032352, -121.76378772032348),26,7,3,yes,x,5,x,0.4069368000000395,1,23,test1,2,0.4070366000005379,-38.0
19,cey,f,19,r,2,(-121.76378772032348, 121.76378772032349),24,-25,14,no,m,6,m,0.6080578999999489,1,24,test1,2,0.6082239000006666,-38.0
19,cey,f,19,r,2,(-3.163262682197613e-14, -172.20000000000002),27,3,1,yes,x,5,x,0.5892128000004959,1,25,test1,2,0.5893244999997478,-42.0
19,cey,f,19,r,2,(121.76378772032346, -121.76378772032352),28,-7,13,yes,x,5,x,0.45249150000017835,1,26,test1,2,0.45286660000056145,-52.0
19,cey,f,19,r,2,(121.76378772032346, -121.76378772032352),28,-5,12,no,m,6,m,0.8352352000001702,1,27,test1,2,0.8355010999994192,-52.0
19,cey,f,19,r,2,(172.20000000000002, 0.0),21,3,1,no,m,6,m,0.5906968999997844,1,28,test1,2,0.5907977000006213,-52.0
19,cey,f,19,r,2,(-121.76378772032352, -121.76378772032348),26,-5,12,no,m,6,m,0.5978378999998313,1,29,test1,2,0.5980836999997337,-52.0
19,cey,f,19,r,2,(1.0544208940658713e-14, 172.20000000000002),23,-7,13,yes,x,5,x,0.5768324000000575,1,30,test1,2,0.5769322999994984,-52.0
19,cey,f,19,r,2,(-172.20000000000002, 2.1088417881317425e-14),25,25,4,yes,x,5,x,0.40618929999982356,1,31,test1,2,0.40631050000047253,-20.0
19,cey,f,19,r,2,(172.20000000000002, 0.0),21,5,2,no,m,6,m,0.607970000000023,1,32,test1,2,0.6081834999995408,-20.0
19,cey,f,19,r,2,(-121.76378772032352, -121.76378772032348),26,-7,13,yes,x,5,x,0.37663010000051145,1,33,test1,2,0.37675509999917267,-52.0
19,cey,f,19,r,2,(172.20000000000002, 0.0),21,-3,11,no,m,6,m,0.5664179000004879,1,34,test1,2,0.5669503999997687,-52.0
19,cey,f,19,r,2,(-3.163262682197613e-14, -172.20000000000002),27,5,2,yes,x,5,x,0.6731574000004912,1,35,test1,2,0.6732597999998688,-40.0
19,cey,f,19,r,2,(121.76378772032346, -121.76378772032352),28,-25,14,no,m,6,x,0.8183429999999134,0,36,test1,2,0.818572299999687,-40.0
19,cey,f,19,r,2,(-172.20000000000002, 2.1088417881317425e-14),25,25,4,yes,x,5,x,0.36252560000048106,1,37,test1,2,0.36291479999999865,-20.0
19,cey,f,19,r,2,(121.76378772032349, 121.76378772032349),22,-3,11,yes,x,5,x,0.9282610999998724,1,38,test1,2,0.928777799999807,-48.0
19,cey,f,19,r,2,(-3.163262682197613e-14, -172.20000000000002),27,-5,12,no,m,6,m,0.6650027999994563,1,39,test1,2,0.6651272999997673,-48.0
19,cey,f,19,r,2,(-3.163262682197613e-14, -172.20000000000002),27,5,2,no,m,6,m,0.560034000000087,1,40,test1,2,0.5603445999995529,-48.0
19,cey,f,19,r,2,(121.76378772032349, 121.76378772032349),22,-7,13,no,m,6,m,0.7999223000006168,1,41,test1,2,0.8000893000007636,-48.0
19,cey,f,19,r,2,(121.76378772032349, 121.76378772032349),22,25,4,no,m,6,m,0.47262360000058834,1,42,test1,2,0.47305150000011054,-48.0
19,cey,f,19,r,2,(-172.20000000000002, 2.1088417881317425e-14),25,-7,13,yes,x,5,x,0.5140043999999762,1,43,test1,2,0.5142210000003615,-52.0
19,cey,f,19,r,2,(172.20000000000002, 0.0),21,-5,12,yes,x,5,x,0.5525169000002279,1,44,test1,2,0.5528047999996488,-50.0
19,cey,f,19,r,2,(121.76378772032346, -121.76378772032352),28,-3,11,no,m,6,m,0.47548660000029486,1,45,test1,2,0.47559149999960937,-50.0
19,cey,f,19,r,2,(172.20000000000002, 0.0),21,7,3,yes,x,5,x,0.46955069999967236,1,46,test1,2,0.47005950000038865,-38.0
19,cey,f,19,r,2,(-172.20000000000002, 2.1088417881317425e-14),25,3,1,no,m,6,m,1.0331183000007513,1,47,test1,2,1.0334022999995796,-38.0
19,cey,f,19,r,2,(1.0544208940658713e-14, 172.20000000000002),23,-3,11,yes,x,5,x,0.4968489999992016,1,48,test1,2,0.4969493999997212,-48.0
19,cey,f,19,r,2,(172.20000000000002, 0.0),21,-25,14,yes,x,5,x,0.45116409999991447,1,49,test1,2,0.4513790000000881,-70.0
19,cey,f,19,r,2,(-3.163262682197613e-14, -172.20000000000002),27,7,3,yes,x,5,x,0.40357790000052773,1,50,test1,2,0.40368169999965176,-38.0
19,cey,f,19,r,2,(172.20000000000002, 0.0),21,-25,14,no,m,6,m,0.6889998000006017,1,51,test1,2,0.6891531000001123,-38.0
19,cey,f,19,r,2,(-3.163262682197613e-14, -172.20000000000002),27,-3,11,no,m,6,m,1.0798667000008209,1,52,test1,2,1.0800433000003977,-38.0
19,cey,f,19,r,2,(-121.76378772032352, -121.76378772032348),26,-7,13,yes,x,5,x,0.30602599999929225,1,53,test1,2,0.30640390000007756,-52.0
19,cey,f,19,r,2,(-3.163262682197613e-14, -172.20000000000002),27,-5,12,yes,x,5,x,0.5998346000005768,1,54,test1,2,0.6001221999995323,-50.0
19,cey,f,19,r,2,(121.76378772032349, 121.76378772032349),22,5,2,no,m,6,m,0.7826397999997425,1,55,test1,2,0.7829524999997375,-50.0
19,cey,f,19,r,2,(-121.76378772032352, -121.76378772032348),26,-7,13,no,m,6,m,0.6579994000003353,1,56,test1,2,0.6581108000000313,-50.0
19,cey,f,19,r,2,(-121.76378772032348, 121.76378772032349),24,-7,13,no,m,6,m,0.6750474999998914,1,57,test1,2,0.675423800000317,-50.0
19,cey,f,19,r,2,(121.76378772032349, 121.76378772032349),22,7,3,no,m,6,m,0.5600840000006428,1,58,test1,2,0.5604441999994378,-50.0
19,cey,f,19,r,2,(1.0544208940658713e-14, 172.20000000000002),23,-5,12,yes,x,5,x,0.44215729999996256,1,59,test1,2,0.4425326999999015,-50.0
19,cey,f,19,r,2,(-121.76378772032348, 121.76378772032349),24,7,3,no,m,6,m,0.6101555000004737,1,60,test1,2,0.6103880999999092,-50.0
19,cey,f,19,r,2,(-3.163262682197613e-14, -172.20000000000002),27,7,3,no,m,6,m,0.5843211999999767,1,61,test1,2,0.5845409000003201,-50.0
19,cey,f,19,r,2,(-121.76378772032352, -121.76378772032348),26,7,3,no,m,6,m,0.703093600000102,1,62,test1,2,0.7033438999997088,-50.0
19,cey,f,19,r,2,(172.20000000000002, 0.0),21,-3,11,yes,x,5,x,0.6254801999994015,1,63,test1,2,0.6257478000006813,-48.0
19,cey,f,19,r,2,(121.76378772032346, -121.76378772032352),28,3,1,no,m,6,m,0.5752087999999276,1,64,test1,2,0.5754297000003135,-48.0
19,cey,f,19,r,2,(-172.20000000000002, 2.1088417881317425e-14),25,-25,14,no,m,6,m,0.6611213999995016,1,65,test1,2,0.6613459000000148,-48.0
19,cey,f,19,r,2,(-121.76378772032352, -121.76378772032348),26,25,4,yes,x,5,x,0.3567757000000711,1,66,test1,2,0.3569894000002023,-20.0
19,cey,f,19,r,2,(-121.76378772032348, 121.76378772032349),24,-5,12,yes,x,5,x,0.6490971000002901,1,67,test1,2,0.6492229000004954,-50.0
19,cey,f,19,r,2,(121.76378772032349, 121.76378772032349),22,3,1,yes,x,5,m,0.8178498000006584,0,68,test1,2,0.8179667000003974,-42.0
19,cey,f,19,r,2,(1.0544208940658713e-14, 172.20000000000002),23,5,2,yes,x,5,x,0.38269059999947785,1,69,test1,2,0.38292749999982334,-40.0
19,cey,f,19,r,2,(-121.76378772032348, 121.76378772032349),24,25,4,no,m,6,m,0.6257642999999007,1,70,test1,2,0.6264012999999977,-40.0
19,cey,f,19,r,2,(1.0544208940658713e-14, 172.20000000000002),23,-25,14,yes,x,5,x,0.4251518999999462,1,71,test1,2,0.42530059999990044,-70.0
19,cey,f,19,r,2,(121.76378772032349, 121.76378772032349),22,-25,14,no,m,6,m,0.5990953999998965,1,72,test1,2,0.5993852999999945,-70.0
19,cey,f,19,r,2,(-121.76378772032352, -121.76378772032348),26,5,2,no,m,6,m,0.6136321999993015,1,73,test1,2,0.6139241000000766,-70.0
19,cey,f,19,r,2,(-172.20000000000002, 2.1088417881317425e-14),25,-3,11,no,m,6,m,0.5226249999996071,1,74,test1,2,0.5228040000001783,-70.0
19,cey,f,19,r,2,(-172.20000000000002, 2.1088417881317425e-14),25,5,2,yes,x,5,x,0.46848810000028607,1,75,test1,2,0.46861639999951876,-40.0
19,cey,f,19,r,2,(1.0544208940658713e-14, 172.20000000000002),23,3,1,yes,x,5,x,0.6804622999998173,1,76,test1,2,0.6806888000000981,-42.0
19,cey,f,19,r,2,(-121.76378772032348, 121.76378772032349),24,-3,11,no,m,6,m,0.5185903000001417,1,77,test1,2,0.5192526999999245,-42.0
19,cey,f,19,r,2,(-121.76378772032352, -121.76378772032348),26,5,2,yes,x,5,x,0.46260460000030434,1,78,test1,2,0.46271969999997964,-40.0
19,cey,f,19,r,2,(121.76378772032349, 121.76378772032349),22,-5,12,yes,x,5,x,0.5803616000002876,1,79,test1,2,0.5807469999999739,-50.0
19,cey,f,19,r,2,(121.76378772032349, 121.76378772032349),22,-5,12,no,m,6,m,0.7181293000003279,1,80,test1,2,0.7183344000004581,-50.0
19,cey,f,19,r,2,(-121.76378772032352, -121.76378772032348),26,7,3,yes,x,5,x,0.4615438999999242,1,81,test1,2,0.4616588999997475,-38.0
19,cey,f,19,r,2,(-172.20000000000002, 2.1088417881317425e-14),25,-5,12,no,m,6,x,0.9533964000002015,0,82,test1,2,0.9537150000005568,-38.0
19,cey,f,19,r,2,(-121.76378772032352, -121.76378772032348),26,25,4,no,m,6,m,0.5807269000006272,1,83,test1,2,0.5809489000002941,-38.0
19,cey,f,19,r,2,(121.76378772032349, 121.76378772032349),22,3,1,yes,x,5,x,1.007897999999841,1,84,test1,2,1.0081094999995912,-42.0
19,cey,f,19,r,2,(-121.76378772032348, 121.76378772032349),24,5,2,no,m,6,m,0.6647781000001487,1,85,test1,2,0.6649551000000429,-42.0
19,cey,f,19,r,2,(-3.163262682197613e-14, -172.20000000000002),27,25,4,yes,x,5,x,0.4563141999997242,1,86,test1,2,0.45675720000053843,-20.0
19,cey,f,19,r,2,(-121.76378772032348, 121.76378772032349),24,-25,14,yes,x,5,x,0.5840496000000712,1,87,test1,2,0.5841525000005277,-70.0
19,cey,f,19,r,2,(121.76378772032346, -121.76378772032352),28,-5,12,yes,x,5,x,0.5960344000004625,1,88,test1,2,0.5962697000004482,-50.0
19,cey,f,19,r,2,(121.76378772032349, 121.76378772032349),22,7,3,yes,x,5,x,0.5046089000006759,1,89,test1,2,0.504710399999567,-38.0
19,cey,f,19,r,2,(1.0544208940658713e-14, 172.20000000000002),23,-7,13,no,m,6,m,0.6566289000002143,1,90,test1,2,0.6568316000002596,-38.0
19,cey,f,19,r,2,(1.0544208940658713e-14, 172.20000000000002),23,7,3,no,m,6,m,0.6295164000002842,1,91,test1,2,0.629612100000486,-38.0
19,cey,f,19,r,2,(-172.20000000000002, 2.1088417881317425e-14),25,7,3,no,m,6,m,0.7107046999999511,1,92,test1,2,0.7109110999999757,-38.0
19,cey,f,19,r,2,(121.76378772032346, -121.76378772032352),28,3,1,yes,x,5,x,0.6037716000000728,1,93,test1,2,0.6038819999994303,-42.0
19,cey,f,19,r,2,(172.20000000000002, 0.0),21,3,1,yes,x,5,m,0.6067308000001503,0,94,test1,2,0.6070478000001458,-42.0
19,cey,f,19,r,2,(-121.76378772032352, -121.76378772032348),26,25,4,yes,x,5,x,0.4151249000005919,1,95,test1,2,0.415271799999573,-20.0
19,cey,f,19,r,2,(121.76378772032346, -121.76378772032352),28,5,2,yes,x,5,x,0.48066209999979037,1,96,test1,2,0.4807770999996137,-40.0
19,cey,f,19,r,2,(172.20000000000002, 0.0),21,25,4,yes,x,5,x,0.5072799999998097,1,1,test2,2,0.5074018999994223,-20.0
19,cey,f,19,r,2,(-172.20000000000002, 2.1088417881317425e-14),25,7,3,yes,x,5,x,0.43266570000014326,1,2,test2,2,0.43282149999959074,-38.0
19,cey,f,19,r,2,(-3.163262682197613e-14, -172.20000000000002),27,-7,13,yes,x,5,x,0.43397490000006655,1,3,test2,2,0.4344970000001922,-52.0
19,cey,f,19,r,2,(1.0544208940658713e-14, 172.20000000000002),23,-7,13,yes,x,5,x,0.44555469999977504,1,4,test2,2,0.44565590000001976,-52.0
19,cey,f,19,r,2,(-121.76378772032352, -121.76378772032348),26,-3,11,yes,x,5,m,0.9588411000004271,0,5,test2,2,0.9590352999994138,-48.0
19,cey,f,19,r,2,(-3.163262682197613e-14, -172.20000000000002),27,3,1,no,m,6,m,0.7333373999999822,1,6,test2,2,0.733473000000231,-48.0
19,cey,f,19,r,2,(121.76378772032349, 121.76378772032349),22,-25,14,yes,x,5,x,0.38852700000006735,1,7,test2,2,0.3886278999998467,-70.0
19,cey,f,19,r,2,(172.20000000000002, 0.0),21,25,4,no,m,6,m,0.5672779999995328,1,8,test2,2,0.5673864000000322,-70.0
19,cey,f,19,r,2,(172.20000000000002, 0.0),21,7,3,yes,x,5,x,0.4620572000003449,1,9,test2,2,0.46229610000045795,-38.0
19,cey,f,19,r,2,(-121.76378772032348, 121.76378772032349),24,5,2,yes,x,5,x,0.4879804000001968,1,10,test2,2,0.48827199999959703,-40.0
19,cey,f,19,r,2,(1.0544208940658713e-14, 172.20000000000002),23,25,4,no,m,6,m,0.575847000000067,1,11,test2,2,0.5760094000006575,-40.0
19,cey,f,19,r,2,(1.0544208940658713e-14, 172.20000000000002),23,25,4,yes,x,5,x,0.38175239999964106,1,12,test2,2,0.381986099999267,-20.0
19,cey,f,19,r,2,(-3.163262682197613e-14, -172.20000000000002),27,-3,11,yes,x,5,x,0.8082297000000835,1,13,test2,2,0.8084100999994916,-48.0
19,cey,f,19,r,2,(-3.163262682197613e-14, -172.20000000000002),27,-5,12,yes,x,5,x,0.45175360000030196,1,14,test2,2,0.4518731000007392,-50.0
19,cey,f,19,r,2,(-172.20000000000002, 2.1088417881317425e-14),25,5,2,no,m,6,m,0.6233323999995264,1,15,test2,2,0.6235497000006944,-50.0
19,cey,f,19,r,2,(-172.20000000000002, 2.1088417881317425e-14),25,-5,12,yes,x,5,x,0.4149162999992768,1,16,test2,2,0.41503040000043256,-50.0
19,cey,f,19,r,2,(-172.20000000000002, 2.1088417881317425e-14),25,5,2,yes,x,5,x,0.8550133000007918,1,17,test2,2,0.8551668999998583,-40.0
19,cey,f,19,r,2,(-121.76378772032352, -121.76378772032348),26,3,1,yes,x,5,m,0.5206106000005093,0,18,test2,2,0.5212684999996782,-42.0
19,cey,f,19,r,2,(172.20000000000002, 0.0),21,-7,13,yes,x,5,x,0.5113380000002508,1,19,test2,2,0.5116280000002007,-52.0
19,cey,f,19,r,2,(-3.163262682197613e-14, -172.20000000000002),27,-25,14,no,m,6,m,0.6189674999995987,1,20,test2,2,0.619400499999756,-52.0
19,cey,f,19,r,2,(-121.76378772032348, 121.76378772032349),24,7,3,yes,x,5,x,0.3962903000001461,1,21,test2,2,0.39650280000023486,-38.0
19,cey,f,19,r,2,(-121.76378772032352, -121.76378772032348),26,-25,14,no,m,6,m,0.5852547000004051,1,22,test2,2,0.5858009000003221,-38.0
19,cey,f,19,r,2,(1.0544208940658713e-14, 172.20000000000002),23,3,1,yes,x,5,x,0.732113400000344,1,23,test2,2,0.7323436999995465,-42.0
19,cey,f,19,r,2,(121.76378772032346, -121.76378772032352),28,25,4,yes,x,5,x,0.40184450000015204,1,24,test2,2,0.40213889999995445,-20.0
19,cey,f,19,r,2,(-121.76378772032348, 121.76378772032349),24,-5,12,no,m,6,m,0.5453063000004477,1,25,test2,2,0.5454120999993393,-20.0
19,cey,f,19,r,2,(1.0544208940658713e-14, 172.20000000000002),23,-5,12,yes,x,5,x,0.47484950000034587,1,26,test2,2,0.4751890999996249,-50.0
19,cey,f,19,r,2,(1.0544208940658713e-14, 172.20000000000002),23,-3,11,no,m,6,m,0.7544938999999431,1,27,test2,2,0.7545938000002934,-50.0
19,cey,f,19,r,2,(121.76378772032346, -121.76378772032352),28,25,4,no,m,6,m,0.7130659000004016,1,28,test2,2,0.7133583000004364,-50.0
19,cey,f,19,r,2,(-121.76378772032352, -121.76378772032348),26,3,1,yes,x,5,m,0.5645972000002075,0,29,test2,2,0.5648780999999872,-42.0
19,cey,f,19,r,2,(-121.76378772032348, 121.76378772032349),24,-5,12,yes,x,5,x,0.5123975000005885,1,30,test2,2,0.5128305999996883,-50.0
19,cey,f,19,r,2,(172.20000000000002, 0.0),21,25,4,yes,x,5,x,0.4025586000007024,1,31,test2,2,0.4026834999995117,-20.0
19,cey,f,19,r,2,(1.0544208940658713e-14, 172.20000000000002),23,-5,12,no,m,6,m,0.6116309999997611,1,32,test2,2,0.6121246000002429,-20.0
19,cey,f,19,r,2,(-121.76378772032352, -121.76378772032348),26,3,1,no,m,6,m,0.7157747000001109,1,33,test2,2,0.7160272999999506,-20.0
19,cey,f,19,r,2,(-121.76378772032348, 121.76378772032349),24,-7,13,yes,x,5,x,0.37026540000078967,1,34,test2,2,0.3704915999996956,-52.0
19,cey,f,19,r,2,(-121.76378772032348, 121.76378772032349),24,7,3,yes,x,5,x,0.4094240999993417,1,35,test2,2,0.40957390000039595,-38.0
19,cey,f,19,r,2,(-121.76378772032348, 121.76378772032349),24,25,4,yes,x,5,x,0.41875160000017786,1,36,test2,2,0.4190349000000424,-20.0
19,cey,f,19,r,2,(-121.76378772032348, 121.76378772032349),24,-3,11,yes,x,5,m,0.5442233999992823,0,37,test2,2,0.5443984000003184,-48.0
19,cey,f,19,r,2,(172.20000000000002, 0.0),21,-5,12,no,m,6,m,0.7581585999996605,1,38,test2,2,0.7583866000004491,-48.0
19,cey,f,19,r,2,(172.20000000000002, 0.0),21,5,2,yes,x,5,x,0.7729308999996647,1,39,test2,2,0.7730540000002293,-40.0
19,cey,f,19,r,2,(121.76378772032349, 121.76378772032349),22,3,1,no,m,6,m,0.5864116999991893,1,40,test2,2,0.5866128999996363,-40.0
19,cey,f,19,r,2,(1.0544208940658713e-14, 172.20000000000002),23,7,3,yes,x,5,x,0.3617732000002434,1,41,test2,2,0.3623301999996329,-38.0
19,cey,f,19,r,2,(-3.163262682197613e-14, -172.20000000000002),27,25,4,yes,x,5,x,0.3450760000005175,1,42,test2,2,0.34519170000021404,-20.0
19,cey,f,19,r,2,(172.20000000000002, 0.0),21,-7,13,yes,x,5,x,0.4299994000002698,1,43,test2,2,0.4302570999998352,-52.0
19,cey,f,19,r,2,(121.76378772032349, 121.76378772032349),22,5,2,yes,x,5,x,0.7507856000001993,1,44,test2,2,0.7509577999999237,-40.0
19,cey,f,19,r,2,(121.76378772032349, 121.76378772032349),22,5,2,yes,x,5,x,0.4701396000000386,1,45,test2,2,0.47052959999928134,-40.0
19,cey,f,19,r,2,(-121.76378772032348, 121.76378772032349),24,3,1,yes,x,5,x,0.7867346999992151,1,46,test2,2,0.7870106999998825,-42.0
19,cey,f,19,r,2,(172.20000000000002, 0.0),21,3,1,yes,x,5,x,0.7813639000005423,1,47,test2,2,0.7815765000004831,-42.0
19,cey,f,19,r,2,(-3.163262682197613e-14, -172.20000000000002),27,25,4,no,m,6,m,0.6495998000000327,1,48,test2,2,0.6498492000000624,-42.0
19,cey,f,19,r,2,(172.20000000000002, 0.0),21,-7,13,no,m,6,x,0.5587979000001724,0,49,test2,2,0.5591968999997334,-42.0
19,cey,f,19,r,2,(121.76378772032346, -121.76378772032352),28,25,4,yes,x,5,x,0.6242271999999502,1,50,test2,2,0.6246155999997427,-20.0
19,cey,f,19,r,2,(-172.20000000000002, 2.1088417881317425e-14),25,-5,12,yes,x,5,x,0.664252800000213,1,51,test2,2,0.6649066999998468,-50.0
19,cey,f,19,r,2,(-172.20000000000002, 2.1088417881317425e-14),25,25,4,no,m,6,m,0.5841141000000789,1,52,test2,2,0.5846127000004344,-50.0
19,cey,f,19,r,2,(172.20000000000002, 0.0),21,7,3,no,m,6,m,0.5171454999999696,1,53,test2,2,0.5172477000005529,-50.0
19,cey,f,19,r,2,(172.20000000000002, 0.0),21,-3,11,yes,x,5,x,0.7315133000001879,1,54,test2,2,0.7318300999995699,-48.0
19,cey,f,19,r,2,(172.20000000000002, 0.0),21,5,2,yes,x,5,x,0.46727829999963433,1,55,test2,2,0.4675651999996262,-40.0
19,cey,f,19,r,2,(-3.163262682197613e-14, -172.20000000000002),27,-3,11,yes,x,5,x,0.6232546000001093,1,56,test2,2,0.6233541999999943,-48.0
19,cey,f,19,r,2,(-121.76378772032348, 121.76378772032349),24,-3,11,yes,x,5,x,0.7286887000000206,1,57,test2,2,0.7289100999996663,-48.0
19,cey,f,19,r,2,(-3.163262682197613e-14, -172.20000000000002),27,-25,14,yes,x,5,x,0.3842255000008663,1,58,test2,2,0.38458300000002055,-70.0
19,cey,f,19,r,2,(121.76378772032346, -121.76378772032352),28,-7,13,no,m,6,x,0.7378987000001871,0,59,test2,2,0.7381111999993664,-70.0
19,cey,f,19,r,2,(1.0544208940658713e-14, 172.20000000000002),23,3,1,no,m,6,m,0.7760037999996712,1,60,test2,2,0.776179499999671,-70.0
19,cey,f,19,r,2,(121.76378772032349, 121.76378772032349),22,-5,12,yes,x,5,x,0.43171970000003057,1,61,test2,2,0.4318764999998166,-50.0
19,cey,f,19,r,2,(-121.76378772032352, -121.76378772032348),26,5,2,yes,x,5,x,0.46680579999974725,1,62,test2,2,0.4669087000002037,-40.0
19,cey,f,19,r,2,(-121.76378772032352, -121.76378772032348),26,-25,14,yes,x,5,x,0.41512560000046506,1,63,test2,2,0.41535470000053465,-70.0
19,cey,f,19,r,2,(121.76378772032346, -121.76378772032352),28,-25,14,yes,x,5,x,0.4144996999993964,1,64,test2,2,0.41462070000034146,-70.0
19,cey,f,19,r,2,(121.76378772032346, -121.76378772032352),28,-3,11,yes,x,5,m,0.7557175000001735,0,65,test2,2,0.7561095000000932,-48.0
19,cey,f,19,r,2,(172.20000000000002, 0.0),21,-25,14,yes,x,5,x,0.4479922999998962,1,66,test2,2,0.44809149999946385,-70.0
19,cey,f,19,r,2,(121.76378772032349, 121.76378772032349),22,-25,14,yes,x,5,x,0.39952420000008715,1,67,test2,2,0.4000509999996211,-70.0
19,cey,f,19,r,2,(1.0544208940658713e-14, 172.20000000000002),23,-25,14,yes,x,5,x,0.37906159999965894,1,68,test2,2,0.37916390000009415,-70.0
19,cey,f,19,r,2,(121.76378772032346, -121.76378772032352),28,7,3,no,m,6,m,0.6738390000000436,1,69,test2,2,0.6743921000006594,-70.0
19,cey,f,19,r,2,(1.0544208940658713e-14, 172.20000000000002),23,-25,14,no,m,6,m,0.8619607000000542,1,70,test2,2,0.8623913999999786,-70.0
19,cey,f,19,r,2,(121.76378772032349, 121.76378772032349),22,-3,11,yes,x,5,x,0.7430039000000761,1,71,test2,2,0.7431308000004719,-48.0
19,cey,f,19,r,2,(-172.20000000000002, 2.1088417881317425e-14),25,3,1,yes,x,5,m,0.552048300000024,0,72,test2,2,0.5523461999991923,-42.0
19,cey,f,19,r,2,(1.0544208940658713e-14, 172.20000000000002),23,25,4,yes,x,5,x,0.3671349000005648,1,73,test2,2,0.36734140000044135,-20.0
19,cey,f,19,r,2,(-121.76378772032348, 121.76378772032349),24,-7,13,yes,x,5,x,0.4644686999999976,1,74,test2,2,0.46466229999987263,-52.0
19,cey,f,19,r,2,(-121.76378772032348, 121.76378772032349),24,5,2,yes,x,5,x,0.4214345999998841,1,75,test2,2,0.42166289999931905,-40.0
19,cey,f,19,r,2,(-121.76378772032348, 121.76378772032349),24,3,1,yes,x,5,x,0.5919088000000556,1,76,test2,2,0.5921361999999135,-42.0
19,cey,f,19,r,2,(-172.20000000000002, 2.1088417881317425e-14),25,-25,14,yes,x,5,x,0.38270960000045307,1,77,test2,2,0.38288269999975455,-70.0
19,cey,f,19,r,2,(121.76378772032346, -121.76378772032352),28,-25,14,yes,x,5,x,0.45356249999986176,1,78,test2,2,0.4541905999994924,-70.0
19,cey,f,19,r,2,(-172.20000000000002, 2.1088417881317425e-14),25,-3,11,yes,x,5,m,0.8269995999999082,0,79,test2,2,0.8271009000000049,-48.0
19,cey,f,19,r,2,(121.76378772032346, -121.76378772032352),28,7,3,yes,x,5,x,0.44696919999933016,1,80,test2,2,0.4474670999998125,-38.0
19,cey,f,19,r,2,(121.76378772032349, 121.76378772032349),22,7,3,yes,x,5,x,0.4691345999999612,1,81,test2,2,0.46925069999997504,-38.0
19,cey,f,19,r,2,(-172.20000000000002, 2.1088417881317425e-14),25,-7,13,yes,x,5,x,0.39502009999978327,1,82,test2,2,0.3952200999992783,-52.0
19,cey,f,19,r,2,(1.0544208940658713e-14, 172.20000000000002),23,5,2,yes,x,5,x,0.4694437999996808,1,83,test2,2,0.4695715999996537,-40.0
19,cey,f,19,r,2,(121.76378772032349, 121.76378772032349),22,-7,13,yes,x,5,x,0.4081198999992921,1,84,test2,2,0.40821909999976924,-52.0
19,cey,f,19,r,2,(-3.163262682197613e-14, -172.20000000000002),27,5,2,yes,x,5,x,0.42434790000061184,1,85,test2,2,0.424488200000269,-40.0
19,cey,f,19,r,2,(-172.20000000000002, 2.1088417881317425e-14),25,7,3,yes,x,5,x,0.37655139999969833,1,86,test2,2,0.37671249999948486,-38.0
19,cey,f,19,r,2,(-121.76378772032352, -121.76378772032348),26,-25,14,yes,x,5,x,0.3159371000001556,1,87,test2,2,0.31622220000008383,-70.0
19,cey,f,19,r,2,(121.76378772032346, -121.76378772032352),28,-7,13,yes,x,5,x,0.3804330000002665,1,88,test2,2,0.38072050000027957,-52.0
19,cey,f,19,r,2,(1.0544208940658713e-14, 172.20000000000002),23,7,3,yes,x,5,x,0.3157887999996092,1,89,test2,2,0.31592710000040825,-38.0
19,cey,f,19,r,2,(-121.76378772032348, 121.76378772032349),24,25,4,yes,x,5,x,0.334026300000005,1,90,test2,2,0.3343275999995967,-20.0
19,cey,f,19,r,2,(-3.163262682197613e-14, -172.20000000000002),27,-25,14,yes,x,5,x,0.385873499999434,1,91,test2,2,0.3861356000006708,-70.0
19,cey,f,19,r,2,(121.76378772032349, 121.76378772032349),22,25,4,yes,x,5,x,0.34376179999981105,1,92,test2,2,0.3438646000004155,-20.0
19,cey,f,19,r,2,(1.0544208940658713e-14, 172.20000000000002),23,-3,11,yes,x,5,m,0.7218138999996881,0,93,test2,2,0.7221414000005097,-48.0
19,cey,f,19,r,2,(-121.76378772032352, -121.76378772032348),26,-5,12,yes,x,5,x,0.44550619999972696,1,94,test2,2,0.4456084000003102,-50.0
19,cey,f,19,r,2,(121.76378772032346, -121.76378772032352),28,-5,12,yes,x,5,x,0.3766328000001522,1,95,test2,2,0.37696580000010727,-50.0
19,cey,f,19,r,2,(121.76378772032346, -121.76378772032352),28,-3,11,yes,x,5,x,1.0272900999998456,1,96,test2,2,1.0275784000004933,-48.0
19,cey,f,19,r,2,(-3.163262682197613e-14, -172.20000000000002),27,-7,13,yes,x,5,x,0.3446782000000894,1,1,test1,3,0.3449740000005477,-52.0
19,cey,f,19,r,2,(-172.20000000000002, 2.1088417881317425e-14),25,-3,11,yes,x,5,x,0.718539000000419,1,2,test1,3,0.7188165999996272,-48.0
19,cey,f,19,r,2,(-172.20000000000002, 2.1088417881317425e-14),25,-25,14,yes,x,5,x,0.3635636999997587,1,3,test1,3,0.36385599999994156,-70.0
19,cey,f,19,r,2,(121.76378772032349, 121.76378772032349),22,25,4,yes,x,5,x,0.37967920000028244,1,4,test1,3,0.37997830000040267,-20.0
19,cey,f,19,r,2,(121.76378772032346, -121.76378772032352),28,5,2,yes,x,5,x,0.526156799999626,1,5,test1,3,0.5262548000000606,-40.0
19,cey,f,19,r,2,(-3.163262682197613e-14, -172.20000000000002),27,3,1,yes,x,5,m,0.9584701000003406,0,6,test1,3,0.9589187999999922,-42.0
19,cey,f,19,r,2,(-172.20000000000002, 2.1088417881317425e-14),25,3,1,yes,x,5,m,0.6526899999998932,0,7,test1,3,0.6528268000001844,-42.0
19,cey,f,19,r,2,(-121.76378772032352, -121.76378772032348),26,-3,11,yes,x,5,m,0.7491141000000425,0,8,test1,3,0.7493011000005936,-48.0
19,cey,f,19,r,2,(-172.20000000000002, 2.1088417881317425e-14),25,-7,13,no,m,6,m,1.7243399999997564,1,9,test1,3,1.7246687000006204,-48.0
19,cey,f,19,r,2,(-121.76378772032348, 121.76378772032349),24,3,1,no,m,6,m,1.1397640000004685,1,10,test1,3,1.1402618000001894,-48.0
19,cey,f,19,r,2,(-3.163262682197613e-14, -172.20000000000002),27,7,3,yes,x,5,x,0.5775112000001172,1,11,test1,3,0.5779330000004848,-38.0
19,cey,f,19,r,2,(-3.163262682197613e-14, -172.20000000000002),27,-7,13,no,m,6,m,1.5901843000001463,1,12,test1,3,1.59041630000047,-38.0
19,cey,f,19,r,2,(121.76378772032349, 121.76378772032349),22,-7,13,yes,x,5,x,0.422215700000379,1,13,test1,3,0.4223178000002008,-52.0
19,cey,f,19,r,2,(121.76378772032346, -121.76378772032352),28,3,1,yes,x,5,x,0.9073372000002564,1,14,test1,3,0.9075139999995372,-42.0
19,cey,f,19,r,2,(121.76378772032346, -121.76378772032352),28,5,2,no,m,6,m,0.9924908000002688,1,15,test1,3,0.9925921000003655,-42.0
19,cey,f,19,r,2,(-121.76378772032348, 121.76378772032349),24,-25,14,yes,x,5,x,0.36035249999986263,1,16,test1,3,0.3605084999999235,-70.0
19,cey,f,19,r,2,(121.76378772032349, 121.76378772032349),22,-3,11,no,m,6,m,0.7228906000000279,1,17,test1,3,0.7233378999999331,-70.0
19,cey,f,19,r,2,(1.0544208940658713e-14, 172.20000000000002),23,5,2,no,m,6,m,1.0391777000004367,1,18,test1,3,1.0394850000002407,-70.0
19,cey,f,19,r,2,(-121.76378772032352, -121.76378772032348),26,-5,12,yes,x,5,x,0.4860296000006201,1,19,test1,3,0.4863541999993686,-50.0
19,cey,f,19,r,2,(121.76378772032346, -121.76378772032352),28,7,3,yes,x,5,x,0.5367960000003222,1,20,test1,3,0.5370034999996278,-38.0
19,cey,f,19,r,2,(172.20000000000002, 0.0),21,-5,12,yes,x,5,x,0.488709000000199,1,21,test1,3,0.4888394999998127,-50.0
19,cey,f,19,r,2,(-121.76378772032352, -121.76378772032348),26,-3,11,no,m,6,None,None,0,22,test1,3,1.9800959000003786,-50.0
19,cey,f,19,r,2,(-121.76378772032352, -121.76378772032348),26,7,3,yes,x,5,x,1.0241727000002356,1,23,test1,3,1.02433850000034,-38.0
19,cey,f,19,r,2,(-121.76378772032348, 121.76378772032349),24,-25,14,no,m,6,m,0.5633311999999933,1,24,test1,3,0.5634417999999641,-38.0
19,cey,f,19,r,2,(-3.163262682197613e-14, -172.20000000000002),27,3,1,yes,x,5,x,0.6077562000000398,1,25,test1,3,0.6078739000004134,-42.0
19,cey,f,19,r,2,(121.76378772032346, -121.76378772032352),28,-7,13,yes,x,5,x,0.43752279999989696,1,26,test1,3,0.4377498999992895,-52.0
19,cey,f,19,r,2,(121.76378772032346, -121.76378772032352),28,-5,12,no,m,6,m,0.5676887999998144,1,27,test1,3,0.5679094999995868,-52.0
19,cey,f,19,r,2,(172.20000000000002, 0.0),21,3,1,no,m,6,x,0.8618476999999984,0,28,test1,3,0.8621440999995684,-52.0
19,cey,f,19,r,2,(-121.76378772032352, -121.76378772032348),26,-5,12,no,m,6,m,0.5937579000001278,1,29,test1,3,0.5939673000002585,-52.0
19,cey,f,19,r,2,(1.0544208940658713e-14, 172.20000000000002),23,-7,13,yes,x,5,x,0.6016522999998415,1,30,test1,3,0.6018621000002895,-52.0
19,cey,f,19,r,2,(-172.20000000000002, 2.1088417881317425e-14),25,25,4,yes,x,5,x,0.4903364000001602,1,31,test1,3,0.49045100000057573,-20.0
19,cey,f,19,r,2,(172.20000000000002, 0.0),21,5,2,no,m,6,m,0.6486865000006219,1,32,test1,3,0.6487888999999996,-20.0
19,cey,f,19,r,2,(-121.76378772032352, -121.76378772032348),26,-7,13,yes,x,5,x,0.5259422999997696,1,33,test1,3,0.5261107999995147,-52.0
19,cey,f,19,r,2,(172.20000000000002, 0.0),21,-3,11,no,m,6,m,0.60486149999997,1,34,test1,3,0.6053627000001143,-52.0
19,cey,f,19,r,2,(-3.163262682197613e-14, -172.20000000000002),27,5,2,yes,x,5,x,0.6201805000000604,1,35,test1,3,0.620410699999411,-40.0
19,cey,f,19,r,2,(121.76378772032346, -121.76378772032352),28,-25,14,no,m,6,m,0.9664192999998704,1,36,test1,3,0.9666379000000234,-40.0
19,cey,f,19,r,2,(-172.20000000000002, 2.1088417881317425e-14),25,25,4,yes,x,5,x,0.38171929999953136,1,37,test1,3,0.3818233000001783,-20.0
19,cey,f,19,r,2,(121.76378772032349, 121.76378772032349),22,-3,11,yes,x,5,x,0.6143355999993219,1,38,test1,3,0.6144391999996515,-48.0
19,cey,f,19,r,2,(-3.163262682197613e-14, -172.20000000000002),27,-5,12,no,m,6,m,0.5899767000000793,1,39,test1,3,0.5903688000007605,-48.0
19,cey,f,19,r,2,(-3.163262682197613e-14, -172.20000000000002),27,5,2,no,m,6,m,0.7605008999998972,1,40,test1,3,0.7606048999996347,-48.0
19,cey,f,19,r,2,(121.76378772032349, 121.76378772032349),22,-7,13,no,m,6,m,0.7366206999995484,1,41,test1,3,0.7367359999998371,-48.0
19,cey,f,19,r,2,(121.76378772032349, 121.76378772032349),22,25,4,no,m,6,m,0.7923425999997562,1,42,test1,3,0.7926502000000255,-48.0
19,cey,f,19,r,2,(-172.20000000000002, 2.1088417881317425e-14),25,-7,13,yes,x,5,x,0.4267231999992873,1,43,test1,3,0.4269657000004372,-52.0
19,cey,f,19,r,2,(172.20000000000002, 0.0),21,-5,12,yes,x,5,x,0.6344885999997132,1,44,test1,3,0.6346474000001763,-50.0
19,cey,f,19,r,2,(121.76378772032346, -121.76378772032352),28,-3,11,no,m,6,m,0.5853920999998081,1,45,test1,3,0.5856321999999636,-50.0
19,cey,f,19,r,2,(172.20000000000002, 0.0),21,7,3,yes,x,5,x,0.5361701999991055,1,46,test1,3,0.5363819000003787,-38.0
19,cey,f,19,r,2,(-172.20000000000002, 2.1088417881317425e-14),25,3,1,no,m,6,m,0.5501132999997935,1,47,test1,3,0.5502131000002919,-38.0
19,cey,f,19,r,2,(1.0544208940658713e-14, 172.20000000000002),23,-3,11,yes,x,5,m,0.7507595000006404,0,48,test1,3,0.750893399999768,-48.0
19,cey,f,19,r,2,(172.20000000000002, 0.0),21,-25,14,yes,x,5,x,0.4344750000000204,1,49,test1,3,0.4349108000005799,-70.0
19,cey,f,19,r,2,(-3.163262682197613e-14, -172.20000000000002),27,7,3,yes,x,5,x,0.8131554000001415,1,50,test1,3,0.8135321999998268,-38.0
19,cey,f,19,r,2,(172.20000000000002, 0.0),21,-25,14,no,m,6,m,0.6634698999996544,1,51,test1,3,0.6637102000004234,-38.0
19,cey,f,19,r,2,(-3.163262682197613e-14, -172.20000000000002),27,-3,11,no,m,6,m,0.6582172000007631,1,52,test1,3,0.6587621999997282,-38.0
19,cey,f,19,r,2,(-121.76378772032352, -121.76378772032348),26,-7,13,yes,x,5,x,0.523983699999917,1,53,test1,3,0.5240999999996347,-52.0
19,cey,f,19,r,2,(-3.163262682197613e-14, -172.20000000000002),27,-5,12,yes,x,5,x,0.5478502999994816,1,54,test1,3,0.5479707000004055,-50.0
19,cey,f,19,r,2,(121.76378772032349, 121.76378772032349),22,5,2,no,m,6,m,0.6222436999996717,1,55,test1,3,0.6225469000000885,-50.0
19,cey,f,19,r,2,(-121.76378772032352, -121.76378772032348),26,-7,13,no,m,6,m,0.5680978000000323,1,56,test1,3,0.5682320999994772,-50.0
19,cey,f,19,r,2,(-121.76378772032348, 121.76378772032349),24,-7,13,no,m,6,m,0.6987413999995624,1,57,test1,3,0.6996245999998791,-50.0
19,cey,f,19,r,2,(121.76378772032349, 121.76378772032349),22,7,3,no,m,6,m,0.4688930000002074,1,58,test1,3,0.46917389999998704,-50.0
19,cey,f,19,r,2,(1.0544208940658713e-14, 172.20000000000002),23,-5,12,yes,x,5,m,0.44128379999983736,0,59,test1,3,0.4414134999997259,-50.0
19,cey,f,19,r,2,(-121.76378772032348, 121.76378772032349),24,7,3,no,m,6,m,1.173819700000422,1,60,test1,3,1.1739469000003737,-50.0
19,cey,f,19,r,2,(-3.163262682197613e-14, -172.20000000000002),27,7,3,no,m,6,None,None,0,61,test1,3,1.9801016999999774,-50.0
19,cey,f,19,r,2,(-121.76378772032352, -121.76378772032348),26,7,3,no,m,6,m,0.5065162999999302,1,62,test1,3,0.5066462999993746,-50.0
19,cey,f,19,r,2,(172.20000000000002, 0.0),21,-3,11,yes,x,5,x,0.5863197000007858,1,63,test1,3,0.5865320000002612,-48.0
19,cey,f,19,r,2,(121.76378772032346, -121.76378772032352),28,3,1,no,m,6,m,0.5570770000003904,1,64,test1,3,0.5573224999998274,-48.0
19,cey,f,19,r,2,(-172.20000000000002, 2.1088417881317425e-14),25,-25,14,no,m,6,m,0.5871396999991703,1,65,test1,3,0.5872804000000542,-48.0
19,cey,f,19,r,2,(-121.76378772032352, -121.76378772032348),26,25,4,yes,x,5,x,0.4004555999999866,1,66,test1,3,0.40069669999957114,-20.0
19,cey,f,19,r,2,(-121.76378772032348, 121.76378772032349),24,-5,12,yes,x,5,x,0.39302049999969313,1,67,test1,3,0.39314920000015263,-50.0
19,cey,f,19,r,2,(121.76378772032349, 121.76378772032349),22,3,1,yes,x,5,m,0.5946046999997634,0,68,test1,3,0.5948404000000664,-42.0
19,cey,f,19,r,2,(1.0544208940658713e-14, 172.20000000000002),23,5,2,yes,x,5,x,0.40230309999969904,1,69,test1,3,0.40240429999994376,-40.0
19,cey,f,19,r,2,(-121.76378772032348, 121.76378772032349),24,25,4,no,m,6,m,0.63062760000048,1,70,test1,3,0.6310892999999851,-40.0
19,cey,f,19,r,2,(1.0544208940658713e-14, 172.20000000000002),23,-25,14,yes,x,5,x,0.36902940000072704,1,71,test1,3,0.3693503000004057,-70.0
19,cey,f,19,r,2,(121.76378772032349, 121.76378772032349),22,-25,14,no,m,6,m,0.5839191000004575,1,72,test1,3,0.5840601999998398,-70.0
19,cey,f,19,r,2,(-121.76378772032352, -121.76378772032348),26,5,2,no,m,6,m,0.5300934999995661,1,73,test1,3,0.5303008999999292,-70.0
19,cey,f,19,r,2,(-172.20000000000002, 2.1088417881317425e-14),25,-3,11,no,m,6,m,0.5162843999996767,1,74,test1,3,0.5166426999994655,-70.0
19,cey,f,19,r,2,(-172.20000000000002, 2.1088417881317425e-14),25,5,2,yes,x,5,x,0.6943142999998599,1,75,test1,3,0.6947516000000178,-40.0
19,cey,f,19,r,2,(1.0544208940658713e-14, 172.20000000000002),23,3,1,yes,x,5,x,0.49855959999968036,1,76,test1,3,0.49896890000036365,-42.0
19,cey,f,19,r,2,(-121.76378772032348, 121.76378772032349),24,-3,11,no,m,6,m,0.6089018000002397,1,77,test1,3,0.6091456000003745,-42.0
19,cey,f,19,r,2,(-121.76378772032352, -121.76378772032348),26,5,2,yes,x,5,x,0.5238188999992417,1,78,test1,3,0.5242614999997386,-40.0
19,cey,f,19,r,2,(121.76378772032349, 121.76378772032349),22,-5,12,yes,x,5,x,0.5513854999999239,1,79,test1,3,0.5514846000005491,-50.0
19,cey,f,19,r,2,(121.76378772032349, 121.76378772032349),22,-5,12,no,m,6,m,0.5995951999993849,1,80,test1,3,0.5998184000000037,-50.0
19,cey,f,19,r,2,(-121.76378772032352, -121.76378772032348),26,7,3,yes,x,5,x,0.44774950000009994,1,81,test1,3,0.4479050999998435,-38.0
19,cey,f,19,r,2,(-172.20000000000002, 2.1088417881317425e-14),25,-5,12,no,m,6,m,0.6882685000000492,1,82,test1,3,0.6885111000001416,-38.0
19,cey,f,19,r,2,(-121.76378772032352, -121.76378772032348),26,25,4,no,m,6,m,0.6349017000002277,1,83,test1,3,0.6350069999998595,-38.0
19,cey,f,19,r,2,(121.76378772032349, 121.76378772032349),22,3,1,yes,x,5,x,0.5819091000003027,1,84,test1,3,0.5824856999997792,-42.0
19,cey,f,19,r,2,(-121.76378772032348, 121.76378772032349),24,5,2,no,m,6,m,0.9988451999997778,1,85,test1,3,0.9995506000004752,-42.0
19,cey,f,19,r,2,(-3.163262682197613e-14, -172.20000000000002),27,25,4,yes,x,5,x,0.4521014000001742,1,86,test1,3,0.4522333000004437,-20.0
19,cey,f,19,r,2,(-121.76378772032348, 121.76378772032349),24,-25,14,yes,x,5,x,0.5937591000001703,1,87,test1,3,0.593874300000607,-70.0
19,cey,f,19,r,2,(121.76378772032346, -121.76378772032352),28,-5,12,yes,x,5,x,0.6023765999998432,1,88,test1,3,0.6026083999995535,-50.0
19,cey,f,19,r,2,(121.76378772032349, 121.76378772032349),22,7,3,yes,x,5,x,0.41211569999995845,1,89,test1,3,0.4123153000000457,-38.0
19,cey,f,19,r,2,(1.0544208940658713e-14, 172.20000000000002),23,-7,13,no,m,6,m,0.6768392000003587,1,90,test1,3,0.6769720000002053,-38.0
19,cey,f,19,r,2,(1.0544208940658713e-14, 172.20000000000002),23,7,3,no,m,6,m,0.8262341999998171,1,91,test1,3,0.8263312999997652,-38.0
19,cey,f,19,r,2,(-172.20000000000002, 2.1088417881317425e-14),25,7,3,no,m,6,m,0.670148799999879,1,92,test1,3,0.6708001999995759,-38.0
19,cey,f,19,r,2,(121.76378772032346, -121.76378772032352),28,3,1,yes,x,5,x,0.9297422999998162,1,93,test1,3,0.9299246000000494,-42.0
19,cey,f,19,r,2,(172.20000000000002, 0.0),21,3,1,yes,x,5,x,0.572154400000727,1,94,test1,3,0.5722828000007212,-42.0
19,cey,f,19,r,2,(-121.76378772032352, -121.76378772032348),26,25,4,yes,x,5,x,0.4368973000000551,1,95,test1,3,0.43699819999983447,-20.0
19,cey,f,19,r,2,(121.76378772032346, -121.76378772032352),28,5,2,yes,x,5,x,0.41555779999998776,1,96,test1,3,0.4158658000005744,-40.0
19,cey,f,19,r,2,(172.20000000000002, 0.0),21,25,4,yes,x,5,x,0.48404110000046785,1,1,test2,3,0.4845407000002524,-20.0
19,cey,f,19,r,2,(-172.20000000000002, 2.1088417881317425e-14),25,7,3,yes,x,5,x,0.41283539999949426,1,2,test2,3,0.41293469999982335,-38.0
19,cey,f,19,r,2,(-3.163262682197613e-14, -172.20000000000002),27,-7,13,yes,x,5,x,0.3977297000001272,1,3,test2,3,0.3980400999998892,-52.0
19,cey,f,19,r,2,(1.0544208940658713e-14, 172.20000000000002),23,-7,13,yes,x,5,x,0.3819593000007444,1,4,test2,3,0.38247880000017176,-52.0
19,cey,f,19,r,2,(-121.76378772032352, -121.76378772032348),26,-3,11,yes,x,5,m,0.7890566999994917,0,5,test2,3,0.7891849999996339,-48.0
19,cey,f,19,r,2,(-3.163262682197613e-14, -172.20000000000002),27,3,1,no,m,6,m,0.8302812000001722,1,6,test2,3,0.8306703000007474,-48.0
19,cey,f,19,r,2,(121.76378772032349, 121.76378772032349),22,-25,14,yes,x,5,x,0.4343116000000009,1,7,test2,3,0.43443050000041694,-70.0
19,cey,f,19,r,2,(172.20000000000002, 0.0),21,25,4,no,m,6,m,0.7143138999999792,1,8,test2,3,0.714557600000262,-70.0
19,cey,f,19,r,2,(172.20000000000002, 0.0),21,7,3,yes,x,5,x,0.4417453999994905,1,9,test2,3,0.44210370000018884,-38.0
19,cey,f,19,r,2,(-121.76378772032348, 121.76378772032349),24,5,2,yes,x,5,x,0.47416009999960806,1,10,test2,3,0.4742825000002995,-40.0
19,cey,f,19,r,2,(1.0544208940658713e-14, 172.20000000000002),23,25,4,no,m,6,m,0.5789389999999912,1,11,test2,3,0.5795381999996607,-40.0
19,cey,f,19,r,2,(1.0544208940658713e-14, 172.20000000000002),23,25,4,yes,x,5,x,0.38436449999971956,1,12,test2,3,0.3846856000000116,-20.0
19,cey,f,19,r,2,(-3.163262682197613e-14, -172.20000000000002),27,-3,11,yes,x,5,m,0.7262621999998373,0,13,test2,3,0.7265764000003401,-48.0
19,cey,f,19,r,2,(-3.163262682197613e-14, -172.20000000000002),27,-5,12,yes,x,5,x,0.6801643999997395,1,14,test2,3,0.680279199999859,-50.0
19,cey,f,19,r,2,(-172.20000000000002, 2.1088417881317425e-14),25,5,2,no,m,6,m,0.6532594999998764,1,15,test2,3,0.6536310000001322,-50.0
19,cey,f,19,r,2,(-172.20000000000002, 2.1088417881317425e-14),25,-5,12,yes,x,5,x,0.6309515000002648,1,16,test2,3,0.6316366999999445,-50.0
19,cey,f,19,r,2,(-172.20000000000002, 2.1088417881317425e-14),25,5,2,yes,x,5,x,0.4905094999994617,1,17,test2,3,0.49073889999999665,-40.0
19,cey,f,19,r,2,(-121.76378772032352, -121.76378772032348),26,3,1,yes,x,5,x,0.5075013999994553,1,18,test2,3,0.5077522000001409,-42.0
19,cey,f,19,r,2,(172.20000000000002, 0.0),21,-7,13,yes,x,5,x,0.5512533999999505,1,19,test2,3,0.5514104000003499,-52.0
19,cey,f,19,r,2,(-3.163262682197613e-14, -172.20000000000002),27,-25,14,no,m,6,m,0.608814700000039,1,20,test2,3,0.608917399999882,-52.0
19,cey,f,19,r,2,(-121.76378772032348, 121.76378772032349),24,7,3,yes,x,5,x,0.4071309000000838,1,21,test2,3,0.40724199999931443,-38.0
19,cey,f,19,r,2,(-121.76378772032352, -121.76378772032348),26,-25,14,no,m,6,m,0.7447590000001583,1,22,test2,3,0.7451634999997623,-38.0
19,cey,f,19,r,2,(1.0544208940658713e-14, 172.20000000000002),23,3,1,yes,x,5,x,0.5413189000000784,1,23,test2,3,0.5416574000000764,-42.0
19,cey,f,19,r,2,(121.76378772032346, -121.76378772032352),28,25,4,yes,x,5,x,0.516621199999463,1,24,test2,3,0.5170515999998315,-20.0
19,cey,f,19,r,2,(-121.76378772032348, 121.76378772032349),24,-5,12,no,m,6,m,0.6581427999999505,1,25,test2,3,0.6585588999996617,-20.0
19,cey,f,19,r,2,(1.0544208940658713e-14, 172.20000000000002),23,-5,12,yes,x,5,x,0.47839420000036625,1,26,test2,3,0.47897069999999076,-50.0
19,cey,f,19,r,2,(1.0544208940658713e-14, 172.20000000000002),23,-3,11,no,m,6,x,0.5615218000002642,0,27,test2,3,0.5616338999998334,-50.0
19,cey,f,19,r,2,(121.76378772032346, -121.76378772032352),28,25,4,no,m,6,m,0.9975636999997732,1,28,test2,3,0.9980042999995931,-50.0
19,cey,f,19,r,2,(-121.76378772032352, -121.76378772032348),26,3,1,yes,x,5,x,0.5273802000001524,1,29,test2,3,0.5276869999997871,-42.0
19,cey,f,19,r,2,(-121.76378772032348, 121.76378772032349),24,-5,12,yes,x,5,x,0.45408709999992425,1,30,test2,3,0.45419159999983094,-50.0
19,cey,f,19,r,2,(172.20000000000002, 0.0),21,25,4,yes,x,5,x,0.4485783000000083,1,31,test2,3,0.4488916000000245,-20.0
19,cey,f,19,r,2,(1.0544208940658713e-14, 172.20000000000002),23,-5,12,no,m,6,m,0.7514972999997553,1,32,test2,3,0.7519326999999976,-20.0
19,cey,f,19,r,2,(-121.76378772032352, -121.76378772032348),26,3,1,no,m,6,x,0.6694251999997505,0,33,test2,3,0.6698576000007961,-20.0
19,cey,f,19,r,2,(-121.76378772032348, 121.76378772032349),24,-7,13,yes,x,5,x,0.42427129999941826,1,34,test2,3,0.4244349999999031,-52.0
19,cey,f,19,r,2,(-121.76378772032348, 121.76378772032349),24,7,3,yes,x,5,x,0.4675715000003038,1,35,test2,3,0.467671600000358,-38.0
19,cey,f,19,r,2,(-121.76378772032348, 121.76378772032349),24,25,4,yes,x,5,x,0.48211429999992106,1,36,test2,3,0.48221399999965797,-20.0
19,cey,f,19,r,2,(-121.76378772032348, 121.76378772032349),24,-3,11,yes,x,5,x,0.8673822000000655,1,37,test2,3,0.867515199999616,-48.0
19,cey,f,19,r,2,(172.20000000000002, 0.0),21,-5,12,no,m,6,m,0.655667099999846,1,38,test2,3,0.656443699999727,-48.0
19,cey,f,19,r,2,(172.20000000000002, 0.0),21,5,2,yes,x,5,x,0.4696515999994517,1,39,test2,3,0.469887799999924,-40.0
19,cey,f,19,r,2,(121.76378772032349, 121.76378772032349),22,3,1,no,m,6,m,0.844510299999456,1,40,test2,3,0.8447690000002694,-40.0
19,cey,f,19,r,2,(1.0544208940658713e-14, 172.20000000000002),23,7,3,yes,x,5,x,0.4667628000006516,1,41,test2,3,0.4672641000006479,-38.0
19,cey,f,19,r,2,(-3.163262682197613e-14, -172.20000000000002),27,25,4,yes,x,5,x,0.5046155999998518,1,42,test2,3,0.5053027000003567,-20.0
19,cey,f,19,r,2,(172.20000000000002, 0.0),21,-7,13,yes,x,5,m,0.4880143999998836,0,43,test2,3,0.4881194999998115,-52.0
19,cey,f,19,r,2,(121.76378772032349, 121.76378772032349),22,5,2,yes,x,5,x,0.6289928999995027,1,44,test2,3,0.6291936999996324,-40.0
19,cey,f,19,r,2,(121.76378772032349, 121.76378772032349),22,5,2,yes,x,5,x,0.5297174999996059,1,45,test2,3,0.529947699999866,-40.0
19,cey,f,19,r,2,(-121.76378772032348, 121.76378772032349),24,3,1,yes,x,5,m,0.8905863999998473,0,46,test2,3,0.8908247999997911,-42.0
19,cey,f,19,r,2,(172.20000000000002, 0.0),21,3,1,yes,x,5,x,0.8273362999998426,1,47,test2,3,0.8274972999997772,-42.0
19,cey,f,19,r,2,(-3.163262682197613e-14, -172.20000000000002),27,25,4,no,m,6,m,0.7061939000004713,1,48,test2,3,0.7065568000007261,-42.0
19,cey,f,19,r,2,(172.20000000000002, 0.0),21,-7,13,no,m,6,m,0.6511224999994738,1,49,test2,3,0.6512230999996973,-42.0
19,cey,f,19,r,2,(121.76378772032346, -121.76378772032352),28,25,4,yes,x,5,x,0.49676799999997456,1,50,test2,3,0.49697920000016893,-20.0
19,cey,f,19,r,2,(-172.20000000000002, 2.1088417881317425e-14),25,-5,12,yes,x,5,x,0.606149600000208,1,51,test2,3,0.6067427999996653,-50.0
19,cey,f,19,r,2,(-172.20000000000002, 2.1088417881317425e-14),25,25,4,no,m,6,m,0.6317231000002721,1,52,test2,3,0.6318818999998257,-50.0
19,cey,f,19,r,2,(172.20000000000002, 0.0),21,7,3,no,m,6,m,0.7280654000005597,1,53,test2,3,0.7282012999994549,-50.0
19,cey,f,19,r,2,(172.20000000000002, 0.0),21,-3,11,yes,x,5,m,0.6204169000002366,0,54,test2,3,0.6207642999997915,-48.0
19,cey,f,19,r,2,(172.20000000000002, 0.0),21,5,2,yes,x,5,x,0.7159073000002536,1,55,test2,3,0.7162451000003784,-40.0
19,cey,f,19,r,2,(-3.163262682197613e-14, -172.20000000000002),27,-3,11,yes,x,5,x,0.8252630999995745,1,56,test2,3,0.8255039000005127,-48.0
19,cey,f,19,r,2,(-121.76378772032348, 121.76378772032349),24,-3,11,yes,x,5,m,0.7817364000002271,0,57,test2,3,0.7818373000000065,-48.0
19,cey,f,19,r,2,(-3.163262682197613e-14, -172.20000000000002),27,-25,14,yes,x,5,x,0.5758572999993703,1,58,test2,3,0.5759891999996398,-70.0
19,cey,f,19,r,2,(121.76378772032346, -121.76378772032352),28,-7,13,no,m,6,m,0.6496366000001217,1,59,test2,3,0.6499345000001995,-70.0
19,cey,f,19,r,2,(1.0544208940658713e-14, 172.20000000000002),23,3,1,no,m,6,m,0.6189849000002141,1,60,test2,3,0.6192714999997406,-70.0
19,cey,f,19,r,2,(121.76378772032349, 121.76378772032349),22,-5,12,yes,x,5,x,0.5094349999999395,1,61,test2,3,0.5100956999995105,-50.0
19,cey,f,19,r,2,(-121.76378772032352, -121.76378772032348),26,5,2,yes,x,5,x,0.542822200000046,1,62,test2,3,0.5429960000001302,-40.0
19,cey,f,19,r,2,(-121.76378772032352, -121.76378772032348),26,-25,14,yes,x,5,x,0.47407139999995707,1,63,test2,3,0.4744094999996378,-70.0
19,cey,f,19,r,2,(121.76378772032346, -121.76378772032352),28,-25,14,yes,x,5,x,0.5359545999999682,1,64,test2,3,0.5360627000000022,-70.0
19,cey,f,19,r,2,(121.76378772032346, -121.76378772032352),28,-3,11,yes,x,5,x,0.7976684000004752,1,65,test2,3,0.7977992000005543,-48.0
19,cey,f,19,r,2,(172.20000000000002, 0.0),21,-25,14,yes,x,5,x,0.4042107000004762,1,66,test2,3,0.4044224999997823,-70.0
19,cey,f,19,r,2,(121.76378772032349, 121.76378772032349),22,-25,14,yes,x,5,x,0.4557141999994201,1,67,test2,3,0.45601840000017546,-70.0
19,cey,f,19,r,2,(1.0544208940658713e-14, 172.20000000000002),23,-25,14,yes,x,5,x,0.527401600000303,1,68,test2,3,0.5276328999998441,-70.0
19,cey,f,19,r,2,(121.76378772032346, -121.76378772032352),28,7,3,no,m,6,m,0.8157830999998623,1,69,test2,3,0.8163064000000304,-70.0
19,cey,f,19,r,2,(1.0544208940658713e-14, 172.20000000000002),23,-25,14,no,m,6,m,0.8994105000001582,1,70,test2,3,0.8996617000002516,-70.0
19,cey,f,19,r,2,(121.76378772032349, 121.76378772032349),22,-3,11,yes,x,5,x,0.9220398000006753,1,71,test2,3,0.922353099999782,-48.0
19,cey,f,19,r,2,(-172.20000000000002, 2.1088417881317425e-14),25,3,1,yes,x,5,m,0.8809425999997984,0,72,test2,3,0.8810503999993671,-42.0
19,cey,f,19,r,2,(1.0544208940658713e-14, 172.20000000000002),23,25,4,yes,x,5,x,0.40628620000006777,1,73,test2,3,0.4064098000008016,-20.0
19,cey,f,19,r,2,(-121.76378772032348, 121.76378772032349),24,-7,13,yes,x,5,x,0.4078100999995513,1,74,test2,3,0.4083591999997225,-52.0
19,cey,f,19,r,2,(-121.76378772032348, 121.76378772032349),24,5,2,yes,x,5,x,0.4126438000002963,1,75,test2,3,0.4127454999998008,-40.0
19,cey,f,19,r,2,(-121.76378772032348, 121.76378772032349),24,3,1,yes,x,5,x,0.7054442999997264,1,76,test2,3,0.7057279000000563,-42.0
19,cey,f,19,r,2,(-172.20000000000002, 2.1088417881317425e-14),25,-25,14,yes,x,5,x,0.42759210000076564,1,77,test2,3,0.4278190999993967,-70.0
19,cey,f,19,r,2,(121.76378772032346, -121.76378772032352),28,-25,14,yes,x,5,x,0.3487745000002178,1,78,test2,3,0.3490504000001238,-70.0
19,cey,f,19,r,2,(-172.20000000000002, 2.1088417881317425e-14),25,-3,11,yes,x,5,m,1.0166363999996975,0,79,test2,3,1.016858900000443,-48.0
19,cey,f,19,r,2,(121.76378772032346, -121.76378772032352),28,7,3,yes,x,5,x,0.4177132000004349,1,80,test2,3,0.41794560000016645,-38.0
19,cey,f,19,r,2,(121.76378772032349, 121.76378772032349),22,7,3,yes,x,5,x,0.4240874999995867,1,81,test2,3,0.4242135000004055,-38.0
19,cey,f,19,r,2,(-172.20000000000002, 2.1088417881317425e-14),25,-7,13,yes,x,5,x,0.47237549999954354,1,82,test2,3,0.4725428000001557,-52.0
19,cey,f,19,r,2,(1.0544208940658713e-14, 172.20000000000002),23,5,2,yes,x,5,x,0.4834713999989617,1,83,test2,3,0.4839252999991004,-40.0
19,cey,f,19,r,2,(121.76378772032349, 121.76378772032349),22,-7,13,yes,x,5,x,0.540563700000348,1,84,test2,3,0.5406961999997293,-52.0
19,cey,f,19,r,2,(-3.163262682197613e-14, -172.20000000000002),27,5,2,yes,x,5,x,0.9595630000003439,1,85,test2,3,0.9598062999993999,-40.0
19,cey,f,19,r,2,(-172.20000000000002, 2.1088417881317425e-14),25,7,3,yes,x,5,x,0.39243360000000393,1,86,test2,3,0.3928377000011096,-38.0
19,cey,f,19,r,2,(-121.76378772032352, -121.76378772032348),26,-25,14,yes,x,5,x,0.3582050999993953,1,87,test2,3,0.35830669999995735,-70.0
19,cey,f,19,r,2,(121.76378772032346, -121.76378772032352),28,-7,13,yes,x,5,x,0.38383539999995264,1,88,test2,3,0.3841062999999849,-52.0
19,cey,f,19,r,2,(1.0544208940658713e-14, 172.20000000000002),23,7,3,yes,x,5,x,0.42126509999980044,1,89,test2,3,0.4215129000003799,-38.0
19,cey,f,19,r,2,(-121.76378772032348, 121.76378772032349),24,25,4,yes,x,5,x,0.3736542999995436,1,90,test2,3,0.3738909000003332,-20.0
19,cey,f,19,r,2,(-3.163262682197613e-14, -172.20000000000002),27,-25,14,yes,x,5,x,0.366480100001354,1,91,test2,3,0.36658449999958975,-70.0
19,cey,f,19,r,2,(121.76378772032349, 121.76378772032349),22,25,4,yes,x,5,x,0.4293894000002183,1,92,test2,3,0.42952100000002247,-20.0
19,cey,f,19,r,2,(1.0544208940658713e-14, 172.20000000000002),23,-3,11,yes,x,5,x,1.0715533000002324,1,93,test2,3,1.0716730000003736,-48.0
19,cey,f,19,r,2,(-121.76378772032352, -121.76378772032348),26,-5,12,yes,x,5,x,0.38073629999962577,1,94,test2,3,0.3808398000001034,-50.0
19,cey,f,19,r,2,(121.76378772032346, -121.76378772032352),28,-5,12,yes,x,5,x,0.5296865000000253,1,95,test2,3,0.5302912000006472,-50.0
19,cey,f,19,r,2,(121.76378772032346, -121.76378772032352),28,-3,11,yes,x,5,x,0.8565276999997877,1,96,test2,3,0.8567060000004858,-48.0
19,cey,f,19,r,2,(-3.163262682197613e-14, -172.20000000000002),27,-7,13,yes,x,5,x,0.6186747000010655,1,1,test1,4,0.618790500000614,-52.0
19,cey,f,19,r,2,(-172.20000000000002, 2.1088417881317425e-14),25,-3,11,yes,x,5,x,0.3675763999999617,1,2,test1,4,0.3677530000004481,-48.0
19,cey,f,19,r,2,(-172.20000000000002, 2.1088417881317425e-14),25,-25,14,yes,x,5,x,0.3753878999996232,1,3,test1,4,0.3754899999985355,-70.0
19,cey,f,19,r,2,(121.76378772032349, 121.76378772032349),22,25,4,yes,x,5,x,0.41407489999983227,1,4,test1,4,0.4142085000003135,-20.0
19,cey,f,19,r,2,(121.76378772032346, -121.76378772032352),28,5,2,yes,x,5,x,0.512759900000674,1,5,test1,4,0.5128822999995464,-40.0
19,cey,f,19,r,2,(-3.163262682197613e-14, -172.20000000000002),27,3,1,yes,x,5,x,0.6615560999998706,1,6,test1,4,0.6616589999994176,-42.0
19,cey,f,19,r,2,(-172.20000000000002, 2.1088417881317425e-14),25,3,1,yes,x,5,x,1.0571258999989368,1,7,test1,4,1.057710799999768,-42.0
19,cey,f,19,r,2,(-121.76378772032352, -121.76378772032348),26,-3,11,yes,x,5,x,0.48728059999848483,1,8,test1,4,0.48752389999935986,-48.0
19,cey,f,19,r,2,(-172.20000000000002, 2.1088417881317425e-14),25,-7,13,no,m,6,m,1.0376015000001644,1,9,test1,4,1.0378129999990051,-48.0
19,cey,f,19,r,2,(-121.76378772032348, 121.76378772032349),24,3,1,no,m,6,m,0.861531799999284,1,10,test1,4,0.8619954999994661,-48.0
19,cey,f,19,r,2,(-3.163262682197613e-14, -172.20000000000002),27,7,3,yes,x,5,x,0.49524920000112616,1,11,test1,4,0.49536110000008193,-38.0
19,cey,f,19,r,2,(-3.163262682197613e-14, -172.20000000000002),27,-7,13,no,m,6,m,0.7427489999990939,1,12,test1,4,0.7430502000006527,-38.0
19,cey,f,19,r,2,(121.76378772032349, 121.76378772032349),22,-7,13,yes,x,5,x,0.4218172000000777,1,13,test1,4,0.42205250000006345,-52.0
19,cey,f,19,r,2,(121.76378772032346, -121.76378772032352),28,3,1,yes,x,5,x,0.5352186999989499,1,14,test1,4,0.5353510999993887,-42.0
19,cey,f,19,r,2,(121.76378772032346, -121.76378772032352),28,5,2,no,m,6,m,0.5901401999999507,1,15,test1,4,0.5903067999988707,-42.0
19,cey,f,19,r,2,(-121.76378772032348, 121.76378772032349),24,-25,14,yes,x,5,x,0.43639660000008007,1,16,test1,4,0.43671979999999166,-70.0
19,cey,f,19,r,2,(121.76378772032349, 121.76378772032349),22,-3,11,no,m,6,m,0.6976138000009087,1,17,test1,4,0.6977142999985517,-70.0
19,cey,f,19,r,2,(1.0544208940658713e-14, 172.20000000000002),23,5,2,no,m,6,m,0.6291117000000668,1,18,test1,4,0.6294058000003133,-70.0
19,cey,f,19,r,2,(-121.76378772032352, -121.76378772032348),26,-5,12,yes,x,5,x,0.44258260000060545,1,19,test1,4,0.4429634999996779,-50.0
19,cey,f,19,r,2,(121.76378772032346, -121.76378772032352),28,7,3,yes,x,5,x,0.49951210000108404,1,20,test1,4,0.49961500000063097,-38.0
19,cey,f,19,r,2,(172.20000000000002, 0.0),21,-5,12,yes,x,5,x,0.5285898000001907,1,21,test1,4,0.5288241999987804,-50.0
19,cey,f,19,r,2,(-121.76378772032352, -121.76378772032348),26,-3,11,no,m,6,m,0.8032533999994484,1,22,test1,4,0.8034801999983756,-50.0
19,cey,f,19,r,2,(-121.76378772032352, -121.76378772032348),26,7,3,yes,x,5,m,0.7422052000001713,0,23,test1,4,0.742371299998922,-38.0
19,cey,f,19,r,2,(-121.76378772032348, 121.76378772032349),24,-25,14,no,m,6,m,0.5759902999998303,1,24,test1,4,0.5764811999997619,-38.0
19,cey,f,19,r,2,(-3.163262682197613e-14, -172.20000000000002),27,3,1,yes,x,5,x,0.5778597000007721,1,25,test1,4,0.578010399998675,-42.0
19,cey,f,19,r,2,(121.76378772032346, -121.76378772032352),28,-7,13,yes,x,5,x,0.5999031999999715,1,26,test1,4,0.6000063000010414,-52.0
19,cey,f,19,r,2,(121.76378772032346, -121.76378772032352),28,-5,12,no,m,6,m,0.7899129000015819,1,27,test1,4,0.7901361999993242,-52.0
19,cey,f,19,r,2,(172.20000000000002, 0.0),21,3,1,no,m,6,m,0.7780985999997938,1,28,test1,4,0.7782028999990871,-52.0
19,cey,f,19,r,2,(-121.76378772032352, -121.76378772032348),26,-5,12,no,m,6,m,0.716047099998832,1,29,test1,4,0.7162962999991578,-52.0
19,cey,f,19,r,2,(1.0544208940658713e-14, 172.20000000000002),23,-7,13,yes,x,5,x,0.5297147000001132,1,30,test1,4,0.5299488000000565,-52.0
19,cey,f,19,r,2,(-172.20000000000002, 2.1088417881317425e-14),25,25,4,yes,x,5,x,0.40507439999964845,1,31,test1,4,0.40517610000097193,-20.0
19,cey,f,19,r,2,(172.20000000000002, 0.0),21,5,2,no,m,6,m,0.6259250999992219,1,32,test1,4,0.6263687000009668,-20.0
19,cey,f,19,r,2,(-121.76378772032352, -121.76378772032348),26,-7,13,yes,x,5,x,0.4614151999994647,1,33,test1,4,0.46152950000032433,-52.0
19,cey,f,19,r,2,(172.20000000000002, 0.0),21,-3,11,no,m,6,m,0.6340058000005229,1,34,test1,4,0.6341066000004503,-52.0
19,cey,f,19,r,2,(-3.163262682197613e-14, -172.20000000000002),27,5,2,yes,x,5,x,0.47416619999967224,1,35,test1,4,0.4743866999997408,-40.0
19,cey,f,19,r,2,(121.76378772032346, -121.76378772032352),28,-25,14,no,m,6,m,0.542798500000572,1,36,test1,4,0.5432371999995667,-40.0
19,cey,f,19,r,2,(-172.20000000000002, 2.1088417881317425e-14),25,25,4,yes,x,5,x,0.3460532000008243,1,37,test1,4,0.3464975000006234,-20.0
19,cey,f,19,r,2,(121.76378772032349, 121.76378772032349),22,-3,11,yes,x,5,x,0.5506064000001061,1,38,test1,4,0.5507517000005464,-48.0
19,cey,f,19,r,2,(-3.163262682197613e-14, -172.20000000000002),27,-5,12,no,m,6,m,0.47881190000043716,1,39,test1,4,0.47944160000042757,-48.0
19,cey,f,19,r,2,(-3.163262682197613e-14, -172.20000000000002),27,5,2,no,m,6,x,0.2825691999987612,0,40,test1,4,0.28268170000046666,-48.0
19,cey,f,19,r,2,(121.76378772032349, 121.76378772032349),22,-7,13,no,m,6,m,0.6128841000008833,1,41,test1,4,0.6130298999996739,-48.0
19,cey,f,19,r,2,(121.76378772032349, 121.76378772032349),22,25,4,no,m,6,m,0.5599404999993567,1,42,test1,4,0.5600546999994549,-48.0
19,cey,f,19,r,2,(-172.20000000000002, 2.1088417881317425e-14),25,-7,13,yes,x,5,x,0.5054712000001018,1,43,test1,4,0.5056126000017684,-52.0
19,cey,f,19,r,2,(172.20000000000002, 0.0),21,-5,12,yes,x,5,x,0.5422399999988556,1,44,test1,4,0.5423587000004773,-50.0
19,cey,f,19,r,2,(121.76378772032346, -121.76378772032352),28,-3,11,no,m,6,m,0.5654811000003974,1,45,test1,4,0.5659130000003643,-50.0
19,cey,f,19,r,2,(172.20000000000002, 0.0),21,7,3,yes,x,5,x,0.5014362999991135,1,46,test1,4,0.5016685000009602,-38.0
19,cey,f,19,r,2,(-172.20000000000002, 2.1088417881317425e-14),25,3,1,no,m,6,x,0.8915018000006967,0,47,test1,4,0.8918027999989135,-38.0
19,cey,f,19,r,2,(1.0544208940658713e-14, 172.20000000000002),23,-3,11,yes,x,5,x,0.8677334999993036,1,48,test1,4,0.8679019999999582,-48.0
19,cey,f,19,r,2,(172.20000000000002, 0.0),21,-25,14,yes,x,5,x,0.5082183000013174,1,49,test1,4,0.5083395999990898,-70.0
19,cey,f,19,r,2,(-3.163262682197613e-14, -172.20000000000002),27,7,3,yes,x,5,x,0.42752309999923455,1,50,test1,4,0.4280899000004865,-38.0
19,cey,f,19,r,2,(172.20000000000002, 0.0),21,-25,14,no,m,6,m,0.5979436000015994,1,51,test1,4,0.5980806000006851,-38.0
19,cey,f,19,r,2,(-3.163262682197613e-14, -172.20000000000002),27,-3,11,no,m,6,m,0.8748860999985482,1,52,test1,4,0.8754203000007692,-38.0
19,cey,f,19,r,2,(-121.76378772032352, -121.76378772032348),26,-7,13,yes,x,5,x,0.4231667000003654,1,53,test1,4,0.42339130000073055,-52.0
19,cey,f,19,r,2,(-3.163262682197613e-14, -172.20000000000002),27,-5,12,yes,x,5,x,0.4844682000002649,1,54,test1,4,0.48492070000065723,-50.0
19,cey,f,19,r,2,(121.76378772032349, 121.76378772032349),22,5,2,no,m,6,m,0.7775103999993007,1,55,test1,4,0.777611400000751,-50.0
19,cey,f,19,r,2,(-121.76378772032352, -121.76378772032348),26,-7,13,no,m,6,m,0.8249966999992466,1,56,test1,4,0.8253346000001329,-50.0
19,cey,f,19,r,2,(-121.76378772032348, 121.76378772032349),24,-7,13,no,m,6,m,0.47339329999886104,1,57,test1,4,0.47371100000054867,-50.0
19,cey,f,19,r,2,(121.76378772032349, 121.76378772032349),22,7,3,no,m,6,m,0.501838800000769,1,58,test1,4,0.5019431000000623,-50.0
19,cey,f,19,r,2,(1.0544208940658713e-14, 172.20000000000002),23,-5,12,yes,x,5,x,0.48828069999945,1,59,test1,4,0.48849520000112534,-50.0
19,cey,f,19,r,2,(-121.76378772032348, 121.76378772032349),24,7,3,no,m,6,x,0.3862552999999025,0,60,test1,4,0.3863488999995752,-50.0
19,cey,f,19,r,2,(-3.163262682197613e-14, -172.20000000000002),27,7,3,no,m,6,m,0.6401256999997713,1,61,test1,4,0.6403107999994972,-50.0
19,cey,f,19,r,2,(-121.76378772032352, -121.76378772032348),26,7,3,no,m,6,m,0.6062143999988621,1,62,test1,4,0.6063764999998966,-50.0
19,cey,f,19,r,2,(172.20000000000002, 0.0),21,-3,11,yes,x,5,x,0.771009199999753,1,63,test1,4,0.7712269000003289,-48.0
19,cey,f,19,r,2,(121.76378772032346, -121.76378772032352),28,3,1,no,m,6,m,0.5983190999995713,1,64,test1,4,0.5984415000002627,-48.0
19,cey,f,19,r,2,(-172.20000000000002, 2.1088417881317425e-14),25,-25,14,no,m,6,m,0.7834397000005993,1,65,test1,4,0.7837073000009696,-48.0
19,cey,f,19,r,2,(-121.76378772032352, -121.76378772032348),26,25,4,yes,x,5,x,1.817218000000139,1,66,test1,4,1.817818299999999,-20.0
19,cey,f,19,r,2,(-121.76378772032348, 121.76378772032349),24,-5,12,yes,x,5,m,1.1090117000003374,0,67,test1,4,1.1092528000008315,-50.0
19,cey,f,19,r,2,(121.76378772032349, 121.76378772032349),22,3,1,yes,x,5,x,0.8447182999989309,1,68,test1,4,0.8449696999996377,-42.0
19,cey,f,19,r,2,(1.0544208940658713e-14, 172.20000000000002),23,5,2,yes,x,5,x,0.6224681999992754,1,69,test1,4,0.6226900000001478,-40.0
19,cey,f,19,r,2,(-121.76378772032348, 121.76378772032349),24,25,4,no,m,6,m,0.6800574000008055,1,70,test1,4,0.6807207999991078,-40.0
19,cey,f,19,r,2,(1.0544208940658713e-14, 172.20000000000002),23,-25,14,yes,x,5,x,0.3779575999997178,1,71,test1,4,0.37812420000045677,-70.0
19,cey,f,19,r,2,(121.76378772032349, 121.76378772032349),22,-25,14,no,m,6,m,0.6109419999993406,1,72,test1,4,0.611099199999444,-70.0
19,cey,f,19,r,2,(-121.76378772032352, -121.76378772032348),26,5,2,no,m,6,m,0.5542850000001636,1,73,test1,4,0.5546822000014799,-70.0
19,cey,f,19,r,2,(-172.20000000000002, 2.1088417881317425e-14),25,-3,11,no,m,6,m,0.6008472999983496,1,74,test1,4,0.6009692999996332,-70.0
19,cey,f,19,r,2,(-172.20000000000002, 2.1088417881317425e-14),25,5,2,yes,x,5,x,0.503905700001269,1,75,test1,4,0.5041388999998162,-40.0
19,cey,f,19,r,2,(1.0544208940658713e-14, 172.20000000000002),23,3,1,yes,x,5,x,0.6804324000004272,1,76,test1,4,0.6808077000005142,-42.0
19,cey,f,19,r,2,(-121.76378772032348, 121.76378772032349),24,-3,11,no,m,6,m,0.5906840999996348,1,77,test1,4,0.5909995999991224,-42.0
19,cey,f,19,r,2,(-121.76378772032352, -121.76378772032348),26,5,2,yes,x,5,x,0.5363036999988253,1,78,test1,4,0.5365215000001626,-40.0
19,cey,f,19,r,2,(121.76378772032349, 121.76378772032349),22,-5,12,yes,x,5,x,0.4878266000014264,1,79,test1,4,0.48800170000140497,-50.0
19,cey,f,19,r,2,(121.76378772032349, 121.76378772032349),22,-5,12,no,m,6,m,0.5253804000003583,1,80,test1,4,0.5259827999998379,-50.0
19,cey,f,19,r,2,(-121.76378772032352, -121.76378772032348),26,7,3,yes,x,5,x,0.5551656999996339,1,81,test1,4,0.555458599999838,-38.0
19,cey,f,19,r,2,(-172.20000000000002, 2.1088417881317425e-14),25,-5,12,no,m,6,m,0.6803307000009227,1,82,test1,4,0.6806974999999511,-38.0
19,cey,f,19,r,2,(-121.76378772032352, -121.76378772032348),26,25,4,no,m,6,m,0.7202354000000923,1,83,test1,4,0.7205612999987352,-38.0
19,cey,f,19,r,2,(121.76378772032349, 121.76378772032349),22,3,1,yes,x,5,x,0.6609066000000894,1,84,test1,4,0.661037199999555,-42.0
19,cey,f,19,r,2,(-121.76378772032348, 121.76378772032349),24,5,2,no,m,6,m,0.6920702000006713,1,85,test1,4,0.6921729999994568,-42.0
19,cey,f,19,r,2,(-3.163262682197613e-14, -172.20000000000002),27,25,4,yes,x,5,x,0.4444328999998106,1,86,test1,4,0.4450276000006852,-20.0
19,cey,f,19,r,2,(-121.76378772032348, 121.76378772032349),24,-25,14,yes,x,5,x,0.40210230000047886,1,87,test1,4,0.40240450000055716,-70.0
19,cey,f,19,r,2,(121.76378772032346, -121.76378772032352),28,-5,12,yes,x,5,x,0.7554945000010775,1,88,test1,4,0.75570770000013,-50.0
19,cey,f,19,r,2,(121.76378772032349, 121.76378772032349),22,7,3,yes,x,5,x,0.4605086999999912,1,89,test1,4,0.46110609999959706,-38.0
19,cey,f,19,r,2,(1.0544208940658713e-14, 172.20000000000002),23,-7,13,no,m,6,m,0.6245863999993162,1,90,test1,4,0.6247239000003901,-38.0
19,cey,f,19,r,2,(1.0544208940658713e-14, 172.20000000000002),23,7,3,no,m,6,m,0.606274100000519,1,91,test1,4,0.6064900000001217,-38.0
19,cey,f,19,r,2,(-172.20000000000002, 2.1088417881317425e-14),25,7,3,no,m,6,x,0.5310914000001503,0,92,test1,4,0.5312135999993188,-38.0
19,cey,f,19,r,2,(121.76378772032346, -121.76378772032352),28,3,1,yes,x,5,x,0.8556097000000591,1,93,test1,4,0.8558217999998305,-42.0
19,cey,f,19,r,2,(172.20000000000002, 0.0),21,3,1,yes,x,5,x,0.7842338999998901,1,94,test1,4,0.7844031999993604,-42.0
19,cey,f,19,r,2,(-121.76378772032352, -121.76378772032348),26,25,4,yes,x,5,x,0.37905099999989034,1,95,test1,4,0.37928629999987606,-20.0
19,cey,f,19,r,2,(121.76378772032346, -121.76378772032352),28,5,2,yes,x,5,x,0.4533974000005401,1,96,test1,4,0.45354220000081114,-40.0
19,cey,f,19,r,2,(172.20000000000002, 0.0),21,25,4,yes,x,5,x,0.5072134999991249,1,1,test2,4,0.5073376999989705,-20.0
19,cey,f,19,r,2,(-172.20000000000002, 2.1088417881317425e-14),25,7,3,yes,x,5,x,0.3905032000002393,1,2,test2,4,0.3907539000010729,-38.0
19,cey,f,19,r,2,(-3.163262682197613e-14, -172.20000000000002),27,-7,13,yes,x,5,x,0.3830361999989691,1,3,test2,4,0.3833376999991742,-52.0
19,cey,f,19,r,2,(1.0544208940658713e-14, 172.20000000000002),23,-7,13,yes,x,5,x,0.38715049999882467,1,4,test2,4,0.38725479999993695,-52.0
19,cey,f,19,r,2,(-121.76378772032352, -121.76378772032348),26,-3,11,yes,x,5,m,0.86997589999919,0,5,test2,4,0.870108999999502,-48.0
19,cey,f,19,r,2,(-3.163262682197613e-14, -172.20000000000002),27,3,1,no,m,6,m,0.8298028999997769,1,6,test2,4,0.8305798000001232,-48.0
19,cey,f,19,r,2,(121.76378772032349, 121.76378772032349),22,-25,14,yes,x,5,x,0.420768500000122,1,7,test2,4,0.42111490000024787,-70.0
19,cey,f,19,r,2,(172.20000000000002, 0.0),21,25,4,no,m,6,x,0.9117037999985769,0,8,test2,4,0.9118190999997751,-70.0
19,cey,f,19,r,2,(172.20000000000002, 0.0),21,7,3,yes,x,5,x,0.46230949999880977,1,9,test2,4,0.4624132000008103,-38.0
19,cey,f,19,r,2,(-121.76378772032348, 121.76378772032349),24,5,2,yes,x,5,x,0.505440400000225,1,10,test2,4,0.505542200000491,-40.0
19,cey,f,19,r,2,(1.0544208940658713e-14, 172.20000000000002),23,25,4,no,m,6,m,0.8432283000001917,1,11,test2,4,0.8434684999992896,-40.0
19,cey,f,19,r,2,(1.0544208940658713e-14, 172.20000000000002),23,25,4,yes,x,5,x,0.4414917999984027,1,12,test2,4,0.44179199999962293,-20.0
19,cey,f,19,r,2,(-3.163262682197613e-14, -172.20000000000002),27,-3,11,yes,x,5,x,0.8692159000001993,1,13,test2,4,0.8693436000012298,-48.0
19,cey,f,19,r,2,(-3.163262682197613e-14, -172.20000000000002),27,-5,12,yes,x,5,x,0.4052367000003869,1,14,test2,4,0.4054465999997774,-50.0
19,cey,f,19,r,2,(-172.20000000000002, 2.1088417881317425e-14),25,5,2,no,m,6,m,0.5856051000009757,1,15,test2,4,0.5857641999991756,-50.0
19,cey,f,19,r,2,(-172.20000000000002, 2.1088417881317425e-14),25,-5,12,yes,x,5,x,0.4137979000006453,1,16,test2,4,0.4141973000005237,-50.0
19,cey,f,19,r,2,(-172.20000000000002, 2.1088417881317425e-14),25,5,2,yes,x,5,x,0.5146138999989489,1,17,test2,4,0.514730500000951,-40.0
19,cey,f,19,r,2,(-121.76378772032352, -121.76378772032348),26,3,1,yes,x,5,x,0.7224791999997251,1,18,test2,4,0.722807100000864,-42.0
19,cey,f,19,r,2,(172.20000000000002, 0.0),21,-7,13,yes,x,5,x,0.4318827000006422,1,19,test2,4,0.43231139999988955,-52.0
19,cey,f,19,r,2,(-3.163262682197613e-14, -172.20000000000002),27,-25,14,no,m,6,x,0.426217700000052,0,20,test2,4,0.4265233000005537,-52.0
19,cey,f,19,r,2,(-121.76378772032348, 121.76378772032349),24,7,3,yes,x,5,x,0.33939119999922696,1,21,test2,4,0.3395517999997537,-38.0
19,cey,f,19,r,2,(-121.76378772032352, -121.76378772032348),26,-25,14,no,m,6,m,0.6474042999998346,1,22,test2,4,0.6476939999993192,-38.0
19,cey,f,19,r,2,(1.0544208940658713e-14, 172.20000000000002),23,3,1,yes,x,5,x,0.4911945999992895,1,23,test2,4,0.4916752999997698,-42.0
19,cey,f,19,r,2,(121.76378772032346, -121.76378772032352),28,25,4,yes,x,5,x,0.41921069999989413,1,24,test2,4,0.41943799999899056,-20.0
19,cey,f,19,r,2,(-121.76378772032348, 121.76378772032349),24,-5,12,no,m,6,m,0.6139710999996169,1,25,test2,4,0.6141913999999815,-20.0
19,cey,f,19,r,2,(1.0544208940658713e-14, 172.20000000000002),23,-5,12,yes,x,5,x,0.44186830000035116,1,26,test2,4,0.4419694999996864,-50.0
19,cey,f,19,r,2,(1.0544208940658713e-14, 172.20000000000002),23,-3,11,no,m,6,m,0.6215589999992517,1,27,test2,4,0.6216677000011259,-50.0
19,cey,f,19,r,2,(121.76378772032346, -121.76378772032352),28,25,4,no,m,6,m,0.567823800000042,1,28,test2,4,0.567989099999977,-50.0
19,cey,f,19,r,2,(-121.76378772032352, -121.76378772032348),26,3,1,yes,x,5,m,0.5762986000008823,0,29,test2,4,0.5765988000002835,-42.0
19,cey,f,19,r,2,(-121.76378772032348, 121.76378772032349),24,-5,12,yes,x,5,x,0.525474199999735,1,30,test2,4,0.5256934000008187,-50.0
19,cey,f,19,r,2,(172.20000000000002, 0.0),21,25,4,yes,x,5,x,0.449434599999222,1,31,test2,4,0.44964900000013586,-20.0
19,cey,f,19,r,2,(1.0544208940658713e-14, 172.20000000000002),23,-5,12,no,m,6,m,0.6875968999993347,1,32,test2,4,0.6878840000008495,-20.0
19,cey,f,19,r,2,(-121.76378772032352, -121.76378772032348),26,3,1,no,m,6,m,0.7513870000002498,1,33,test2,4,0.7517112999994424,-20.0
19,cey,f,19,r,2,(-121.76378772032348, 121.76378772032349),24,-7,13,yes,x,5,x,0.3892425000012736,1,34,test2,4,0.3896418000003905,-52.0
19,cey,f,19,r,2,(-121.76378772032348, 121.76378772032349),24,7,3,yes,x,5,x,0.4365581999991264,1,35,test2,4,0.43685069999992265,-38.0
19,cey,f,19,r,2,(-121.76378772032348, 121.76378772032349),24,25,4,yes,x,5,x,0.38691780000044673,1,36,test2,4,0.3870415999990655,-20.0
19,cey,f,19,r,2,(-121.76378772032348, 121.76378772032349),24,-3,11,yes,x,5,x,0.6220231000006606,1,37,test2,4,0.6225501999997505,-48.0
19,cey,f,19,r,2,(172.20000000000002, 0.0),21,-5,12,no,m,6,m,0.6623488999994152,1,38,test2,4,0.6628137999996397,-48.0
19,cey,f,19,r,2,(172.20000000000002, 0.0),21,5,2,yes,x,5,x,0.6826325999991241,1,39,test2,4,0.6827567999989697,-40.0
19,cey,f,19,r,2,(121.76378772032349, 121.76378772032349),22,3,1,no,m,6,m,0.5963443000000552,1,40,test2,4,0.5964686999996047,-40.0
19,cey,f,19,r,2,(1.0544208940658713e-14, 172.20000000000002),23,7,3,yes,x,5,x,0.443924799999877,1,41,test2,4,0.444053499999427,-38.0
19,cey,f,19,r,2,(-3.163262682197613e-14, -172.20000000000002),27,25,4,yes,x,5,x,0.4409587999998621,1,42,test2,4,0.441091000000597,-20.0
19,cey,f,19,r,2,(172.20000000000002, 0.0),21,-7,13,yes,x,5,x,0.4796820999999909,1,43,test2,4,0.48057169999992766,-52.0
19,cey,f,19,r,2,(121.76378772032349, 121.76378772032349),22,5,2,yes,x,5,x,0.49993979999999283,1,44,test2,4,0.5000424999998359,-40.0
19,cey,f,19,r,2,(121.76378772032349, 121.76378772032349),22,5,2,yes,x,5,x,0.5731211999991501,1,45,test2,4,0.573245899999165,-40.0
19,cey,f,19,r,2,(-121.76378772032348, 121.76378772032349),24,3,1,yes,x,5,x,0.8034205000003567,1,46,test2,4,0.8035264000009192,-42.0
19,cey,f,19,r,2,(172.20000000000002, 0.0),21,3,1,yes,x,5,x,0.4961244000005536,1,47,test2,4,0.49622769999950833,-42.0
19,cey,f,19,r,2,(-3.163262682197613e-14, -172.20000000000002),27,25,4,no,m,6,m,0.7228541000004043,1,48,test2,4,0.7232707000002847,-42.0
19,cey,f,19,r,2,(172.20000000000002, 0.0),21,-7,13,no,m,6,m,0.5686605000009877,1,49,test2,4,0.5687773000008747,-42.0
19,cey,f,19,r,2,(121.76378772032346, -121.76378772032352),28,25,4,yes,x,5,x,0.3918986999997287,1,50,test2,4,0.3921312000002217,-20.0
19,cey,f,19,r,2,(-172.20000000000002, 2.1088417881317425e-14),25,-5,12,yes,x,5,x,0.3624680000011722,1,51,test2,4,0.3626276999984839,-50.0
19,cey,f,19,r,2,(-172.20000000000002, 2.1088417881317425e-14),25,25,4,no,m,6,m,0.6208084999998391,1,52,test2,4,0.6210456999997405,-50.0
19,cey,f,19,r,2,(172.20000000000002, 0.0),21,7,3,no,m,6,m,0.525241699999242,1,53,test2,4,0.5253439999996772,-50.0
19,cey,f,19,r,2,(172.20000000000002, 0.0),21,-3,11,yes,x,5,x,0.5351931000004697,1,54,test2,4,0.5353993999997329,-48.0
19,cey,f,19,r,2,(172.20000000000002, 0.0),21,5,2,yes,x,5,m,0.40625729999919713,0,55,test2,4,0.4067773999995552,-40.0
19,cey,f,19,r,2,(-3.163262682197613e-14, -172.20000000000002),27,-3,11,yes,x,5,x,0.9907010999995691,1,56,test2,4,0.9908387000014045,-48.0
19,cey,f,19,r,2,(-121.76378772032348, 121.76378772032349),24,-3,11,yes,x,5,x,1.1712814000002254,1,57,test2,4,1.171408700000029,-48.0
19,cey,f,19,r,2,(-3.163262682197613e-14, -172.20000000000002),27,-25,14,yes,x,5,x,0.38860229999954754,1,58,test2,4,0.38871970000036526,-70.0
19,cey,f,19,r,2,(121.76378772032346, -121.76378772032352),28,-7,13,no,m,6,m,0.5956765000009909,1,59,test2,4,0.5963735000004817,-70.0
19,cey,f,19,r,2,(1.0544208940658713e-14, 172.20000000000002),23,3,1,no,m,6,m,0.8544975000004342,1,60,test2,4,0.8547641999994084,-70.0
19,cey,f,19,r,2,(121.76378772032349, 121.76378772032349),22,-5,12,yes,x,5,x,0.47116819999973814,1,61,test2,4,0.47127309999996214,-50.0
19,cey,f,19,r,2,(-121.76378772032352, -121.76378772032348),26,5,2,yes,x,5,x,0.5087309000009554,1,62,test2,4,0.5089842000015778,-40.0
19,cey,f,19,r,2,(-121.76378772032352, -121.76378772032348),26,-25,14,yes,x,5,x,0.41335959999923944,1,63,test2,4,0.4137978999988263,-70.0
19,cey,f,19,r,2,(121.76378772032346, -121.76378772032352),28,-25,14,yes,x,5,x,0.44959930000004533,1,64,test2,4,0.45001200000115205,-70.0
19,cey,f,19,r,2,(121.76378772032346, -121.76378772032352),28,-3,11,yes,x,5,x,0.7457432999999583,1,65,test2,4,0.7459894999992684,-48.0
19,cey,f,19,r,2,(172.20000000000002, 0.0),21,-25,14,yes,x,5,x,0.4287211999999272,1,66,test2,4,0.4289327000005869,-70.0
19,cey,f,19,r,2,(121.76378772032349, 121.76378772032349),22,-25,14,yes,x,5,x,0.41417619999992894,1,67,test2,4,0.4143062999992253,-70.0
19,cey,f,19,r,2,(1.0544208940658713e-14, 172.20000000000002),23,-25,14,yes,x,5,x,0.3334130000002915,1,68,test2,4,0.3337004999993951,-70.0
19,cey,f,19,r,2,(121.76378772032346, -121.76378772032352),28,7,3,no,m,6,m,0.8933548000004521,1,69,test2,4,0.8934727999985626,-70.0
19,cey,f,19,r,2,(1.0544208940658713e-14, 172.20000000000002),23,-25,14,no,m,6,m,0.7056835999992472,1,70,test2,4,0.7058023999998113,-70.0
19,cey,f,19,r,2,(121.76378772032349, 121.76378772032349),22,-3,11,yes,x,5,x,0.815756700001657,1,71,test2,4,0.8160363999995752,-48.0
19,cey,f,19,r,2,(-172.20000000000002, 2.1088417881317425e-14),25,3,1,yes,x,5,m,0.5612939999991795,0,72,test2,4,0.5616155000006984,-42.0
19,cey,f,19,r,2,(1.0544208940658713e-14, 172.20000000000002),23,25,4,yes,x,5,x,0.37222920000021986,1,73,test2,4,0.37241829999948095,-20.0
19,cey,f,19,r,2,(-121.76378772032348, 121.76378772032349),24,-7,13,yes,x,5,x,0.38660259999960545,1,74,test2,4,0.3867067000010138,-52.0
19,cey,f,19,r,2,(-121.76378772032348, 121.76378772032349),24,5,2,yes,x,5,x,0.5594889999993029,1,75,test2,4,0.5597287000000506,-40.0
19,cey,f,19,r,2,(-121.76378772032348, 121.76378772032349),24,3,1,yes,x,5,x,0.46729749999940395,1,76,test2,4,0.46740239999962796,-42.0
19,cey,f,19,r,2,(-172.20000000000002, 2.1088417881317425e-14),25,-25,14,yes,x,5,x,0.4128166999998939,1,77,test2,4,0.4129377999997814,-70.0
