subj_id,subj_name,subj_gender ,subj_age,subj_handedness,subj_runNum,tar_l_x,tar_l_y,loc_code,tar_ori,tar_code,tar_pre ,cor_response,pre_code,subj_response,RT,correct,trial_num,type,bloc_num,dur, real_tar
1,lmh,f,23,r,1,(121.76378772032346, -121.76378772032352),28,3,1,yes,x,5,x,1.458478800001103,1,1,prac,0,1.459386300000915,-42.0
1,lmh,f,23,r,1,(-172.20000000000002, 2.1088417881317425e-14),25,-5,12,yes,x,5,x,0.47070089999942866,1,2,prac,0,0.4708009000005404,-50.0
1,lmh,f,23,r,1,(-121.76378772032352, -121.76378772032348),26,-3,11,no,m,6,x,0.8594657000012376,0,3,prac,0,0.8599874999999884,-50.0
1,lmh,f,23,r,1,(-121.76378772032352, -121.76378772032348),26,-5,12,yes,x,5,x,0.5922391999993124,1,4,prac,0,0.5924469000001409,-50.0
1,lmh,f,23,r,1,(-3.163262682197613e-14, -172.20000000000002),27,5,2,no,m,6,m,1.1028933999987203,1,5,prac,0,1.1030157999994117,-50.0
1,lmh,f,23,r,1,(-121.76378772032348, 121.76378772032349),24,7,3,yes,x,5,x,0.5052307000005385,1,6,prac,0,0.5053606999990734,-38.0
1,lmh,f,23,r,1,(-3.163262682197613e-14, -172.20000000000002),27,3,1,no,m,6,m,1.3566637000003539,1,7,prac,0,1.356882100000803,-38.0
1,lmh,f,23,r,1,(-3.163262682197613e-14, -172.20000000000002),27,7,3,yes,x,5,x,0.43476190000001225,1,8,prac,0,0.4350322000009328,-38.0
1,lmh,f,23,r,1,(-121.76378772032352, -121.76378772032348),26,5,2,yes,x,5,x,0.48380490000090504,1,9,prac,0,0.4839876000005461,-40.0
1,lmh,f,23,r,1,(121.76378772032346, -121.76378772032352),28,-25,14,yes,x,5,x,0.47288230000049225,1,10,prac,0,0.4734303999994154,-70.0
1,lmh,f,23,r,1,(-172.20000000000002, 2.1088417881317425e-14),25,5,2,yes,x,5,x,0.46750000000065484,1,11,prac,0,0.46787200000107987,-40.0
1,lmh,f,23,r,1,(121.76378772032346, -121.76378772032352),28,-3,11,yes,x,5,m,1.2477689999996073,0,12,prac,0,1.2479203000002599,-48.0
1,lmh,f,23,r,1,(121.76378772032349, 121.76378772032349),22,3,1,yes,x,5,x,0.9874156999994739,1,13,prac,0,0.9875482999996166,-42.0
1,lmh,f,23,r,1,(121.76378772032349, 121.76378772032349),22,3,1,no,m,6,m,1.4699089999994612,1,14,prac,0,1.4700333000000683,-42.0
1,lmh,f,23,r,1,(-172.20000000000002, 2.1088417881317425e-14),25,3,1,no,m,6,m,1.011010799998985,1,15,prac,0,1.0111428999989585,-42.0
1,lmh,f,23,r,1,(121.76378772032346, -121.76378772032352),28,-7,13,no,m,6,m,0.803704199999629,1,16,prac,0,0.8038304000001517,-42.0
1,lmh,f,23,r,1,(-121.76378772032348, 121.76378772032349),24,3,1,no,m,6,m,1.3481948000007833,1,17,prac,0,1.3484358999994583,-42.0
1,lmh,f,23,r,1,(121.76378772032346, -121.76378772032352),28,7,3,yes,x,5,x,0.5500078000004578,1,18,prac,0,0.5502457999991748,-38.0
1,lmh,f,23,r,1,(-172.20000000000002, 2.1088417881317425e-14),25,25,4,no,m,6,m,0.8159431999993103,1,19,prac,0,0.8160884999997506,-38.0
1,lmh,f,23,r,1,(-121.76378772032352, -121.76378772032348),26,-7,13,yes,x,5,x,0.41848729999946954,1,20,prac,0,0.4186958999998751,-52.0
1,lmh,f,23,r,1,(121.76378772032346, -121.76378772032352),28,-3,11,no,m,6,m,1.1498181000006298,1,1,test1,1,1.1499929999990854,-52.0
1,lmh,f,23,r,1,(172.20000000000002, 0.0),21,-3,11,yes,x,5,x,0.9127391000001808,1,2,test1,1,0.9132441000001563,-48.0
1,lmh,f,23,r,1,(-3.163262682197613e-14, -172.20000000000002),27,5,2,no,m,6,None,None,0,3,test1,1,1.9800820000000385,-48.0
1,lmh,f,23,r,1,(121.76378772032346, -121.76378772032352),28,-25,14,yes,x,5,x,0.4820818000007421,1,4,test1,1,0.4823162000011507,-70.0
1,lmh,f,23,r,1,(1.0544208940658713e-14, 172.20000000000002),23,25,4,yes,x,5,x,0.4693202999987989,1,5,test1,1,0.469634799999767,-20.0
1,lmh,f,23,r,1,(-121.76378772032348, 121.76378772032349),24,7,3,no,m,6,m,1.0309030000007624,1,6,test1,1,1.0315866000000824,-20.0
1,lmh,f,23,r,1,(1.0544208940658713e-14, 172.20000000000002),23,-25,14,yes,x,5,x,0.44716630000039004,1,7,test1,1,0.44750829999975394,-70.0
1,lmh,f,23,r,1,(-172.20000000000002, 2.1088417881317425e-14),25,5,2,no,m,6,m,0.8773703000006208,1,8,test1,1,0.8776502999990043,-70.0
1,lmh,f,23,r,1,(-172.20000000000002, 2.1088417881317425e-14),25,-7,13,yes,x,5,x,0.5386934999987716,1,9,test1,1,0.5387902999991638,-52.0
1,lmh,f,23,r,1,(-172.20000000000002, 2.1088417881317425e-14),25,-7,13,yes,x,5,x,0.42214870000134397,1,10,test1,1,0.4223646999998891,-52.0
1,lmh,f,23,r,1,(-121.76378772032352, -121.76378772032348),26,5,2,no,m,6,m,0.6859683000002406,1,11,test1,1,0.6860859999997047,-52.0
1,lmh,f,23,r,1,(-121.76378772032352, -121.76378772032348),26,-25,14,no,m,6,m,0.7676308999998582,1,12,test1,1,0.7679898000005778,-52.0
1,lmh,f,23,r,1,(-172.20000000000002, 2.1088417881317425e-14),25,-25,14,yes,x,5,x,0.4138610999998491,1,13,test1,1,0.41395750000083353,-70.0
1,lmh,f,23,r,1,(-3.163262682197613e-14, -172.20000000000002),27,25,4,no,m,6,m,1.1762329999983194,1,14,test1,1,1.1764597000001231,-70.0
1,lmh,f,23,r,1,(121.76378772032346, -121.76378772032352),28,-7,13,yes,x,5,x,0.4456735999992816,1,15,test1,1,0.4459193000002415,-52.0
1,lmh,f,23,r,1,(121.76378772032349, 121.76378772032349),22,7,3,yes,x,5,x,0.5795633999987331,1,16,test1,1,0.5803361999987828,-38.0
1,lmh,f,23,r,1,(121.76378772032346, -121.76378772032352),28,25,4,yes,x,5,x,0.4570530000000872,1,17,test1,1,0.45729519999986223,-20.0
1,lmh,f,23,r,1,(121.76378772032346, -121.76378772032352),28,7,3,yes,x,5,x,0.4197148000002926,1,18,test1,1,0.4198765999990428,-38.0
1,lmh,f,23,r,1,(-121.76378772032348, 121.76378772032349),24,25,4,yes,x,5,x,0.42835820000073,1,19,test1,1,0.4284599000002345,-20.0
1,lmh,f,23,r,1,(121.76378772032349, 121.76378772032349),22,7,3,yes,x,5,x,0.5699134999995294,1,20,test1,1,0.5702376999997796,-38.0
1,lmh,f,23,r,1,(-121.76378772032348, 121.76378772032349),24,-3,11,no,m,6,m,0.746477299999242,1,21,test1,1,0.746605999998792,-38.0
1,lmh,f,23,r,1,(-121.76378772032352, -121.76378772032348),26,-7,13,yes,x,5,x,0.5255725999995775,1,22,test1,1,0.5256978999987041,-52.0
1,lmh,f,23,r,1,(121.76378772032349, 121.76378772032349),22,3,1,yes,x,5,x,0.9806611000003613,1,23,test1,1,0.9807581000004575,-42.0
1,lmh,f,23,r,1,(1.0544208940658713e-14, 172.20000000000002),23,-7,13,no,m,6,m,1.0987189000006765,1,24,test1,1,1.0989564000010432,-42.0
1,lmh,f,23,r,1,(-121.76378772032352, -121.76378772032348),26,5,2,yes,x,5,x,0.5485918000013044,1,25,test1,1,0.548692000000301,-40.0
1,lmh,f,23,r,1,(121.76378772032346, -121.76378772032352),28,5,2,yes,x,5,x,0.4873057000004337,1,26,test1,1,0.48752369999965595,-40.0
1,lmh,f,23,r,1,(-121.76378772032348, 121.76378772032349),24,3,1,no,m,6,m,0.8256022999994457,1,27,test1,1,0.8256990999998379,-40.0
1,lmh,f,23,r,1,(1.0544208940658713e-14, 172.20000000000002),23,-5,12,yes,x,5,x,0.6815906000010727,1,28,test1,1,0.6817952000001242,-50.0
1,lmh,f,23,r,1,(-121.76378772032352, -121.76378772032348),26,3,1,no,m,6,m,0.7865299999994022,1,29,test1,1,0.7866487000010238,-50.0
1,lmh,f,23,r,1,(-3.163262682197613e-14, -172.20000000000002),27,-7,13,yes,x,5,x,0.4471605999988242,1,30,test1,1,0.447285300000658,-52.0
1,lmh,f,23,r,1,(-121.76378772032348, 121.76378772032349),24,-5,12,yes,x,5,x,0.5720201999993151,1,31,test1,1,0.5721513999997114,-50.0
1,lmh,f,23,r,1,(121.76378772032349, 121.76378772032349),22,-3,11,yes,x,5,x,1.0731433000000834,1,32,test1,1,1.0734784999986005,-48.0
1,lmh,f,23,r,1,(121.76378772032349, 121.76378772032349),22,-5,12,yes,x,5,x,0.7396618000002491,1,33,test1,1,0.7398880000000645,-50.0
1,lmh,f,23,r,1,(121.76378772032349, 121.76378772032349),22,5,2,yes,x,5,x,0.4305507999997644,1,34,test1,1,0.4306806999993569,-40.0
1,lmh,f,23,r,1,(172.20000000000002, 0.0),21,25,4,no,m,6,m,1.0042826000008063,1,35,test1,1,1.0045970999999554,-40.0
1,lmh,f,23,r,1,(-3.163262682197613e-14, -172.20000000000002),27,3,1,yes,x,5,x,1.4415296000006492,1,36,test1,1,1.4416332000000693,-42.0
1,lmh,f,23,r,1,(-121.76378772032352, -121.76378772032348),26,-7,13,no,m,6,m,0.9899568000000727,1,37,test1,1,0.9900944000000891,-42.0
1,lmh,f,23,r,1,(121.76378772032349, 121.76378772032349),22,-3,11,yes,x,5,x,0.6971446000006836,1,38,test1,1,0.6977523000005021,-48.0
1,lmh,f,23,r,1,(1.0544208940658713e-14, 172.20000000000002),23,-3,11,no,m,6,x,1.6900062000004255,0,39,test1,1,1.6905022000009922,-48.0
1,lmh,f,23,r,1,(1.0544208940658713e-14, 172.20000000000002),23,-25,14,yes,x,5,x,0.5195500000008906,1,40,test1,1,0.5198484000011376,-70.0
1,lmh,f,23,r,1,(121.76378772032346, -121.76378772032352),28,-5,12,no,m,6,m,1.4988386000004539,1,41,test1,1,1.4989418000004662,-70.0
1,lmh,f,23,r,1,(-121.76378772032352, -121.76378772032348),26,25,4,no,m,6,m,1.2375650000012683,1,42,test1,1,1.23766649999925,-70.0
1,lmh,f,23,r,1,(1.0544208940658713e-14, 172.20000000000002),23,3,1,yes,x,5,x,0.903277600000365,1,43,test1,1,0.9034133999994083,-42.0
1,lmh,f,23,r,1,(-121.76378772032352, -121.76378772032348),26,7,3,yes,x,5,x,0.5015605999997206,1,44,test1,1,0.5021888999999646,-38.0
1,lmh,f,23,r,1,(-121.76378772032348, 121.76378772032349),24,25,4,no,m,6,m,1.4705936999998812,1,45,test1,1,1.470805200000541,-38.0
1,lmh,f,23,r,1,(121.76378772032346, -121.76378772032352),28,-5,12,yes,x,5,x,0.5679199999995035,1,46,test1,1,0.5681258999993588,-50.0
1,lmh,f,23,r,1,(121.76378772032346, -121.76378772032352),28,-7,13,no,m,6,m,0.7846621999997296,1,47,test1,1,0.7851788000007218,-50.0
1,lmh,f,23,r,1,(121.76378772032349, 121.76378772032349),22,25,4,yes,x,5,x,0.4994888000001083,1,48,test1,1,0.4996026000007987,-20.0
1,lmh,f,23,r,1,(-3.163262682197613e-14, -172.20000000000002),27,-7,13,yes,x,5,x,0.6682547999989765,1,49,test1,1,0.6686779000010574,-52.0
1,lmh,f,23,r,1,(121.76378772032346, -121.76378772032352),28,-5,12,yes,x,5,x,0.6600789000003715,1,50,test1,1,0.6604336999989755,-50.0
1,lmh,f,23,r,1,(-121.76378772032348, 121.76378772032349),24,3,1,yes,x,5,x,0.42488609999963955,1,51,test1,1,0.424984699999186,-42.0
1,lmh,f,23,r,1,(-3.163262682197613e-14, -172.20000000000002),27,-25,14,yes,x,5,x,0.44560420000016165,1,52,test1,1,0.4457356000002619,-70.0
1,lmh,f,23,r,1,(121.76378772032349, 121.76378772032349),22,3,1,no,m,6,m,0.8850923999998486,1,53,test1,1,0.8852509999996983,-70.0
1,lmh,f,23,r,1,(121.76378772032346, -121.76378772032352),28,3,1,yes,x,5,x,0.6056570999990072,1,54,test1,1,0.6057842000009259,-42.0
1,lmh,f,23,r,1,(121.76378772032346, -121.76378772032352),28,7,3,yes,x,5,x,0.43886829999974,1,55,test1,1,0.43896739999945567,-38.0
1,lmh,f,23,r,1,(121.76378772032346, -121.76378772032352),28,25,4,yes,x,5,x,0.4369191999994655,1,56,test1,1,0.43711720000101195,-20.0
1,lmh,f,23,r,1,(1.0544208940658713e-14, 172.20000000000002),23,-5,12,no,m,6,m,0.7830155999999988,1,57,test1,1,0.7831360999989556,-20.0
1,lmh,f,23,r,1,(-172.20000000000002, 2.1088417881317425e-14),25,-5,12,yes,x,5,x,0.4349072000004526,1,58,test1,1,0.43503790000067966,-50.0
1,lmh,f,23,r,1,(1.0544208940658713e-14, 172.20000000000002),23,5,2,no,m,6,m,0.8973582999988139,1,59,test1,1,0.897466300000815,-50.0
1,lmh,f,23,r,1,(121.76378772032349, 121.76378772032349),22,3,1,yes,x,5,x,0.6740869999994175,1,60,test1,1,0.6741894999995566,-42.0
1,lmh,f,23,r,1,(121.76378772032349, 121.76378772032349),22,-5,12,yes,x,5,x,0.7121444000003976,1,61,test1,1,0.712541599999895,-50.0
1,lmh,f,23,r,1,(-121.76378772032352, -121.76378772032348),26,3,1,yes,x,5,m,0.8167204999990645,0,62,test1,1,0.8170155999996496,-42.0
1,lmh,f,23,r,1,(-172.20000000000002, 2.1088417881317425e-14),25,3,1,yes,x,5,x,0.3842208000005485,1,63,test1,1,0.38440129999980854,-42.0
1,lmh,f,23,r,1,(121.76378772032349, 121.76378772032349),22,25,4,yes,x,5,x,0.332834399998319,1,64,test1,1,0.3334966999991593,-20.0
1,lmh,f,23,r,1,(-121.76378772032352, -121.76378772032348),26,-25,14,yes,x,5,x,0.39518479999969713,1,65,test1,1,0.39532190000136325,-70.0
1,lmh,f,23,r,1,(121.76378772032349, 121.76378772032349),22,-25,14,yes,x,5,x,0.38256059999912395,1,66,test1,1,0.3829408000001422,-70.0
1,lmh,f,23,r,1,(-121.76378772032348, 121.76378772032349),24,-3,11,yes,x,5,x,0.7240557000004628,1,67,test1,1,0.7243668000010075,-48.0
1,lmh,f,23,r,1,(-121.76378772032348, 121.76378772032349),24,-7,13,no,m,6,x,0.8640404999987368,0,68,test1,1,0.8641702999993868,-48.0
1,lmh,f,23,r,1,(-121.76378772032348, 121.76378772032349),24,-3,11,yes,x,5,x,0.4632796000005328,1,69,test1,1,0.4635262000010698,-48.0
1,lmh,f,23,r,1,(-3.163262682197613e-14, -172.20000000000002),27,25,4,yes,x,5,x,0.37360160000025644,1,70,test1,1,0.3737070999995922,-20.0
1,lmh,f,23,r,1,(-3.163262682197613e-14, -172.20000000000002),27,-5,12,no,m,6,m,0.75434690000111,1,71,test1,1,0.7548465999989276,-20.0
1,lmh,f,23,r,1,(172.20000000000002, 0.0),21,-5,12,yes,x,5,x,0.49573679999957676,1,72,test1,1,0.4960162000006676,-50.0
1,lmh,f,23,r,1,(-3.163262682197613e-14, -172.20000000000002),27,7,3,yes,x,5,x,0.37586499999997613,1,73,test1,1,0.3760032999998657,-38.0
1,lmh,f,23,r,1,(-121.76378772032352, -121.76378772032348),26,25,4,yes,x,5,x,0.35541360000024724,1,74,test1,1,0.3555436999995436,-20.0
1,lmh,f,23,r,1,(1.0544208940658713e-14, 172.20000000000002),23,-7,13,yes,x,5,x,0.4257801000003383,1,75,test1,1,0.426018699999986,-52.0
1,lmh,f,23,r,1,(172.20000000000002, 0.0),21,7,3,yes,x,5,x,0.4474874000006821,1,76,test1,1,0.44758659999934025,-38.0
1,lmh,f,23,r,1,(-172.20000000000002, 2.1088417881317425e-14),25,-3,11,yes,x,5,x,0.3513853000004019,1,77,test1,1,0.3514844000001176,-48.0
1,lmh,f,23,r,1,(172.20000000000002, 0.0),21,-3,11,no,m,6,x,0.6653956000009202,0,78,test1,1,0.6657708999991883,-48.0
1,lmh,f,23,r,1,(-121.76378772032352, -121.76378772032348),26,-3,11,no,m,6,m,1.2317932000005385,1,79,test1,1,1.2318954000002122,-48.0
1,lmh,f,23,r,1,(-3.163262682197613e-14, -172.20000000000002),27,-3,11,yes,x,5,x,0.698765099999946,1,80,test1,1,0.6989851999987877,-48.0
1,lmh,f,23,r,1,(-172.20000000000002, 2.1088417881317425e-14),25,25,4,yes,x,5,x,0.3706748999993579,1,81,test1,1,0.3708446000000549,-20.0
1,lmh,f,23,r,1,(-172.20000000000002, 2.1088417881317425e-14),25,-7,13,no,m,6,m,1.117866900000081,1,82,test1,1,1.1182813000013994,-20.0
1,lmh,f,23,r,1,(-121.76378772032348, 121.76378772032349),24,25,4,yes,x,5,x,0.35354539999934786,1,83,test1,1,0.35371109999869077,-20.0
1,lmh,f,23,r,1,(1.0544208940658713e-14, 172.20000000000002),23,3,1,no,m,6,m,1.0297324000002845,1,84,test1,1,1.0301857000013115,-20.0
1,lmh,f,23,r,1,(1.0544208940658713e-14, 172.20000000000002),23,5,2,yes,x,5,x,0.522177400000146,1,85,test1,1,0.5227243999997881,-40.0
1,lmh,f,23,r,1,(121.76378772032346, -121.76378772032352),28,-3,11,yes,x,5,m,0.9160203999999794,0,86,test1,1,0.9161257000014302,-48.0
1,lmh,f,23,r,1,(-172.20000000000002, 2.1088417881317425e-14),25,25,4,yes,x,5,x,0.4265509999986534,1,87,test1,1,0.4266681000008248,-20.0
1,lmh,f,23,r,1,(-121.76378772032352, -121.76378772032348),26,-25,14,yes,x,5,x,0.4479408000006515,1,88,test1,1,0.44822839999869757,-70.0
1,lmh,f,23,r,1,(-121.76378772032352, -121.76378772032348),26,3,1,yes,x,5,x,0.8409360000005108,1,89,test1,1,0.8411636000000726,-42.0
1,lmh,f,23,r,1,(-172.20000000000002, 2.1088417881317425e-14),25,3,1,no,m,6,m,1.156024800000523,1,90,test1,1,1.1561220999992656,-42.0
1,lmh,f,23,r,1,(172.20000000000002, 0.0),21,25,4,yes,x,5,x,0.6007883000002039,1,91,test1,1,0.6008913999994547,-20.0
1,lmh,f,23,r,1,(1.0544208940658713e-14, 172.20000000000002),23,7,3,no,m,6,m,0.912141500000871,1,92,test1,1,0.9122440999999526,-20.0
1,lmh,f,23,r,1,(121.76378772032349, 121.76378772032349),22,7,3,no,m,6,m,0.8225211999997555,1,93,test1,1,0.8228341000012733,-20.0
1,lmh,f,23,r,1,(121.76378772032349, 121.76378772032349),22,5,2,yes,x,5,x,0.5555516999993415,1,94,test1,1,0.5562118999987433,-40.0
1,lmh,f,23,r,1,(121.76378772032346, -121.76378772032352),28,-3,11,yes,x,5,x,1.504904199999146,1,95,test1,1,1.5050079000011465,-48.0
1,lmh,f,23,r,1,(1.0544208940658713e-14, 172.20000000000002),23,5,2,yes,x,5,x,0.47173750000001746,1,96,test1,1,0.47196900000017195,-40.0
1,lmh,f,23,r,1,(121.76378772032346, -121.76378772032352),28,3,1,no,m,6,m,1.5194878000002063,1,1,test2,1,1.5197299999999814,-40.0
1,lmh,f,23,r,1,(-121.76378772032348, 121.76378772032349),24,3,1,yes,x,5,x,0.752817500000674,1,2,test2,1,0.7529772999987472,-42.0
1,lmh,f,23,r,1,(-121.76378772032348, 121.76378772032349),24,7,3,yes,x,5,x,0.47023000000081083,1,3,test2,1,0.4703542999995989,-38.0
1,lmh,f,23,r,1,(-172.20000000000002, 2.1088417881317425e-14),25,-5,12,yes,x,5,x,0.594927899999675,1,4,test2,1,0.595145200000843,-50.0
1,lmh,f,23,r,1,(172.20000000000002, 0.0),21,-7,13,yes,x,5,x,0.46053419999952894,1,5,test2,1,0.46063390000017534,-52.0
1,lmh,f,23,r,1,(-121.76378772032352, -121.76378772032348),26,-5,12,yes,x,5,x,0.5232441999996809,1,6,test2,1,0.5237016000010044,-50.0
1,lmh,f,23,r,1,(121.76378772032349, 121.76378772032349),22,-25,14,no,m,6,m,0.7654782999998133,1,7,test2,1,0.7657132999993337,-50.0
1,lmh,f,23,r,1,(121.76378772032346, -121.76378772032352),28,3,1,yes,x,5,m,1.2186103999993065,0,8,test2,1,1.2187355999994907,-42.0
1,lmh,f,23,r,1,(1.0544208940658713e-14, 172.20000000000002),23,-3,11,yes,x,5,x,0.6858190000002651,1,9,test2,1,0.6859454000004916,-48.0
1,lmh,f,23,r,1,(121.76378772032349, 121.76378772032349),22,5,2,no,m,6,m,1.096884399999908,1,10,test2,1,1.0971661999992648,-48.0
1,lmh,f,23,r,1,(-121.76378772032348, 121.76378772032349),24,-25,14,yes,x,5,x,0.4100613999999041,1,11,test2,1,0.410342799999853,-70.0
1,lmh,f,23,r,1,(121.76378772032349, 121.76378772032349),22,-7,13,no,m,6,m,1.3774969000005512,1,12,test2,1,1.3776212000011583,-70.0
1,lmh,f,23,r,1,(-121.76378772032348, 121.76378772032349),24,-7,13,yes,x,5,x,0.41616720000092755,1,13,test2,1,0.4162962999998854,-52.0
1,lmh,f,23,r,1,(-3.163262682197613e-14, -172.20000000000002),27,3,1,no,m,6,x,1.2032457999994222,0,14,test2,1,1.2035097000007227,-52.0
1,lmh,f,23,r,1,(-121.76378772032352, -121.76378772032348),26,-3,11,yes,x,5,x,1.0017890999988595,1,15,test2,1,1.0020024000004923,-48.0
1,lmh,f,23,r,1,(121.76378772032346, -121.76378772032352),28,5,2,yes,x,5,x,0.7527558000001591,1,16,test2,1,0.7532114000005095,-40.0
1,lmh,f,23,r,1,(-172.20000000000002, 2.1088417881317425e-14),25,-25,14,no,m,6,m,1.2964924000007159,1,17,test2,1,1.296746099998927,-40.0
1,lmh,f,23,r,1,(-121.76378772032348, 121.76378772032349),24,-7,13,yes,x,5,x,0.441821099999288,1,18,test2,1,0.4420328000014706,-52.0
1,lmh,f,23,r,1,(-121.76378772032352, -121.76378772032348),26,25,4,yes,x,5,x,0.3646489000002475,1,19,test2,1,0.3648787000001903,-20.0
1,lmh,f,23,r,1,(-3.163262682197613e-14, -172.20000000000002),27,-3,11,no,m,6,m,1.3522541000002093,1,20,test2,1,1.3525797999991482,-20.0
1,lmh,f,23,r,1,(-121.76378772032348, 121.76378772032349),24,-5,12,yes,x,5,x,0.9381838999997854,1,21,test2,1,0.9383307000007335,-50.0
1,lmh,f,23,r,1,(-121.76378772032352, -121.76378772032348),26,7,3,yes,x,5,x,0.541767600001549,1,22,test2,1,0.5420085999994626,-38.0
1,lmh,f,23,r,1,(121.76378772032346, -121.76378772032352),28,-25,14,no,m,6,m,1.1788177999987965,1,23,test2,1,1.1789447999999538,-38.0
1,lmh,f,23,r,1,(172.20000000000002, 0.0),21,-7,13,no,m,6,m,1.1355846999995265,1,24,test2,1,1.1358228999997664,-38.0
1,lmh,f,23,r,1,(121.76378772032349, 121.76378772032349),22,-5,12,no,m,6,m,1.5832322999995085,1,25,test2,1,1.5834393999994063,-38.0
1,lmh,f,23,r,1,(-121.76378772032352, -121.76378772032348),26,-5,12,no,m,6,m,0.671498599998813,1,26,test2,1,0.6717539999990549,-38.0
1,lmh,f,23,r,1,(172.20000000000002, 0.0),21,-7,13,yes,x,5,x,0.48035710000112886,1,27,test2,1,0.4806770000013785,-52.0
1,lmh,f,23,r,1,(172.20000000000002, 0.0),21,3,1,yes,x,5,x,0.9340400999990379,1,28,test2,1,0.9341623000000254,-42.0
1,lmh,f,23,r,1,(-121.76378772032348, 121.76378772032349),24,7,3,yes,x,5,x,0.4363295000002836,1,29,test2,1,0.4365631000000576,-38.0
1,lmh,f,23,r,1,(-172.20000000000002, 2.1088417881317425e-14),25,5,2,yes,x,5,x,0.7327330999996775,1,30,test2,1,0.7329669999999169,-40.0
1,lmh,f,23,r,1,(121.76378772032346, -121.76378772032352),28,7,3,no,m,6,m,0.8186191999993753,1,31,test2,1,0.8187414000003628,-40.0
1,lmh,f,23,r,1,(172.20000000000002, 0.0),21,-25,14,yes,x,5,x,0.39846269999907236,1,32,test2,1,0.39869390000058047,-70.0
1,lmh,f,23,r,1,(172.20000000000002, 0.0),21,-5,12,yes,x,5,x,0.47810650000064925,1,33,test2,1,0.47834230000080424,-50.0
1,lmh,f,23,r,1,(1.0544208940658713e-14, 172.20000000000002),23,-7,13,yes,x,5,x,0.43999020000046585,1,34,test2,1,0.4402024999999412,-52.0
1,lmh,f,23,r,1,(-172.20000000000002, 2.1088417881317425e-14),25,3,1,yes,x,5,m,0.7444456999983231,0,35,test2,1,0.744565999999395,-42.0
1,lmh,f,23,r,1,(-121.76378772032352, -121.76378772032348),26,-7,13,yes,x,5,x,0.3928505000003497,1,36,test2,1,0.39305419999982405,-52.0
1,lmh,f,23,r,1,(-172.20000000000002, 2.1088417881317425e-14),25,7,3,no,m,6,m,1.4224046999988786,1,37,test2,1,1.4225183999988076,-52.0
1,lmh,f,23,r,1,(1.0544208940658713e-14, 172.20000000000002),23,7,3,yes,x,5,x,0.4134002999999211,1,38,test2,1,0.4135902999987593,-38.0
1,lmh,f,23,r,1,(121.76378772032349, 121.76378772032349),22,-25,14,yes,x,5,x,0.5057624999990367,1,39,test2,1,0.5059998999986419,-70.0
1,lmh,f,23,r,1,(-121.76378772032348, 121.76378772032349),24,-25,14,yes,x,5,x,0.48819929999990563,1,40,test2,1,0.4884359999996377,-70.0
1,lmh,f,23,r,1,(-121.76378772032352, -121.76378772032348),26,5,2,yes,x,5,x,0.610631800000192,1,41,test2,1,0.6110248999993928,-40.0
1,lmh,f,23,r,1,(172.20000000000002, 0.0),21,-25,14,yes,x,5,x,0.4310230999999476,1,42,test2,1,0.4315567000012379,-70.0
1,lmh,f,23,r,1,(-3.163262682197613e-14, -172.20000000000002),27,-7,13,no,m,6,m,0.9318932999995013,1,43,test2,1,0.932639200000267,-70.0
1,lmh,f,23,r,1,(-3.163262682197613e-14, -172.20000000000002),27,-25,14,no,m,6,m,1.9200605999994877,1,44,test2,1,1.9203891000015574,-70.0
1,lmh,f,23,r,1,(-3.163262682197613e-14, -172.20000000000002),27,-5,12,yes,x,5,x,0.5719198000006145,1,45,test2,1,0.5721233000003849,-50.0
1,lmh,f,23,r,1,(-121.76378772032352, -121.76378772032348),26,-5,12,yes,x,5,x,0.5280148000001645,1,46,test2,1,0.5281390000000101,-50.0
1,lmh,f,23,r,1,(-3.163262682197613e-14, -172.20000000000002),27,-5,12,yes,x,5,x,0.586108299999978,1,47,test2,1,0.5862082999992708,-50.0
1,lmh,f,23,r,1,(1.0544208940658713e-14, 172.20000000000002),23,7,3,yes,x,5,x,0.6775803000000451,1,48,test2,1,0.6776867000007769,-38.0
1,lmh,f,23,r,1,(-172.20000000000002, 2.1088417881317425e-14),25,5,2,yes,x,5,x,0.4179536999999982,1,49,test2,1,0.418337099999917,-40.0
1,lmh,f,23,r,1,(-121.76378772032352, -121.76378772032348),26,7,3,no,m,6,m,0.7271838999986358,1,50,test2,1,0.7273220000006404,-40.0
1,lmh,f,23,r,1,(-121.76378772032348, 121.76378772032349),24,-5,12,no,m,6,m,0.9164070999995602,1,51,test2,1,0.9167656999998144,-40.0
1,lmh,f,23,r,1,(172.20000000000002, 0.0),21,-25,14,no,m,6,m,0.8147812000006525,1,52,test2,1,0.8150667999998404,-40.0
1,lmh,f,23,r,1,(-172.20000000000002, 2.1088417881317425e-14),25,-5,12,no,m,6,x,0.5847100000009959,0,53,test2,1,0.5848678999991535,-40.0
1,lmh,f,23,r,1,(172.20000000000002, 0.0),21,5,2,yes,x,5,x,0.7121352999984083,1,54,test2,1,0.7124151000007259,-40.0
1,lmh,f,23,r,1,(-3.163262682197613e-14, -172.20000000000002),27,3,1,yes,x,5,x,0.5657802999994601,1,55,test2,1,0.5661586000005627,-42.0
1,lmh,f,23,r,1,(-121.76378772032348, 121.76378772032349),24,5,2,yes,x,5,x,0.4219332000011491,1,56,test2,1,0.42217170000003534,-40.0
1,lmh,f,23,r,1,(-121.76378772032348, 121.76378772032349),24,-25,14,no,m,6,m,0.8226579000001948,1,57,test2,1,0.8227967999991961,-40.0
1,lmh,f,23,r,1,(1.0544208940658713e-14, 172.20000000000002),23,25,4,yes,x,5,x,0.35831730000063544,1,58,test2,1,0.35852800000066054,-20.0
1,lmh,f,23,r,1,(1.0544208940658713e-14, 172.20000000000002),23,25,4,no,m,6,m,1.0790526000000682,1,59,test2,1,1.079277799999545,-20.0
1,lmh,f,23,r,1,(172.20000000000002, 0.0),21,5,2,yes,x,5,x,0.5136524999998073,1,60,test2,1,0.5138027000011789,-40.0
1,lmh,f,23,r,1,(-3.163262682197613e-14, -172.20000000000002),27,5,2,yes,x,5,x,0.5436015000013867,1,61,test2,1,0.5438964999993914,-40.0
1,lmh,f,23,r,1,(1.0544208940658713e-14, 172.20000000000002),23,-5,12,yes,x,5,x,0.4770251999998436,1,62,test2,1,0.47732990000076825,-50.0
1,lmh,f,23,r,1,(121.76378772032346, -121.76378772032352),28,5,2,no,m,6,m,0.7258216999998695,1,63,test2,1,0.7265793000005942,-50.0
1,lmh,f,23,r,1,(121.76378772032346, -121.76378772032352),28,25,4,no,m,6,m,1.3541771000000153,1,64,test2,1,1.3543540999999095,-50.0
1,lmh,f,23,r,1,(-172.20000000000002, 2.1088417881317425e-14),25,-25,14,yes,x,5,x,0.38014169999951264,1,65,test2,1,0.38034999999945285,-70.0
1,lmh,f,23,r,1,(-3.163262682197613e-14, -172.20000000000002),27,-3,11,yes,x,5,x,0.5362937000008969,1,66,test2,1,0.5365101999996114,-48.0
1,lmh,f,23,r,1,(1.0544208940658713e-14, 172.20000000000002),23,3,1,yes,x,5,x,1.2653410000002623,1,67,test2,1,1.2655741999988095,-42.0
1,lmh,f,23,r,1,(172.20000000000002, 0.0),21,-3,11,yes,x,5,x,1.1265182999995886,1,68,test2,1,1.1267064000003302,-48.0
1,lmh,f,23,r,1,(-3.163262682197613e-14, -172.20000000000002),27,-25,14,yes,x,5,x,0.40396770000006654,1,69,test2,1,0.4040671000002476,-70.0
1,lmh,f,23,r,1,(-121.76378772032348, 121.76378772032349),24,5,2,yes,x,5,x,1.0985885999998573,1,70,test2,1,1.098803400000179,-40.0
1,lmh,f,23,r,1,(172.20000000000002, 0.0),21,-5,12,no,m,6,m,1.4952080999992177,1,71,test2,1,1.4954319000007672,-40.0
1,lmh,f,23,r,1,(172.20000000000002, 0.0),21,5,2,no,m,6,m,1.0922489000004134,1,72,test2,1,1.092363599998862,-40.0
1,lmh,f,23,r,1,(-172.20000000000002, 2.1088417881317425e-14),25,7,3,yes,x,5,x,0.442008199999691,1,73,test2,1,0.44210689999999886,-38.0
1,lmh,f,23,r,1,(172.20000000000002, 0.0),21,25,4,yes,x,5,x,0.6599505000012869,1,74,test2,1,0.6600491000008333,-20.0
1,lmh,f,23,r,1,(-3.163262682197613e-14, -172.20000000000002),27,5,2,yes,x,5,x,0.5193928999997297,1,75,test2,1,0.5196200999998837,-40.0
1,lmh,f,23,r,1,(1.0544208940658713e-14, 172.20000000000002),23,-25,14,no,m,6,m,1.0845372000003408,1,76,test2,1,1.0847493000001123,-40.0
1,lmh,f,23,r,1,(-3.163262682197613e-14, -172.20000000000002),27,25,4,yes,x,5,x,0.40333450000071025,1,77,test2,1,0.40388610000081826,-20.0
1,lmh,f,23,r,1,(172.20000000000002, 0.0),21,3,1,no,m,6,m,0.9101973000015278,1,78,test2,1,0.9104329000001599,-20.0
1,lmh,f,23,r,1,(121.76378772032349, 121.76378772032349),22,-3,11,no,m,6,m,1.1915028000003076,1,79,test2,1,1.191618599999856,-20.0
1,lmh,f,23,r,1,(172.20000000000002, 0.0),21,3,1,yes,x,5,m,0.6594152999987273,0,80,test2,1,0.6596519000013359,-42.0
1,lmh,f,23,r,1,(-121.76378772032348, 121.76378772032349),24,5,2,no,m,6,m,1.7769499999994878,1,81,test2,1,1.7771575999995548,-42.0
1,lmh,f,23,r,1,(-3.163262682197613e-14, -172.20000000000002),27,7,3,no,m,6,m,0.8380176000009669,1,82,test2,1,0.8382503999982873,-42.0
1,lmh,f,23,r,1,(1.0544208940658713e-14, 172.20000000000002),23,-3,11,yes,x,5,x,0.7555553000001964,1,83,test2,1,0.7556569999997009,-48.0
1,lmh,f,23,r,1,(121.76378772032349, 121.76378772032349),22,25,4,no,m,6,m,0.7083533000004536,1,84,test2,1,0.7085181000002194,-48.0
1,lmh,f,23,r,1,(121.76378772032349, 121.76378772032349),22,-7,13,yes,x,5,x,0.5181697000007262,1,85,test2,1,0.5184165000009671,-52.0
1,lmh,f,23,r,1,(-172.20000000000002, 2.1088417881317425e-14),25,7,3,yes,x,5,x,0.5775517000001855,1,86,test2,1,0.577749699999913,-38.0
1,lmh,f,23,r,1,(121.76378772032346, -121.76378772032352),28,-25,14,yes,x,5,x,0.6382633000011992,1,87,test2,1,0.6384735999999975,-70.0
1,lmh,f,23,r,1,(-121.76378772032352, -121.76378772032348),26,-3,11,yes,x,5,x,0.9189781000004587,1,88,test2,1,0.9193882999989,-48.0
1,lmh,f,23,r,1,(-172.20000000000002, 2.1088417881317425e-14),25,-3,11,yes,x,5,m,1.0220589000000473,0,89,test2,1,1.0221572999998898,-48.0
1,lmh,f,23,r,1,(172.20000000000002, 0.0),21,7,3,yes,x,5,x,0.5384524000000965,1,90,test2,1,0.5388933000012912,-38.0
1,lmh,f,23,r,1,(172.20000000000002, 0.0),21,7,3,no,m,6,m,1.0780422999996517,1,91,test2,1,1.0782158999991225,-38.0
1,lmh,f,23,r,1,(121.76378772032349, 121.76378772032349),22,-7,13,yes,x,5,x,1.174198200000319,1,92,test2,1,1.1746257999984664,-52.0
1,lmh,f,23,r,1,(-172.20000000000002, 2.1088417881317425e-14),25,25,4,no,m,6,m,1.4668899000007514,1,93,test2,1,1.4671099999995931,-52.0
1,lmh,f,23,r,1,(121.76378772032346, -121.76378772032352),28,-7,13,yes,x,5,x,0.5242295999996713,1,94,test2,1,0.5243641999986721,-52.0
1,lmh,f,23,r,1,(-172.20000000000002, 2.1088417881317425e-14),25,-3,11,no,m,6,m,1.3201841999998578,1,95,test2,1,1.3207499000000098,-52.0
1,lmh,f,23,r,1,(-3.163262682197613e-14, -172.20000000000002),27,7,3,yes,x,5,x,0.40810419999979786,1,96,test2,1,0.40821970000069996,-38.0
1,lmh,f,23,r,1,(121.76378772032346, -121.76378772032352),28,-3,11,no,m,6,m,1.3095696000000316,1,1,test1,2,1.3097216000005574,-38.0
1,lmh,f,23,r,1,(172.20000000000002, 0.0),21,-3,11,yes,x,5,x,0.4419182000001456,1,2,test1,2,0.4420668000002479,-48.0
1,lmh,f,23,r,1,(-3.163262682197613e-14, -172.20000000000002),27,5,2,no,m,6,m,0.7269567999992432,1,3,test1,2,0.7270588999999745,-48.0
1,lmh,f,23,r,1,(121.76378772032346, -121.76378772032352),28,-25,14,yes,x,5,x,0.37590150000141875,1,4,test1,2,0.3761903999984497,-70.0
1,lmh,f,23,r,1,(1.0544208940658713e-14, 172.20000000000002),23,25,4,yes,x,5,x,0.3533010999999533,1,5,test1,2,0.35355840000011085,-20.0
1,lmh,f,23,r,1,(-121.76378772032348, 121.76378772032349),24,7,3,no,m,6,x,0.9947224000006827,0,6,test1,2,0.9949851000001217,-20.0
1,lmh,f,23,r,1,(1.0544208940658713e-14, 172.20000000000002),23,-25,14,yes,x,5,x,0.40033969999967667,1,7,test1,2,0.4007880000008299,-70.0
1,lmh,f,23,r,1,(-172.20000000000002, 2.1088417881317425e-14),25,5,2,no,m,6,m,1.2034943999988172,1,8,test1,2,1.203718700000536,-70.0
1,lmh,f,23,r,1,(-172.20000000000002, 2.1088417881317425e-14),25,-7,13,yes,x,5,x,0.5141045000000304,1,9,test1,2,0.514440700000705,-52.0
1,lmh,f,23,r,1,(-172.20000000000002, 2.1088417881317425e-14),25,-7,13,yes,x,5,x,0.44405449999976554,1,10,test1,2,0.4445544999998674,-52.0
1,lmh,f,23,r,1,(-121.76378772032352, -121.76378772032348),26,5,2,no,m,6,m,1.5000649000012345,1,11,test1,2,1.500404399999752,-52.0
1,lmh,f,23,r,1,(-121.76378772032352, -121.76378772032348),26,-25,14,no,m,6,m,0.8985991000008653,1,12,test1,2,0.8992545000000973,-52.0
1,lmh,f,23,r,1,(-172.20000000000002, 2.1088417881317425e-14),25,-25,14,yes,x,5,x,0.5659523000012996,1,13,test1,2,0.5661792999999307,-70.0
1,lmh,f,23,r,1,(-3.163262682197613e-14, -172.20000000000002),27,25,4,no,m,6,m,0.9535481000002619,1,14,test1,2,0.9537756000008812,-70.0
1,lmh,f,23,r,1,(121.76378772032346, -121.76378772032352),28,-7,13,yes,x,5,x,0.5474995999993553,1,15,test1,2,0.547867999999653,-52.0
1,lmh,f,23,r,1,(121.76378772032349, 121.76378772032349),22,7,3,yes,x,5,x,0.9056181000014476,1,16,test1,2,0.9058698999997432,-38.0
1,lmh,f,23,r,1,(121.76378772032346, -121.76378772032352),28,25,4,yes,x,5,x,0.42282129999875906,1,17,test1,2,0.4233092999984365,-20.0
1,lmh,f,23,r,1,(121.76378772032346, -121.76378772032352),28,7,3,yes,x,5,x,0.5077684999996563,1,18,test1,2,0.5080885000006674,-38.0
1,lmh,f,23,r,1,(-121.76378772032348, 121.76378772032349),24,25,4,yes,x,5,x,0.41931470000054105,1,19,test1,2,0.4194377000003442,-20.0
1,lmh,f,23,r,1,(121.76378772032349, 121.76378772032349),22,7,3,yes,x,5,x,1.0928511999991315,1,20,test1,2,1.0929818000004161,-38.0
1,lmh,f,23,r,1,(-121.76378772032348, 121.76378772032349),24,-3,11,no,m,6,m,1.1526354000016,1,21,test1,2,1.1527666000001773,-38.0
1,lmh,f,23,r,1,(-121.76378772032352, -121.76378772032348),26,-7,13,yes,x,5,x,0.4612875000002532,1,22,test1,2,0.46152339999935066,-52.0
1,lmh,f,23,r,1,(121.76378772032349, 121.76378772032349),22,3,1,yes,x,5,x,0.8722015000003012,1,23,test1,2,0.8723738999997295,-42.0
1,lmh,f,23,r,1,(1.0544208940658713e-14, 172.20000000000002),23,-7,13,no,m,6,m,1.423058399999718,1,24,test1,2,1.4231605999993917,-42.0
1,lmh,f,23,r,1,(-121.76378772032352, -121.76378772032348),26,5,2,yes,x,5,x,0.9532245000009425,1,25,test1,2,0.9533510000001115,-40.0
1,lmh,f,23,r,1,(121.76378772032346, -121.76378772032352),28,5,2,yes,x,5,x,0.7605262999986735,1,26,test1,2,0.7606467000005068,-40.0
1,lmh,f,23,r,1,(-121.76378772032348, 121.76378772032349),24,3,1,no,m,6,m,1.2224957999987964,1,27,test1,2,1.2227993000014976,-40.0
1,lmh,f,23,r,1,(1.0544208940658713e-14, 172.20000000000002),23,-5,12,yes,x,5,x,1.067930900000647,1,28,test1,2,1.0680362000002788,-50.0
1,lmh,f,23,r,1,(-121.76378772032352, -121.76378772032348),26,3,1,no,m,6,m,1.810042400000384,1,29,test1,2,1.8102679000003263,-50.0
1,lmh,f,23,r,1,(-3.163262682197613e-14, -172.20000000000002),27,-7,13,yes,x,5,x,1.864744000000428,1,30,test1,2,1.8649683999992703,-52.0
1,lmh,f,23,r,1,(-121.76378772032348, 121.76378772032349),24,-5,12,yes,x,5,x,0.684422899999845,1,31,test1,2,0.6846361000007164,-50.0
1,lmh,f,23,r,1,(121.76378772032349, 121.76378772032349),22,-3,11,yes,x,5,x,0.7624648999990313,1,32,test1,2,0.7626228000008268,-48.0
1,lmh,f,23,r,1,(121.76378772032349, 121.76378772032349),22,-5,12,yes,x,5,x,0.5492747999996936,1,33,test1,2,0.5495021999995515,-50.0
1,lmh,f,23,r,1,(121.76378772032349, 121.76378772032349),22,5,2,yes,x,5,x,0.9763778999986243,1,34,test1,2,0.9764784999988478,-40.0
1,lmh,f,23,r,1,(172.20000000000002, 0.0),21,25,4,no,m,6,m,1.6155657999988762,1,35,test1,2,1.6156800000007934,-40.0
1,lmh,f,23,r,1,(-3.163262682197613e-14, -172.20000000000002),27,3,1,yes,x,5,x,1.157487599999513,1,36,test1,2,1.1576483999997436,-42.0
1,lmh,f,23,r,1,(-121.76378772032352, -121.76378772032348),26,-7,13,no,m,6,m,0.9000544999998965,1,37,test1,2,0.9002791999992041,-42.0
1,lmh,f,23,r,1,(121.76378772032349, 121.76378772032349),22,-3,11,yes,x,5,m,1.0279286999993928,0,38,test1,2,1.0283000999988872,-48.0
1,lmh,f,23,r,1,(1.0544208940658713e-14, 172.20000000000002),23,-3,11,no,m,6,m,1.011695499999405,1,39,test1,2,1.0117936000006011,-48.0
1,lmh,f,23,r,1,(1.0544208940658713e-14, 172.20000000000002),23,-25,14,yes,x,5,x,0.34449120000135736,1,40,test1,2,0.3446285000009084,-70.0
1,lmh,f,23,r,1,(121.76378772032346, -121.76378772032352),28,-5,12,no,m,6,m,0.8664286000002903,1,41,test1,2,0.8665302000008523,-70.0
1,lmh,f,23,r,1,(-121.76378772032352, -121.76378772032348),26,25,4,no,m,6,m,0.800611900000149,1,42,test1,2,0.8008234000008088,-70.0
1,lmh,f,23,r,1,(1.0544208940658713e-14, 172.20000000000002),23,3,1,yes,x,5,x,0.5335782999991352,1,43,test1,2,0.533681399998386,-42.0
1,lmh,f,23,r,1,(-121.76378772032352, -121.76378772032348),26,7,3,yes,x,5,x,0.7511999999987893,1,44,test1,2,0.7512970000007044,-38.0
1,lmh,f,23,r,1,(-121.76378772032348, 121.76378772032349),24,25,4,no,m,6,m,0.9159362999998848,1,45,test1,2,0.916163099998812,-38.0
1,lmh,f,23,r,1,(121.76378772032346, -121.76378772032352),28,-5,12,yes,x,5,m,1.6188913999994838,0,46,test1,2,1.619047899999714,-50.0
1,lmh,f,23,r,1,(121.76378772032346, -121.76378772032352),28,-7,13,no,m,6,m,1.0270664999989094,1,47,test1,2,1.0272349000006216,-50.0
1,lmh,f,23,r,1,(121.76378772032349, 121.76378772032349),22,25,4,yes,x,5,x,0.4953019000004133,1,48,test1,2,0.49540370000067924,-20.0
1,lmh,f,23,r,1,(-3.163262682197613e-14, -172.20000000000002),27,-7,13,yes,x,5,x,0.5482932000013534,1,49,test1,2,0.5485138000003644,-52.0
1,lmh,f,23,r,1,(121.76378772032346, -121.76378772032352),28,-5,12,yes,x,5,x,0.5078023000005487,1,50,test1,2,0.5080285000003641,-50.0
1,lmh,f,23,r,1,(-121.76378772032348, 121.76378772032349),24,3,1,yes,x,5,x,0.6633604999988165,1,51,test1,2,0.6636431999995693,-42.0
1,lmh,f,23,r,1,(-3.163262682197613e-14, -172.20000000000002),27,-25,14,yes,x,5,x,0.3622434999997495,1,52,test1,2,0.36245940000117116,-70.0
1,lmh,f,23,r,1,(121.76378772032349, 121.76378772032349),22,3,1,no,m,6,m,1.411707799999931,1,53,test1,2,1.4118419000005815,-70.0
1,lmh,f,23,r,1,(121.76378772032346, -121.76378772032352),28,3,1,yes,x,5,x,0.5345557000000554,1,54,test1,2,0.5347817000001669,-42.0
1,lmh,f,23,r,1,(121.76378772032346, -121.76378772032352),28,7,3,yes,x,5,None,None,0,55,test1,2,1.9800938999997015,-38.0
1,lmh,f,23,r,1,(121.76378772032346, -121.76378772032352),28,25,4,yes,x,5,x,0.4022332999993523,1,56,test1,2,0.4029562000014266,-20.0
1,lmh,f,23,r,1,(1.0544208940658713e-14, 172.20000000000002),23,-5,12,no,m,6,x,0.7795996000004379,0,57,test1,2,0.7797016999993502,-20.0
1,lmh,f,23,r,1,(-172.20000000000002, 2.1088417881317425e-14),25,-5,12,yes,x,5,x,0.7239620999989711,1,58,test1,2,0.7245858999995107,-50.0
1,lmh,f,23,r,1,(1.0544208940658713e-14, 172.20000000000002),23,5,2,no,m,6,m,0.9874825999995664,1,59,test1,2,0.9877899999992223,-50.0
1,lmh,f,23,r,1,(121.76378772032349, 121.76378772032349),22,3,1,yes,x,5,x,1.166316499999084,1,60,test1,2,1.1664691000005405,-42.0
1,lmh,f,23,r,1,(121.76378772032349, 121.76378772032349),22,-5,12,yes,x,5,None,None,0,61,test1,2,1.9800847000005888,-50.0
1,lmh,f,23,r,1,(-121.76378772032352, -121.76378772032348),26,3,1,yes,x,5,x,1.0962470000013127,1,62,test1,2,1.0965684999991936,-42.0
1,lmh,f,23,r,1,(-172.20000000000002, 2.1088417881317425e-14),25,3,1,yes,x,5,x,0.47642850000011094,1,63,test1,2,0.47667790000014065,-42.0
1,lmh,f,23,r,1,(121.76378772032349, 121.76378772032349),22,25,4,yes,x,5,x,0.5363468999985344,1,64,test1,2,0.5364446999992651,-20.0
1,lmh,f,23,r,1,(-121.76378772032352, -121.76378772032348),26,-25,14,yes,x,5,x,0.5481660999994347,1,65,test1,2,0.5482668000004196,-70.0
1,lmh,f,23,r,1,(121.76378772032349, 121.76378772032349),22,-25,14,yes,x,5,x,0.47053979999873263,1,66,test1,2,0.4707658999996056,-70.0
1,lmh,f,23,r,1,(-121.76378772032348, 121.76378772032349),24,-3,11,yes,x,5,x,1.1501585000005434,1,67,test1,2,1.1505128000007971,-48.0
1,lmh,f,23,r,1,(-121.76378772032348, 121.76378772032349),24,-7,13,no,m,6,m,1.1768657000011444,1,68,test1,2,1.1772431999997934,-48.0
1,lmh,f,23,r,1,(-121.76378772032348, 121.76378772032349),24,-3,11,yes,x,5,x,1.7045661000011023,1,69,test1,2,1.704668700000184,-48.0
1,lmh,f,23,r,1,(-3.163262682197613e-14, -172.20000000000002),27,25,4,yes,x,5,x,0.45138480000059644,1,70,test1,2,0.4516148000002431,-20.0
1,lmh,f,23,r,1,(-3.163262682197613e-14, -172.20000000000002),27,-5,12,no,m,6,m,1.443058499999097,1,71,test1,2,1.4432268999989901,-20.0
1,lmh,f,23,r,1,(172.20000000000002, 0.0),21,-5,12,yes,x,5,x,1.1903311000005488,1,72,test1,2,1.1907188999994105,-50.0
1,lmh,f,23,r,1,(-3.163262682197613e-14, -172.20000000000002),27,7,3,yes,x,5,x,0.5663113999999041,1,73,test1,2,0.5665542000006099,-38.0
1,lmh,f,23,r,1,(-121.76378772032352, -121.76378772032348),26,25,4,yes,x,5,x,0.6540124000002834,1,74,test1,2,0.6542177999999694,-20.0
1,lmh,f,23,r,1,(1.0544208940658713e-14, 172.20000000000002),23,-7,13,yes,x,5,x,0.7857082999998966,1,75,test1,2,0.7860127000003558,-52.0
1,lmh,f,23,r,1,(172.20000000000002, 0.0),21,7,3,yes,x,5,m,1.280640200000562,0,76,test1,2,1.280872699999236,-38.0
1,lmh,f,23,r,1,(-172.20000000000002, 2.1088417881317425e-14),25,-3,11,yes,x,5,x,0.9383269999998447,1,77,test1,2,0.939014199999292,-48.0
1,lmh,f,23,r,1,(172.20000000000002, 0.0),21,-3,11,no,m,6,m,1.7378991000005044,1,78,test1,2,1.7383036999999604,-48.0
1,lmh,f,23,r,1,(-121.76378772032352, -121.76378772032348),26,-3,11,no,m,6,None,None,0,79,test1,2,1.980092699999659,-48.0
1,lmh,f,23,r,1,(-3.163262682197613e-14, -172.20000000000002),27,-3,11,yes,x,5,x,0.7720965999997134,1,80,test1,2,0.7722629999989294,-48.0
1,lmh,f,23,r,1,(-172.20000000000002, 2.1088417881317425e-14),25,25,4,yes,x,5,x,0.552320900000268,1,81,test1,2,0.552600999999413,-20.0
1,lmh,f,23,r,1,(-172.20000000000002, 2.1088417881317425e-14),25,-7,13,no,m,6,m,1.8998224000006303,1,82,test1,2,1.9000680000008288,-20.0
1,lmh,f,23,r,1,(-121.76378772032348, 121.76378772032349),24,25,4,yes,x,5,x,0.39810079999915615,1,83,test1,2,0.3982280999989598,-20.0
1,lmh,f,23,r,1,(1.0544208940658713e-14, 172.20000000000002),23,3,1,no,m,6,m,0.784438599999703,1,84,test1,2,0.7846578000007867,-20.0
1,lmh,f,23,r,1,(1.0544208940658713e-14, 172.20000000000002),23,5,2,yes,x,5,x,1.517516899999464,1,85,test1,2,1.5176769999998214,-40.0
1,lmh,f,23,r,1,(121.76378772032346, -121.76378772032352),28,-3,11,yes,x,5,None,None,0,86,test1,2,1.9801020000013523,-48.0
1,lmh,f,23,r,1,(-172.20000000000002, 2.1088417881317425e-14),25,25,4,yes,x,5,x,0.530790300001172,1,87,test1,2,0.5308896999995341,-20.0
1,lmh,f,23,r,1,(-121.76378772032352, -121.76378772032348),26,-25,14,yes,x,5,x,0.39098740000008547,1,88,test1,2,0.3913560000000871,-70.0
1,lmh,f,23,r,1,(-121.76378772032352, -121.76378772032348),26,3,1,yes,x,5,m,1.407230900000286,0,89,test1,2,1.4074603999997635,-42.0
1,lmh,f,23,r,1,(-172.20000000000002, 2.1088417881317425e-14),25,3,1,no,m,6,m,1.0580726000007417,1,90,test1,2,1.0581724000003305,-42.0
1,lmh,f,23,r,1,(172.20000000000002, 0.0),21,25,4,yes,x,5,x,0.4717966999996861,1,91,test1,2,0.4719119999990653,-20.0
1,lmh,f,23,r,1,(1.0544208940658713e-14, 172.20000000000002),23,7,3,no,m,6,m,1.5905758999997488,1,92,test1,2,1.5907029999998485,-20.0
1,lmh,f,23,r,1,(121.76378772032349, 121.76378772032349),22,7,3,no,m,6,m,0.8085620000001654,1,93,test1,2,0.8087916000004043,-20.0
1,lmh,f,23,r,1,(121.76378772032349, 121.76378772032349),22,5,2,yes,x,5,m,1.3118509000014456,0,94,test1,2,1.312009899998884,-40.0
1,lmh,f,23,r,1,(121.76378772032346, -121.76378772032352),28,-3,11,yes,x,5,None,None,0,95,test1,2,1.9800936000010552,-48.0
1,lmh,f,23,r,1,(1.0544208940658713e-14, 172.20000000000002),23,5,2,yes,x,5,x,0.4966454999994312,1,96,test1,2,0.4968919000002643,-40.0
1,lmh,f,23,r,1,(121.76378772032346, -121.76378772032352),28,3,1,no,m,6,x,0.7386470000001282,0,1,test2,2,0.7388276000001497,-40.0
1,lmh,f,23,r,1,(-121.76378772032348, 121.76378772032349),24,3,1,yes,x,5,x,0.530772899999647,1,2,test2,2,0.5309949999991659,-42.0
1,lmh,f,23,r,1,(-121.76378772032348, 121.76378772032349),24,7,3,yes,x,5,x,0.3814107999987755,1,3,test2,2,0.38151269999980286,-38.0
1,lmh,f,23,r,1,(-172.20000000000002, 2.1088417881317425e-14),25,-5,12,yes,x,5,x,0.6357937000011589,1,4,test2,2,0.6359857999996166,-50.0
1,lmh,f,23,r,1,(172.20000000000002, 0.0),21,-7,13,yes,x,5,x,0.43961400000080175,1,5,test2,2,0.4398818999998184,-52.0
1,lmh,f,23,r,1,(-121.76378772032352, -121.76378772032348),26,-5,12,yes,x,5,x,0.3653645000013057,1,6,test2,2,0.36549080000077083,-50.0
1,lmh,f,23,r,1,(121.76378772032349, 121.76378772032349),22,-25,14,no,m,6,x,0.6808765999994648,0,7,test2,2,0.681021200000032,-50.0
1,lmh,f,23,r,1,(121.76378772032346, -121.76378772032352),28,3,1,yes,x,5,x,1.7542245000004186,1,8,test2,2,1.7544254000004003,-42.0
1,lmh,f,23,r,1,(1.0544208940658713e-14, 172.20000000000002),23,-3,11,yes,x,5,x,0.6066274999993766,1,9,test2,2,0.6067256999995152,-48.0
1,lmh,f,23,r,1,(121.76378772032349, 121.76378772032349),22,5,2,no,m,6,x,1.0491810999992595,0,10,test2,2,1.0493084999998246,-48.0
1,lmh,f,23,r,1,(-121.76378772032348, 121.76378772032349),24,-25,14,yes,x,5,x,0.4029861000017263,1,11,test2,2,0.4032145000001037,-70.0
1,lmh,f,23,r,1,(121.76378772032349, 121.76378772032349),22,-7,13,no,m,6,m,1.4170016999996733,1,12,test2,2,1.417173100000582,-70.0
1,lmh,f,23,r,1,(-121.76378772032348, 121.76378772032349),24,-7,13,yes,x,5,x,0.7248562000004313,1,13,test2,2,0.7250922000002902,-52.0
1,lmh,f,23,r,1,(-3.163262682197613e-14, -172.20000000000002),27,3,1,no,m,6,m,1.5474450000001525,1,14,test2,2,1.5475754999988567,-52.0
1,lmh,f,23,r,1,(-121.76378772032352, -121.76378772032348),26,-3,11,yes,x,5,m,1.8432659999998577,0,15,test2,2,1.8440398999991885,-48.0
1,lmh,f,23,r,1,(121.76378772032346, -121.76378772032352),28,5,2,yes,x,5,x,0.6734183999997185,1,16,test2,2,0.6736046000005445,-40.0
1,lmh,f,23,r,1,(-172.20000000000002, 2.1088417881317425e-14),25,-25,14,no,m,6,x,1.1757299000000785,0,17,test2,2,1.1760223000001133,-40.0
1,lmh,f,23,r,1,(-121.76378772032348, 121.76378772032349),24,-7,13,yes,x,5,x,0.39034580000043206,1,18,test2,2,0.390621700000338,-52.0
1,lmh,f,23,r,1,(-121.76378772032352, -121.76378772032348),26,25,4,yes,x,5,x,0.39272299999902316,1,19,test2,2,0.3928340999991633,-20.0
1,lmh,f,23,r,1,(-3.163262682197613e-14, -172.20000000000002),27,-3,11,no,m,6,m,1.5382461999997759,1,20,test2,2,1.5383710999994946,-20.0
1,lmh,f,23,r,1,(-121.76378772032348, 121.76378772032349),24,-5,12,yes,x,5,None,None,0,21,test2,2,1.9800863999989815,-50.0
1,lmh,f,23,r,1,(-121.76378772032352, -121.76378772032348),26,7,3,yes,x,5,x,0.4947453000004316,1,22,test2,2,0.49491630000011355,-38.0
1,lmh,f,23,r,1,(121.76378772032346, -121.76378772032352),28,-25,14,no,m,6,m,0.7603712000000087,1,23,test2,2,0.7605364999999438,-38.0
1,lmh,f,23,r,1,(172.20000000000002, 0.0),21,-7,13,no,m,6,x,1.324548999999024,0,24,test2,2,1.3246471999991627,-38.0
1,lmh,f,23,r,1,(121.76378772032349, 121.76378772032349),22,-5,12,no,m,6,m,0.870657299999948,1,25,test2,2,0.870833599999969,-38.0
1,lmh,f,23,r,1,(-121.76378772032352, -121.76378772032348),26,-5,12,no,m,6,m,1.3753996999985247,1,26,test2,2,1.3756093999982113,-38.0
1,lmh,f,23,r,1,(172.20000000000002, 0.0),21,-7,13,yes,x,5,x,0.5108122999990883,1,27,test2,2,0.5111371000002691,-52.0
1,lmh,f,23,r,1,(172.20000000000002, 0.0),21,3,1,yes,x,5,x,0.6981424999994488,1,28,test2,2,0.6985280000008061,-42.0
1,lmh,f,23,r,1,(-121.76378772032348, 121.76378772032349),24,7,3,yes,x,5,x,0.4285331999999471,1,29,test2,2,0.4287370000001829,-38.0
1,lmh,f,23,r,1,(-172.20000000000002, 2.1088417881317425e-14),25,5,2,yes,x,5,x,0.7213363000009849,1,30,test2,2,0.7214738999991823,-40.0
1,lmh,f,23,r,1,(121.76378772032346, -121.76378772032352),28,7,3,no,m,6,m,1.009799400000702,1,31,test2,2,1.010121799999979,-40.0
1,lmh,f,23,r,1,(172.20000000000002, 0.0),21,-25,14,yes,x,5,x,0.439122400000997,1,32,test2,2,0.4392888000002131,-70.0
1,lmh,f,23,r,1,(172.20000000000002, 0.0),21,-5,12,yes,x,5,m,0.7957954000012251,0,33,test2,2,0.7961006999994424,-50.0
1,lmh,f,23,r,1,(1.0544208940658713e-14, 172.20000000000002),23,-7,13,yes,x,5,x,0.4762272000007215,1,34,test2,2,0.4763863999996829,-52.0
1,lmh,f,23,r,1,(-172.20000000000002, 2.1088417881317425e-14),25,3,1,yes,x,5,x,1.4492606000003434,1,35,test2,2,1.4494488000000274,-42.0
1,lmh,f,23,r,1,(-121.76378772032352, -121.76378772032348),26,-7,13,yes,x,5,x,0.765569900000628,1,36,test2,2,0.7658446999994339,-52.0
1,lmh,f,23,r,1,(-172.20000000000002, 2.1088417881317425e-14),25,7,3,no,m,6,m,1.346602300000086,1,37,test2,2,1.346761400000105,-52.0
1,lmh,f,23,r,1,(1.0544208940658713e-14, 172.20000000000002),23,7,3,yes,x,5,x,0.5111778999998933,1,38,test2,2,0.5116676999987249,-38.0
1,lmh,f,23,r,1,(121.76378772032349, 121.76378772032349),22,-25,14,yes,x,5,x,0.447110099999918,1,39,test2,2,0.44758179999917047,-70.0
1,lmh,f,23,r,1,(-121.76378772032348, 121.76378772032349),24,-25,14,yes,x,5,x,0.4303362999999081,1,40,test2,2,0.43043869999928575,-70.0
1,lmh,f,23,r,1,(-121.76378772032352, -121.76378772032348),26,5,2,yes,x,5,x,0.5138870000009774,1,41,test2,2,0.5140747000004922,-40.0
1,lmh,f,23,r,1,(172.20000000000002, 0.0),21,-25,14,yes,x,5,x,1.1600997000005009,1,42,test2,2,1.1605517999996664,-70.0
1,lmh,f,23,r,1,(-3.163262682197613e-14, -172.20000000000002),27,-7,13,no,m,6,m,0.670624599999428,1,43,test2,2,0.6707879999994475,-70.0
1,lmh,f,23,r,1,(-3.163262682197613e-14, -172.20000000000002),27,-25,14,no,m,6,None,None,0,44,test2,2,1.9802524999995512,-70.0
1,lmh,f,23,r,1,(-3.163262682197613e-14, -172.20000000000002),27,-5,12,yes,x,5,x,1.1378924000000552,1,45,test2,2,1.1380700999998226,-50.0
1,lmh,f,23,r,1,(-121.76378772032352, -121.76378772032348),26,-5,12,yes,x,5,x,0.6399455999999191,1,46,test2,2,0.6400459999986197,-50.0
1,lmh,f,23,r,1,(-3.163262682197613e-14, -172.20000000000002),27,-5,12,yes,x,5,x,0.6567082000001392,1,47,test2,2,0.656809099999009,-50.0
1,lmh,f,23,r,1,(1.0544208940658713e-14, 172.20000000000002),23,7,3,yes,x,5,x,0.5446807999996963,1,48,test2,2,0.5449313999997685,-38.0
1,lmh,f,23,r,1,(-172.20000000000002, 2.1088417881317425e-14),25,5,2,yes,x,5,x,0.6514931000001525,1,49,test2,2,0.6515900000013062,-40.0
1,lmh,f,23,r,1,(-121.76378772032352, -121.76378772032348),26,7,3,no,m,6,m,0.8363840000001801,1,50,test2,2,0.8364838999987114,-40.0
1,lmh,f,23,r,1,(-121.76378772032348, 121.76378772032349),24,-5,12,no,m,6,m,0.7479518000000098,1,51,test2,2,0.7481895999990229,-40.0
1,lmh,f,23,r,1,(172.20000000000002, 0.0),21,-25,14,no,m,6,None,None,0,52,test2,2,1.9800935000002937,-40.0
1,lmh,f,23,r,1,(-172.20000000000002, 2.1088417881317425e-14),25,-5,12,no,m,6,m,1.6028351999993902,1,53,test2,2,1.6031218999996781,-40.0
1,lmh,f,23,r,1,(172.20000000000002, 0.0),21,5,2,yes,x,5,None,None,0,54,test2,2,1.9800936999999976,-40.0
1,lmh,f,23,r,1,(-3.163262682197613e-14, -172.20000000000002),27,3,1,yes,x,5,x,0.4858375000003434,1,55,test2,2,0.4859721000011632,-42.0
1,lmh,f,23,r,1,(-121.76378772032348, 121.76378772032349),24,5,2,yes,x,5,x,0.9917327999992267,1,56,test2,2,0.9923545000001468,-40.0
1,lmh,f,23,r,1,(-121.76378772032348, 121.76378772032349),24,-25,14,no,m,6,m,0.9048512999997911,1,57,test2,2,0.9052346999997098,-40.0
1,lmh,f,23,r,1,(1.0544208940658713e-14, 172.20000000000002),23,25,4,yes,x,5,x,0.4760057000003144,1,58,test2,2,0.476135200000499,-20.0
1,lmh,f,23,r,1,(1.0544208940658713e-14, 172.20000000000002),23,25,4,no,m,6,m,1.9095620999996754,1,59,test2,2,1.9096663000000262,-20.0
1,lmh,f,23,r,1,(172.20000000000002, 0.0),21,5,2,yes,x,5,x,0.7702365999994072,1,60,test2,2,0.7703600999993796,-40.0
1,lmh,f,23,r,1,(-3.163262682197613e-14, -172.20000000000002),27,5,2,yes,x,5,x,0.4461873000000196,1,61,test2,2,0.44684459999916726,-40.0
1,lmh,f,23,r,1,(1.0544208940658713e-14, 172.20000000000002),23,-5,12,yes,x,5,x,1.2328331000007893,1,62,test2,2,1.2330524000008154,-50.0
1,lmh,f,23,r,1,(121.76378772032346, -121.76378772032352),28,5,2,no,m,6,m,1.9339510000008886,1,63,test2,2,1.9342502999988938,-50.0
1,lmh,f,23,r,1,(121.76378772032346, -121.76378772032352),28,25,4,no,m,6,m,0.9140798000007635,1,64,test2,2,0.914181500000268,-50.0
1,lmh,f,23,r,1,(-172.20000000000002, 2.1088417881317425e-14),25,-25,14,yes,x,5,x,0.451003900001524,1,65,test2,2,0.451135900000736,-70.0
1,lmh,f,23,r,1,(-3.163262682197613e-14, -172.20000000000002),27,-3,11,yes,x,5,x,0.9654850999995688,1,66,test2,2,0.9658361000001605,-48.0
1,lmh,f,23,r,1,(1.0544208940658713e-14, 172.20000000000002),23,3,1,yes,x,5,m,1.7462439999999333,0,67,test2,2,1.7465231000005588,-42.0
1,lmh,f,23,r,1,(172.20000000000002, 0.0),21,-3,11,yes,x,5,m,1.895388599999933,0,68,test2,2,1.8955504999994446,-48.0
1,lmh,f,23,r,1,(-3.163262682197613e-14, -172.20000000000002),27,-25,14,yes,x,5,x,0.47448460000123305,1,69,test2,2,0.4748170000002574,-70.0
1,lmh,f,23,r,1,(-121.76378772032348, 121.76378772032349),24,5,2,yes,x,5,m,1.8402848999994603,0,70,test2,2,1.840388200000234,-40.0
1,lmh,f,23,r,1,(172.20000000000002, 0.0),21,-5,12,no,m,6,m,1.3266419999999925,1,71,test2,2,1.3270538000015222,-40.0
1,lmh,f,23,r,1,(172.20000000000002, 0.0),21,5,2,no,m,6,m,1.4140360000001237,1,72,test2,2,1.4142662999984168,-40.0
1,lmh,f,23,r,1,(-172.20000000000002, 2.1088417881317425e-14),25,7,3,yes,x,5,m,1.1619716999994125,0,73,test2,2,1.1621283000004041,-38.0
1,lmh,f,23,r,1,(172.20000000000002, 0.0),21,25,4,yes,x,5,x,0.7486365999993723,1,74,test2,2,0.7489690000002156,-20.0
1,lmh,f,23,r,1,(-3.163262682197613e-14, -172.20000000000002),27,5,2,yes,x,5,m,1.7760743999988335,0,75,test2,2,1.7766675999992003,-40.0
1,lmh,f,23,r,1,(1.0544208940658713e-14, 172.20000000000002),23,-25,14,no,m,6,m,1.263682200000403,1,76,test2,2,1.2639122000000498,-40.0
1,lmh,f,23,r,1,(-3.163262682197613e-14, -172.20000000000002),27,25,4,yes,x,5,None,None,0,77,test2,2,1.9800942999991094,-20.0
1,lmh,f,23,r,1,(172.20000000000002, 0.0),21,3,1,no,m,6,x,1.1970779999992374,0,78,test2,2,1.1972946000005322,-20.0
1,lmh,f,23,r,1,(121.76378772032349, 121.76378772032349),22,-3,11,no,m,6,m,1.158565699999599,1,79,test2,2,1.1586953999994876,-20.0
1,lmh,f,23,r,1,(172.20000000000002, 0.0),21,3,1,yes,x,5,x,0.6310868999989907,1,80,test2,2,0.6313535999997839,-42.0
1,lmh,f,23,r,1,(-121.76378772032348, 121.76378772032349),24,5,2,no,m,6,m,0.9248695999995107,1,81,test2,2,0.9252959000004921,-42.0
1,lmh,f,23,r,1,(-3.163262682197613e-14, -172.20000000000002),27,7,3,no,m,6,m,0.6270542999991449,1,82,test2,2,0.6271575000009761,-42.0
1,lmh,f,23,r,1,(1.0544208940658713e-14, 172.20000000000002),23,-3,11,yes,x,5,x,0.8279240000010759,1,83,test2,2,0.8284640999991097,-48.0
1,lmh,f,23,r,1,(121.76378772032349, 121.76378772032349),22,25,4,no,m,6,None,None,0,84,test2,2,1.980089800001224,-48.0
1,lmh,f,23,r,1,(121.76378772032349, 121.76378772032349),22,-7,13,yes,x,5,x,0.47430739999981597,1,85,test2,2,0.47453870000026654,-52.0
1,lmh,f,23,r,1,(-172.20000000000002, 2.1088417881317425e-14),25,7,3,yes,x,5,x,1.8163750999992772,1,86,test2,2,1.8167845999996644,-38.0
1,lmh,f,23,r,1,(121.76378772032346, -121.76378772032352),28,-25,14,yes,x,5,x,0.45298490000095626,1,87,test2,2,0.4536674999999377,-70.0
1,lmh,f,23,r,1,(-121.76378772032352, -121.76378772032348),26,-3,11,yes,x,5,None,None,0,88,test2,2,1.9800997000002099,-48.0
1,lmh,f,23,r,1,(-172.20000000000002, 2.1088417881317425e-14),25,-3,11,yes,x,5,m,1.582185199999003,0,89,test2,2,1.5824814999996306,-48.0
1,lmh,f,23,r,1,(172.20000000000002, 0.0),21,7,3,yes,x,5,x,1.1084941000008257,1,90,test2,2,1.1086169999998674,-38.0
1,lmh,f,23,r,1,(172.20000000000002, 0.0),21,7,3,no,m,6,m,0.7371992999997019,1,91,test2,2,0.7374951000001602,-38.0
1,lmh,f,23,r,1,(121.76378772032349, 121.76378772032349),22,-7,13,yes,x,5,x,0.4783203999995749,1,92,test2,2,0.4787888999999268,-52.0
1,lmh,f,23,r,1,(-172.20000000000002, 2.1088417881317425e-14),25,25,4,no,m,6,m,1.5095120999994833,1,93,test2,2,1.5096143999999185,-52.0
1,lmh,f,23,r,1,(121.76378772032346, -121.76378772032352),28,-7,13,yes,x,5,m,1.2056622999989486,0,94,test2,2,1.2059957000001305,-52.0
1,lmh,f,23,r,1,(-172.20000000000002, 2.1088417881317425e-14),25,-3,11,no,m,6,m,1.126389899998685,1,95,test2,2,1.12684740000077,-52.0
1,lmh,f,23,r,1,(-3.163262682197613e-14, -172.20000000000002),27,7,3,yes,x,5,x,0.6112058999988221,1,96,test2,2,0.611844299999575,-38.0
1,lmh,f,23,r,1,(121.76378772032346, -121.76378772032352),28,-3,11,no,m,6,x,1.2077938000002177,0,1,test1,3,1.2078946999990876,-38.0
1,lmh,f,23,r,1,(172.20000000000002, 0.0),21,-3,11,yes,x,5,x,0.7896044999997684,1,2,test1,3,0.7900030999990122,-48.0
1,lmh,f,23,r,1,(-3.163262682197613e-14, -172.20000000000002),27,5,2,no,m,6,m,1.7066936999999598,1,3,test1,3,1.7078789999995934,-48.0
1,lmh,f,23,r,1,(121.76378772032346, -121.76378772032352),28,-25,14,yes,x,5,x,0.4465183000011166,1,4,test1,3,0.44676719999915804,-70.0
1,lmh,f,23,r,1,(1.0544208940658713e-14, 172.20000000000002),23,25,4,yes,x,5,x,0.33699329999944894,1,5,test1,3,0.3370959000003495,-20.0
1,lmh,f,23,r,1,(-121.76378772032348, 121.76378772032349),24,7,3,no,m,6,m,0.7280848000009428,1,6,test1,3,0.7282070000001113,-20.0
1,lmh,f,23,r,1,(1.0544208940658713e-14, 172.20000000000002),23,-25,14,yes,x,5,x,0.3763113999993948,1,7,test1,3,0.37654159999874537,-70.0
1,lmh,f,23,r,1,(-172.20000000000002, 2.1088417881317425e-14),25,5,2,no,m,6,m,0.8298327999982575,1,8,test1,3,0.830124899999646,-70.0
1,lmh,f,23,r,1,(-172.20000000000002, 2.1088417881317425e-14),25,-7,13,yes,x,5,x,0.3927043000003323,1,9,test1,3,0.39283660000000964,-52.0
1,lmh,f,23,r,1,(-172.20000000000002, 2.1088417881317425e-14),25,-7,13,yes,x,5,x,0.7723217999991903,1,10,test1,3,0.7725327000007383,-52.0
1,lmh,f,23,r,1,(-121.76378772032352, -121.76378772032348),26,5,2,no,m,6,m,1.2955971999999747,1,11,test1,3,1.295982699999513,-52.0
1,lmh,f,23,r,1,(-121.76378772032352, -121.76378772032348),26,-25,14,no,m,6,m,1.077849299999798,1,12,test1,3,1.077948699999979,-52.0
1,lmh,f,23,r,1,(-172.20000000000002, 2.1088417881317425e-14),25,-25,14,yes,x,5,x,0.5985361999992165,1,13,test1,3,0.5987591000011889,-70.0
1,lmh,f,23,r,1,(-3.163262682197613e-14, -172.20000000000002),27,25,4,no,m,6,m,0.6578262999992148,1,14,test1,3,0.6580518999999185,-70.0
1,lmh,f,23,r,1,(121.76378772032346, -121.76378772032352),28,-7,13,yes,x,5,x,0.8119492999994691,1,15,test1,3,0.8123938999997335,-52.0
1,lmh,f,23,r,1,(121.76378772032349, 121.76378772032349),22,7,3,yes,x,5,x,0.4994879999994737,1,16,test1,3,0.49969810000038706,-38.0
1,lmh,f,23,r,1,(121.76378772032346, -121.76378772032352),28,25,4,yes,x,5,x,0.4917462000012165,1,17,test1,3,0.49186360000021523,-20.0
1,lmh,f,23,r,1,(121.76378772032346, -121.76378772032352),28,7,3,yes,x,5,x,0.9536852999990515,1,18,test1,3,0.9537849999996979,-38.0
1,lmh,f,23,r,1,(-121.76378772032348, 121.76378772032349),24,25,4,yes,x,5,x,0.4676868000005925,1,19,test1,3,0.46797030000016093,-20.0
1,lmh,f,23,r,1,(121.76378772032349, 121.76378772032349),22,7,3,yes,x,5,None,None,0,20,test1,3,1.9800864000008005,-38.0
1,lmh,f,23,r,1,(-121.76378772032348, 121.76378772032349),24,-3,11,no,m,6,m,1.418157500000234,1,21,test1,3,1.4182590000000346,-38.0
1,lmh,f,23,r,1,(-121.76378772032352, -121.76378772032348),26,-7,13,yes,x,5,x,0.4392871000000014,1,22,test1,3,0.43947920000027807,-52.0
1,lmh,f,23,r,1,(121.76378772032349, 121.76378772032349),22,3,1,yes,x,5,x,1.2090394999995624,1,23,test1,3,1.2091947000008076,-42.0
1,lmh,f,23,r,1,(1.0544208940658713e-14, 172.20000000000002),23,-7,13,no,m,6,m,1.5755964999989374,1,24,test1,3,1.5756975000003877,-42.0
1,lmh,f,23,r,1,(-121.76378772032352, -121.76378772032348),26,5,2,yes,x,5,x,0.45936059999985446,1,25,test1,3,0.4599720000005618,-40.0
1,lmh,f,23,r,1,(121.76378772032346, -121.76378772032352),28,5,2,yes,x,5,x,0.7207817999988038,1,26,test1,3,0.7209106000009342,-40.0
1,lmh,f,23,r,1,(-121.76378772032348, 121.76378772032349),24,3,1,no,m,6,m,0.7932873999998264,1,27,test1,3,0.7934967000001052,-40.0
1,lmh,f,23,r,1,(1.0544208940658713e-14, 172.20000000000002),23,-5,12,yes,x,5,m,1.8047177999997075,0,28,test1,3,1.8048288000009052,-50.0
1,lmh,f,23,r,1,(-121.76378772032352, -121.76378772032348),26,3,1,no,m,6,m,1.174525000000358,1,29,test1,3,1.1748064999992494,-50.0
1,lmh,f,23,r,1,(-3.163262682197613e-14, -172.20000000000002),27,-7,13,yes,x,5,x,0.5200461999993422,1,30,test1,3,0.5202751999986504,-52.0
1,lmh,f,23,r,1,(-121.76378772032348, 121.76378772032349),24,-5,12,yes,x,5,x,0.9112518000001728,1,31,test1,3,0.911412499999642,-50.0
1,lmh,f,23,r,1,(121.76378772032349, 121.76378772032349),22,-3,11,yes,x,5,None,None,0,32,test1,3,1.9801855999994586,-48.0
1,lmh,f,23,r,1,(121.76378772032349, 121.76378772032349),22,-5,12,yes,x,5,x,0.4921245999994426,1,33,test1,3,0.4923369999996794,-50.0
1,lmh,f,23,r,1,(121.76378772032349, 121.76378772032349),22,5,2,yes,x,5,x,0.44624280000061844,1,34,test1,3,0.4464152999989892,-40.0
1,lmh,f,23,r,1,(172.20000000000002, 0.0),21,25,4,no,m,6,x,0.292065099998581,0,35,test1,3,0.2921662999997352,-40.0
1,lmh,f,23,r,1,(-3.163262682197613e-14, -172.20000000000002),27,3,1,yes,x,5,x,0.40426360000128625,1,36,test1,3,0.40439169999990554,-42.0
1,lmh,f,23,r,1,(-121.76378772032352, -121.76378772032348),26,-7,13,no,m,6,m,1.3877021999996941,1,37,test1,3,1.3879948999983753,-42.0
1,lmh,f,23,r,1,(121.76378772032349, 121.76378772032349),22,-3,11,yes,x,5,m,1.3077470999996876,0,38,test1,3,1.3083926999988762,-48.0
1,lmh,f,23,r,1,(1.0544208940658713e-14, 172.20000000000002),23,-3,11,no,m,6,m,1.2685144999995828,1,39,test1,3,1.2686297000000195,-48.0
1,lmh,f,23,r,1,(1.0544208940658713e-14, 172.20000000000002),23,-25,14,yes,x,5,x,1.763992000000144,1,40,test1,3,1.7641655000006722,-70.0
1,lmh,f,23,r,1,(121.76378772032346, -121.76378772032352),28,-5,12,no,m,6,m,1.765562399999908,1,41,test1,3,1.765778400000272,-70.0
1,lmh,f,23,r,1,(-121.76378772032352, -121.76378772032348),26,25,4,no,m,6,m,1.9212654000002658,1,42,test1,3,1.9213930000005348,-70.0
1,lmh,f,23,r,1,(1.0544208940658713e-14, 172.20000000000002),23,3,1,yes,x,5,m,1.6555441000000428,0,43,test1,3,1.6562883000005968,-42.0
1,lmh,f,23,r,1,(-121.76378772032352, -121.76378772032348),26,7,3,yes,x,5,x,1.3915555000003224,1,44,test1,3,1.3916668999991089,-38.0
1,lmh,f,23,r,1,(-121.76378772032348, 121.76378772032349),24,25,4,no,m,6,m,0.932653300000311,1,45,test1,3,0.9329191000015271,-38.0
1,lmh,f,23,r,1,(121.76378772032346, -121.76378772032352),28,-5,12,yes,x,5,m,1.0620237999992241,0,46,test1,3,1.0622290999999677,-50.0
1,lmh,f,23,r,1,(121.76378772032346, -121.76378772032352),28,-7,13,no,m,6,m,1.291722399999344,1,47,test1,3,1.292008700000224,-50.0
1,lmh,f,23,r,1,(121.76378772032349, 121.76378772032349),22,25,4,yes,x,5,x,0.4472716999989643,1,48,test1,3,0.44736920000104874,-20.0
1,lmh,f,23,r,1,(-3.163262682197613e-14, -172.20000000000002),27,-7,13,yes,x,5,x,0.7058388999994349,1,49,test1,3,0.706071200000224,-52.0
1,lmh,f,23,r,1,(121.76378772032346, -121.76378772032352),28,-5,12,yes,x,5,None,None,0,50,test1,3,1.980094200000167,-50.0
1,lmh,f,23,r,1,(-121.76378772032348, 121.76378772032349),24,3,1,yes,x,5,x,1.1229858999995486,1,51,test1,3,1.123449200000323,-42.0
1,lmh,f,23,r,1,(-3.163262682197613e-14, -172.20000000000002),27,-25,14,yes,x,5,x,0.42433510000046226,1,52,test1,3,0.42455169999993814,-70.0
1,lmh,f,23,r,1,(121.76378772032349, 121.76378772032349),22,3,1,no,m,6,m,1.7571274000001722,1,53,test1,3,1.7572288000010303,-70.0
1,lmh,f,23,r,1,(121.76378772032346, -121.76378772032352),28,3,1,yes,x,5,x,0.987280200000896,1,54,test1,3,0.9874961999994412,-42.0
1,lmh,f,23,r,1,(121.76378772032346, -121.76378772032352),28,7,3,yes,x,5,x,0.6264219000004232,1,55,test1,3,0.6266223000002356,-38.0
1,lmh,f,23,r,1,(121.76378772032346, -121.76378772032352),28,25,4,yes,x,5,x,0.39852830000018,1,56,test1,3,0.3987961999991967,-20.0
1,lmh,f,23,r,1,(1.0544208940658713e-14, 172.20000000000002),23,-5,12,no,m,6,m,1.4029083000004903,1,57,test1,3,1.4030103999994026,-20.0
1,lmh,f,23,r,1,(-172.20000000000002, 2.1088417881317425e-14),25,-5,12,yes,x,5,x,0.5499572999997326,1,58,test1,3,0.5501031000003422,-50.0
1,lmh,f,23,r,1,(1.0544208940658713e-14, 172.20000000000002),23,5,2,no,m,6,m,1.4560781000000134,1,59,test1,3,1.4564642000004824,-50.0
1,lmh,f,23,r,1,(121.76378772032349, 121.76378772032349),22,3,1,yes,x,5,m,1.8325445000009495,0,60,test1,3,1.8327931000003446,-42.0
1,lmh,f,23,r,1,(121.76378772032349, 121.76378772032349),22,-5,12,yes,x,5,None,None,0,61,test1,3,1.9801234000005934,-50.0
1,lmh,f,23,r,1,(-121.76378772032352, -121.76378772032348),26,3,1,yes,x,5,None,None,0,62,test1,3,1.9800883999996586,-42.0
1,lmh,f,23,r,1,(-172.20000000000002, 2.1088417881317425e-14),25,3,1,yes,x,5,x,1.3348549000002095,1,63,test1,3,1.3349840999999287,-42.0
1,lmh,f,23,r,1,(121.76378772032349, 121.76378772032349),22,25,4,yes,x,5,x,0.7178308000002289,1,64,test1,3,0.7181208999991213,-20.0
1,lmh,f,23,r,1,(-121.76378772032352, -121.76378772032348),26,-25,14,yes,x,5,x,0.32095079999999143,1,65,test1,3,0.32138990000021295,-70.0
1,lmh,f,23,r,1,(121.76378772032349, 121.76378772032349),22,-25,14,yes,x,5,x,0.4799531999997271,1,66,test1,3,0.4801361999998335,-70.0
1,lmh,f,23,r,1,(-121.76378772032348, 121.76378772032349),24,-3,11,yes,x,5,m,0.8534815000002709,0,67,test1,3,0.8535832999987178,-48.0
1,lmh,f,23,r,1,(-121.76378772032348, 121.76378772032349),24,-7,13,no,m,6,m,1.083054099999572,1,68,test1,3,1.0833632000012585,-48.0
1,lmh,f,23,r,1,(-121.76378772032348, 121.76378772032349),24,-3,11,yes,x,5,m,1.6160545999991882,0,69,test1,3,1.6163118000004033,-48.0
1,lmh,f,23,r,1,(-3.163262682197613e-14, -172.20000000000002),27,25,4,yes,x,5,x,0.41661740000017744,1,70,test1,3,0.4167715000003227,-20.0
1,lmh,f,23,r,1,(-3.163262682197613e-14, -172.20000000000002),27,-5,12,no,m,6,m,1.3416555999992852,1,71,test1,3,1.3418965999990178,-20.0
1,lmh,f,23,r,1,(172.20000000000002, 0.0),21,-5,12,yes,x,5,None,None,0,72,test1,3,1.980092699999659,-50.0
1,lmh,f,23,r,1,(-3.163262682197613e-14, -172.20000000000002),27,7,3,yes,x,5,x,0.6452454999998736,1,73,test1,3,0.6455310999990616,-38.0
1,lmh,f,23,r,1,(-121.76378772032352, -121.76378772032348),26,25,4,yes,x,5,x,0.4463322999999946,1,74,test1,3,0.4468942000003153,-20.0
1,lmh,f,23,r,1,(1.0544208940658713e-14, 172.20000000000002),23,-7,13,yes,x,5,None,None,0,75,test1,3,1.9800895000007586,-52.0
1,lmh,f,23,r,1,(172.20000000000002, 0.0),21,7,3,yes,x,5,x,1.1061702000006335,1,76,test1,3,1.1062855999989551,-38.0
1,lmh,f,23,r,1,(-172.20000000000002, 2.1088417881317425e-14),25,-3,11,yes,x,5,m,1.0682245999996667,0,77,test1,3,1.068546399999832,-48.0
1,lmh,f,23,r,1,(172.20000000000002, 0.0),21,-3,11,no,m,6,m,0.9722744999999122,1,78,test1,3,0.972427599999719,-48.0
1,lmh,f,23,r,1,(-121.76378772032352, -121.76378772032348),26,-3,11,no,m,6,None,None,0,79,test1,3,1.9801040999991528,-48.0
1,lmh,f,23,r,1,(-3.163262682197613e-14, -172.20000000000002),27,-3,11,yes,x,5,m,1.7664530999991257,0,80,test1,3,1.766637200000332,-48.0
1,lmh,f,23,r,1,(-172.20000000000002, 2.1088417881317425e-14),25,25,4,yes,x,5,x,0.496338700000706,1,81,test1,3,0.49646170000050915,-20.0
1,lmh,f,23,r,1,(-172.20000000000002, 2.1088417881317425e-14),25,-7,13,no,m,6,m,0.6935348000006343,1,82,test1,3,0.6936363999993773,-20.0
1,lmh,f,23,r,1,(-121.76378772032348, 121.76378772032349),24,25,4,yes,x,5,x,0.4647084000007453,1,83,test1,3,0.46484220000093046,-20.0
1,lmh,f,23,r,1,(1.0544208940658713e-14, 172.20000000000002),23,3,1,no,m,6,None,None,0,84,test1,3,1.9800828999996156,-20.0
1,lmh,f,23,r,1,(1.0544208940658713e-14, 172.20000000000002),23,5,2,yes,x,5,m,0.8277968000002147,0,85,test1,3,0.8283172999999806,-40.0
1,lmh,f,23,r,1,(121.76378772032346, -121.76378772032352),28,-3,11,yes,x,5,x,1.3114621999993687,1,86,test1,3,1.3115579999994225,-48.0
1,lmh,f,23,r,1,(-172.20000000000002, 2.1088417881317425e-14),25,25,4,yes,x,5,None,None,0,87,test1,3,1.9800898999983474,-20.0
1,lmh,f,23,r,1,(-121.76378772032352, -121.76378772032348),26,-25,14,yes,x,5,x,1.229218899999978,1,88,test1,3,1.2293474999987666,-70.0
1,lmh,f,23,r,1,(-121.76378772032352, -121.76378772032348),26,3,1,yes,x,5,m,0.7812388000002102,0,89,test1,3,0.7813663000015367,-42.0
1,lmh,f,23,r,1,(-172.20000000000002, 2.1088417881317425e-14),25,3,1,no,m,6,None,None,0,90,test1,3,1.9800945000006323,-42.0
1,lmh,f,23,r,1,(172.20000000000002, 0.0),21,25,4,yes,x,5,None,None,0,91,test1,3,1.9801756999986537,-20.0
1,lmh,f,23,r,1,(1.0544208940658713e-14, 172.20000000000002),23,7,3,no,m,6,m,0.9958490999997593,1,92,test1,3,0.9960278999988077,-20.0
1,lmh,f,23,r,1,(121.76378772032349, 121.76378772032349),22,7,3,no,m,6,m,0.7680141000000731,1,93,test1,3,0.7681519999987358,-20.0
1,lmh,f,23,r,1,(121.76378772032349, 121.76378772032349),22,5,2,yes,x,5,x,1.7890248999992764,1,94,test1,3,1.7892482999995991,-40.0
1,lmh,f,23,r,1,(121.76378772032346, -121.76378772032352),28,-3,11,yes,x,5,m,1.3742450999998255,0,95,test1,3,1.3744573999993008,-48.0
1,lmh,f,23,r,1,(1.0544208940658713e-14, 172.20000000000002),23,5,2,yes,x,5,None,None,0,96,test1,3,1.980105900000126,-40.0
1,lmh,f,23,r,1,(121.76378772032346, -121.76378772032352),28,3,1,no,m,6,None,None,0,1,test2,3,1.9801084999999148,-40.0
1,lmh,f,23,r,1,(-121.76378772032348, 121.76378772032349),24,3,1,yes,x,5,x,0.42621670000153244,1,2,test2,3,0.42631900000014866,-42.0
1,lmh,f,23,r,1,(-121.76378772032348, 121.76378772032349),24,7,3,yes,x,5,x,0.4326450000007753,1,3,test2,3,0.43274530000053346,-38.0
1,lmh,f,23,r,1,(-172.20000000000002, 2.1088417881317425e-14),25,-5,12,yes,x,5,x,0.48838179999984277,1,4,test2,3,0.4886683000004268,-50.0
1,lmh,f,23,r,1,(172.20000000000002, 0.0),21,-7,13,yes,x,5,x,0.4179863999997906,1,5,test2,3,0.4182846999992762,-52.0
1,lmh,f,23,r,1,(-121.76378772032352, -121.76378772032348),26,-5,12,yes,x,5,x,0.4271341999992728,1,6,test2,3,0.42728060000081314,-50.0
1,lmh,f,23,r,1,(121.76378772032349, 121.76378772032349),22,-25,14,no,m,6,m,0.8264142000007269,1,7,test2,3,0.8267040999999153,-50.0
1,lmh,f,23,r,1,(121.76378772032346, -121.76378772032352),28,3,1,yes,x,5,x,1.250469200000225,1,8,test2,3,1.2507976999986568,-42.0
1,lmh,f,23,r,1,(1.0544208940658713e-14, 172.20000000000002),23,-3,11,yes,x,5,x,0.8662022999997134,1,9,test2,3,0.866334000000279,-48.0
1,lmh,f,23,r,1,(121.76378772032349, 121.76378772032349),22,5,2,no,m,6,m,1.4971449999993638,1,10,test2,3,1.4972496000009414,-48.0
1,lmh,f,23,r,1,(-121.76378772032348, 121.76378772032349),24,-25,14,yes,x,5,x,0.36069320000024163,1,11,test2,3,0.36093499999878986,-70.0
1,lmh,f,23,r,1,(121.76378772032349, 121.76378772032349),22,-7,13,no,m,6,m,0.5504268000004231,1,12,test2,3,0.5505549000008614,-70.0
1,lmh,f,23,r,1,(-121.76378772032348, 121.76378772032349),24,-7,13,yes,x,5,x,0.42386070000065956,1,13,test2,3,0.42408590000013646,-52.0
1,lmh,f,23,r,1,(-3.163262682197613e-14, -172.20000000000002),27,3,1,no,m,6,m,0.9795537000009062,1,14,test2,3,0.9796593999999459,-52.0
1,lmh,f,23,r,1,(-121.76378772032352, -121.76378772032348),26,-3,11,yes,x,5,m,0.7465336000004754,0,15,test2,3,0.7466349000005721,-48.0
1,lmh,f,23,r,1,(121.76378772032346, -121.76378772032352),28,5,2,yes,x,5,x,0.5752620000002935,1,16,test2,3,0.5753671999991639,-40.0
1,lmh,f,23,r,1,(-172.20000000000002, 2.1088417881317425e-14),25,-25,14,no,m,6,m,1.2468927999998414,1,17,test2,3,1.2471189000007143,-40.0
1,lmh,f,23,r,1,(-121.76378772032348, 121.76378772032349),24,-7,13,yes,x,5,x,0.4042865999999776,1,18,test2,3,0.40451410000059695,-52.0
1,lmh,f,23,r,1,(-121.76378772032352, -121.76378772032348),26,25,4,yes,x,5,x,0.43620349999946484,1,19,test2,3,0.436369699998977,-20.0
1,lmh,f,23,r,1,(-3.163262682197613e-14, -172.20000000000002),27,-3,11,no,m,6,m,1.550790200000847,1,20,test2,3,1.5510725000003731,-20.0
1,lmh,f,23,r,1,(-121.76378772032348, 121.76378772032349),24,-5,12,yes,x,5,x,0.5376684999991994,1,21,test2,3,0.5378913999993529,-50.0
1,lmh,f,23,r,1,(-121.76378772032352, -121.76378772032348),26,7,3,yes,x,5,x,0.38944570000057865,1,22,test2,3,0.3896441999986564,-38.0
1,lmh,f,23,r,1,(121.76378772032346, -121.76378772032352),28,-25,14,no,m,6,m,0.8488609999985783,1,23,test2,3,0.8489620999989711,-38.0
1,lmh,f,23,r,1,(172.20000000000002, 0.0),21,-7,13,no,m,6,m,1.020086500000616,1,24,test2,3,1.0203825999997207,-38.0
1,lmh,f,23,r,1,(121.76378772032349, 121.76378772032349),22,-5,12,no,m,6,m,0.72742130000006,1,25,test2,3,0.7275810999999521,-38.0
1,lmh,f,23,r,1,(-121.76378772032352, -121.76378772032348),26,-5,12,no,m,6,m,0.621476000000257,1,26,test2,3,0.6215737000002264,-38.0
1,lmh,f,23,r,1,(172.20000000000002, 0.0),21,-7,13,yes,x,5,x,0.5585651000001235,1,27,test2,3,0.5590176000005158,-52.0
1,lmh,f,23,r,1,(172.20000000000002, 0.0),21,3,1,yes,x,5,x,1.4398380000002362,1,28,test2,3,1.4401193000012427,-42.0
1,lmh,f,23,r,1,(-121.76378772032348, 121.76378772032349),24,7,3,yes,x,5,x,0.36909770000056596,1,29,test2,3,0.3692613999992318,-38.0
1,lmh,f,23,r,1,(-172.20000000000002, 2.1088417881317425e-14),25,5,2,yes,x,5,x,0.4103521999986697,1,30,test2,3,0.41065399999934016,-40.0
1,lmh,f,23,r,1,(121.76378772032346, -121.76378772032352),28,7,3,no,m,6,m,1.3130677999997715,1,31,test2,3,1.3131685000007565,-40.0
1,lmh,f,23,r,1,(172.20000000000002, 0.0),21,-25,14,yes,x,5,x,0.39201890000003914,1,32,test2,3,0.392398800000592,-70.0
1,lmh,f,23,r,1,(172.20000000000002, 0.0),21,-5,12,yes,x,5,x,1.125785199999882,1,33,test2,3,1.1258995000007417,-50.0
1,lmh,f,23,r,1,(1.0544208940658713e-14, 172.20000000000002),23,-7,13,yes,x,5,x,0.525233999998818,1,34,test2,3,0.5256809999991674,-52.0
1,lmh,f,23,r,1,(-172.20000000000002, 2.1088417881317425e-14),25,3,1,yes,x,5,x,0.7564254000008077,1,35,test2,3,0.7565204000002268,-42.0
1,lmh,f,23,r,1,(-121.76378772032352, -121.76378772032348),26,-7,13,yes,x,5,x,0.43631140000070445,1,36,test2,3,0.43652149999979883,-52.0
1,lmh,f,23,r,1,(-172.20000000000002, 2.1088417881317425e-14),25,7,3,no,m,6,m,1.23675220000041,1,37,test2,3,1.2368510999986029,-52.0
1,lmh,f,23,r,1,(1.0544208940658713e-14, 172.20000000000002),23,7,3,yes,x,5,x,0.5469664000011107,1,38,test2,3,0.5471207999999024,-38.0
1,lmh,f,23,r,1,(121.76378772032349, 121.76378772032349),22,-25,14,yes,x,5,x,0.4328439000000799,1,39,test2,3,0.43305990000044403,-70.0
1,lmh,f,23,r,1,(-121.76378772032348, 121.76378772032349),24,-25,14,yes,x,5,x,0.45458510000025854,1,40,test2,3,0.4549136000005092,-70.0
1,lmh,f,23,r,1,(-121.76378772032352, -121.76378772032348),26,5,2,yes,x,5,x,0.5052700000014738,1,41,test2,3,0.5056020000010903,-40.0
1,lmh,f,23,r,1,(172.20000000000002, 0.0),21,-25,14,yes,x,5,x,0.42079300000114017,1,42,test2,3,0.4212571999996726,-70.0
1,lmh,f,23,r,1,(-3.163262682197613e-14, -172.20000000000002),27,-7,13,no,m,6,m,1.134789500001716,1,43,test2,3,1.1349210000007588,-70.0
1,lmh,f,23,r,1,(-3.163262682197613e-14, -172.20000000000002),27,-25,14,no,m,6,m,1.1504647999990993,1,44,test2,3,1.150880999999572,-70.0
1,lmh,f,23,r,1,(-3.163262682197613e-14, -172.20000000000002),27,-5,12,yes,x,5,x,0.639125800000329,1,45,test2,3,0.6392914000007295,-50.0
1,lmh,f,23,r,1,(-121.76378772032352, -121.76378772032348),26,-5,12,yes,x,5,x,0.5091358999998192,1,46,test2,3,0.5093817999986641,-50.0
1,lmh,f,23,r,1,(-3.163262682197613e-14, -172.20000000000002),27,-5,12,yes,x,5,x,0.49271000000044296,1,47,test2,3,0.49284830000033253,-50.0
1,lmh,f,23,r,1,(1.0544208940658713e-14, 172.20000000000002),23,7,3,yes,x,5,x,0.4245499999997264,1,48,test2,3,0.4246733999989374,-38.0
1,lmh,f,23,r,1,(-172.20000000000002, 2.1088417881317425e-14),25,5,2,yes,x,5,x,0.46607159999985015,1,49,test2,3,0.4665881000000809,-40.0
1,lmh,f,23,r,1,(-121.76378772032352, -121.76378772032348),26,7,3,no,m,6,m,1.1330288000008295,1,50,test2,3,1.133230999999796,-40.0
1,lmh,f,23,r,1,(-121.76378772032348, 121.76378772032349),24,-5,12,no,m,6,m,0.6397108000001026,1,51,test2,3,0.6398453999991034,-40.0
1,lmh,f,23,r,1,(172.20000000000002, 0.0),21,-25,14,no,m,6,m,0.9555122000001575,1,52,test2,3,0.9558379999998579,-40.0
1,lmh,f,23,r,1,(-172.20000000000002, 2.1088417881317425e-14),25,-5,12,no,m,6,m,0.6618490999990172,1,53,test2,3,0.662186899999142,-40.0
1,lmh,f,23,r,1,(172.20000000000002, 0.0),21,5,2,yes,x,5,x,0.655621500000052,1,54,test2,3,0.6560521999999764,-40.0
1,lmh,f,23,r,1,(-3.163262682197613e-14, -172.20000000000002),27,3,1,yes,x,5,x,1.1862003000005643,1,55,test2,3,1.186652000000322,-42.0
1,lmh,f,23,r,1,(-121.76378772032348, 121.76378772032349),24,5,2,yes,x,5,x,0.4312293999992107,1,56,test2,3,0.43137770000066666,-40.0
1,lmh,f,23,r,1,(-121.76378772032348, 121.76378772032349),24,-25,14,no,m,6,m,0.7272050000010495,1,57,test2,3,0.7274517999994714,-40.0
1,lmh,f,23,r,1,(1.0544208940658713e-14, 172.20000000000002),23,25,4,yes,x,5,x,0.4128892000007909,1,58,test2,3,0.41308240000034857,-20.0
1,lmh,f,23,r,1,(1.0544208940658713e-14, 172.20000000000002),23,25,4,no,m,6,m,0.5197630000002391,1,59,test2,3,0.5199833999995462,-20.0
1,lmh,f,23,r,1,(172.20000000000002, 0.0),21,5,2,yes,x,5,x,0.7905958999999712,1,60,test2,3,0.7912094999992405,-40.0
1,lmh,f,23,r,1,(-3.163262682197613e-14, -172.20000000000002),27,5,2,yes,x,5,x,0.47098709999954735,1,61,test2,3,0.4711196000007476,-40.0
1,lmh,f,23,r,1,(1.0544208940658713e-14, 172.20000000000002),23,-5,12,yes,x,5,x,0.3748438000002352,1,62,test2,3,0.37495810000109486,-50.0
1,lmh,f,23,r,1,(121.76378772032346, -121.76378772032352),28,5,2,no,m,6,m,0.6022446000006312,1,63,test2,3,0.6023984000003111,-50.0
1,lmh,f,23,r,1,(121.76378772032346, -121.76378772032352),28,25,4,no,m,6,m,0.5834303999999975,1,64,test2,3,0.5838991000000533,-50.0
1,lmh,f,23,r,1,(-172.20000000000002, 2.1088417881317425e-14),25,-25,14,yes,x,5,x,0.366997099999935,1,65,test2,3,0.3674566000008781,-70.0
1,lmh,f,23,r,1,(-3.163262682197613e-14, -172.20000000000002),27,-3,11,yes,x,5,x,0.9575660999998945,1,66,test2,3,0.9580205999991449,-48.0
1,lmh,f,23,r,1,(1.0544208940658713e-14, 172.20000000000002),23,3,1,yes,x,5,x,0.6770459999988816,1,67,test2,3,0.6771453000001202,-42.0
1,lmh,f,23,r,1,(172.20000000000002, 0.0),21,-3,11,yes,x,5,x,0.6488830000016605,1,68,test2,3,0.6489813999996841,-48.0
1,lmh,f,23,r,1,(-3.163262682197613e-14, -172.20000000000002),27,-25,14,yes,x,5,x,0.35658800000055635,1,69,test2,3,0.35702930000115884,-70.0
1,lmh,f,23,r,1,(-121.76378772032348, 121.76378772032349),24,5,2,yes,x,5,x,0.3966762000000017,1,70,test2,3,0.3971220999992511,-40.0
1,lmh,f,23,r,1,(172.20000000000002, 0.0),21,-5,12,no,m,6,m,1.3336579000006168,1,71,test2,3,1.3337774999999965,-40.0
1,lmh,f,23,r,1,(172.20000000000002, 0.0),21,5,2,no,m,6,m,0.8281497000007221,1,72,test2,3,0.8282638000000588,-40.0
1,lmh,f,23,r,1,(-172.20000000000002, 2.1088417881317425e-14),25,7,3,yes,x,5,x,0.3684185999991314,1,73,test2,3,0.36868669999967096,-38.0
1,lmh,f,23,r,1,(172.20000000000002, 0.0),21,25,4,yes,x,5,x,0.36959829999977956,1,74,test2,3,0.36971730000004754,-20.0
1,lmh,f,23,r,1,(-3.163262682197613e-14, -172.20000000000002),27,5,2,yes,x,5,x,0.7049915000006877,1,75,test2,3,0.7050952999998117,-40.0
1,lmh,f,23,r,1,(1.0544208940658713e-14, 172.20000000000002),23,-25,14,no,m,6,m,1.1972045999991678,1,76,test2,3,1.197458299999198,-40.0
1,lmh,f,23,r,1,(-3.163262682197613e-14, -172.20000000000002),27,25,4,yes,x,5,x,0.3181676999993215,1,77,test2,3,0.31837430000086897,-20.0
1,lmh,f,23,r,1,(172.20000000000002, 0.0),21,3,1,no,m,6,m,0.6072272999990673,1,78,test2,3,0.6076221999992413,-20.0
1,lmh,f,23,r,1,(121.76378772032349, 121.76378772032349),22,-3,11,no,m,6,m,0.5757482999997592,1,79,test2,3,0.5758875999999873,-20.0
1,lmh,f,23,r,1,(172.20000000000002, 0.0),21,3,1,yes,x,5,x,0.8930753999993613,1,80,test2,3,0.8932377000000997,-42.0
1,lmh,f,23,r,1,(-121.76378772032348, 121.76378772032349),24,5,2,no,m,6,m,0.8566812000008213,1,81,test2,3,0.8571618999994826,-42.0
1,lmh,f,23,r,1,(-3.163262682197613e-14, -172.20000000000002),27,7,3,no,m,6,m,1.6440583999992668,1,82,test2,3,1.644256999999925,-42.0
1,lmh,f,23,r,1,(1.0544208940658713e-14, 172.20000000000002),23,-3,11,yes,x,5,x,0.822322100000747,1,83,test2,3,0.8224233000000822,-48.0
1,lmh,f,23,r,1,(121.76378772032349, 121.76378772032349),22,25,4,no,m,6,m,0.7640862999996898,1,84,test2,3,0.7643158000009862,-48.0
1,lmh,f,23,r,1,(121.76378772032349, 121.76378772032349),22,-7,13,yes,x,5,x,0.3836535999998887,1,85,test2,3,0.38375210000049265,-52.0
1,lmh,f,23,r,1,(-172.20000000000002, 2.1088417881317425e-14),25,7,3,yes,x,5,x,0.3806810999994923,1,86,test2,3,0.3808356999998068,-38.0
1,lmh,f,23,r,1,(121.76378772032346, -121.76378772032352),28,-25,14,yes,x,5,x,0.3478525999998965,1,87,test2,3,0.34808089999933145,-70.0
1,lmh,f,23,r,1,(-121.76378772032352, -121.76378772032348),26,-3,11,yes,x,5,x,0.609259299999394,1,88,test2,3,0.6099063000001479,-48.0
1,lmh,f,23,r,1,(-172.20000000000002, 2.1088417881317425e-14),25,-3,11,yes,x,5,x,0.41160579999996116,1,89,test2,3,0.41173039999921457,-48.0
1,lmh,f,23,r,1,(172.20000000000002, 0.0),21,7,3,yes,x,5,x,0.43379490000006626,1,90,test2,3,0.4346829999994952,-38.0
1,lmh,f,23,r,1,(172.20000000000002, 0.0),21,7,3,no,m,6,m,0.7803844999998546,1,91,test2,3,0.7805705000009766,-38.0
1,lmh,f,23,r,1,(121.76378772032349, 121.76378772032349),22,-7,13,yes,x,5,x,0.3971884000002319,1,92,test2,3,0.39747170000009646,-52.0
1,lmh,f,23,r,1,(-172.20000000000002, 2.1088417881317425e-14),25,25,4,no,m,6,m,0.5691755999996531,1,93,test2,3,0.5694647999989684,-52.0
1,lmh,f,23,r,1,(121.76378772032346, -121.76378772032352),28,-7,13,yes,x,5,x,0.5932548999990104,1,94,test2,3,0.5936457000007067,-52.0
1,lmh,f,23,r,1,(-172.20000000000002, 2.1088417881317425e-14),25,-3,11,no,m,6,m,1.1696054999993066,1,95,test2,3,1.1698281999997562,-52.0
1,lmh,f,23,r,1,(-3.163262682197613e-14, -172.20000000000002),27,7,3,yes,x,5,x,0.4172892000005959,1,96,test2,3,0.4175446000008378,-38.0
1,lmh,f,23,r,1,(121.76378772032346, -121.76378772032352),28,-3,11,no,m,6,m,0.9123122000000876,1,1,test1,4,0.9125413999990997,-38.0
1,lmh,f,23,r,1,(172.20000000000002, 0.0),21,-3,11,yes,x,5,x,0.6228398999992351,1,2,test1,4,0.6229877000005217,-48.0
1,lmh,f,23,r,1,(-3.163262682197613e-14, -172.20000000000002),27,5,2,no,m,6,m,0.8365765999988071,1,3,test1,4,0.8368627999989258,-48.0
1,lmh,f,23,r,1,(121.76378772032346, -121.76378772032352),28,-25,14,yes,x,5,x,0.4283801000001404,1,4,test1,4,0.42847970000002533,-70.0
1,lmh,f,23,r,1,(1.0544208940658713e-14, 172.20000000000002),23,25,4,yes,x,5,x,0.497801100000288,1,5,test1,4,0.4981868000013492,-20.0
1,lmh,f,23,r,1,(-121.76378772032348, 121.76378772032349),24,7,3,no,m,6,m,0.592864099999133,1,6,test1,4,0.5931011000011495,-20.0
1,lmh,f,23,r,1,(1.0544208940658713e-14, 172.20000000000002),23,-25,14,yes,x,5,x,0.3889503999998851,1,7,test1,4,0.3891156999998202,-70.0
1,lmh,f,23,r,1,(-172.20000000000002, 2.1088417881317425e-14),25,5,2,no,m,6,m,1.5767061999995349,1,8,test1,4,1.57735700000012,-70.0
1,lmh,f,23,r,1,(-172.20000000000002, 2.1088417881317425e-14),25,-7,13,yes,x,5,x,0.6673986000005243,1,9,test1,4,0.6679122000005009,-52.0
1,lmh,f,23,r,1,(-172.20000000000002, 2.1088417881317425e-14),25,-7,13,yes,x,5,x,0.450293399999282,1,10,test1,4,0.4504875999991782,-52.0
1,lmh,f,23,r,1,(-121.76378772032352, -121.76378772032348),26,5,2,no,m,6,m,0.6766600999999355,1,11,test1,4,0.6768929000008939,-52.0
1,lmh,f,23,r,1,(-121.76378772032352, -121.76378772032348),26,-25,14,no,m,6,m,1.3520748999999341,1,12,test1,4,1.352209099999527,-52.0
1,lmh,f,23,r,1,(-172.20000000000002, 2.1088417881317425e-14),25,-25,14,yes,x,5,x,0.30891670000164595,1,13,test1,4,0.3090155000008963,-70.0
1,lmh,f,23,r,1,(-3.163262682197613e-14, -172.20000000000002),27,25,4,no,m,6,m,0.5857976000006602,1,14,test1,4,0.5859045999986847,-70.0
1,lmh,f,23,r,1,(121.76378772032346, -121.76378772032352),28,-7,13,yes,x,5,x,0.49946279999858234,1,15,test1,4,0.4997005999994144,-52.0
1,lmh,f,23,r,1,(121.76378772032349, 121.76378772032349),22,7,3,yes,x,5,x,0.467774400000053,1,16,test1,4,0.4682608999992226,-38.0
1,lmh,f,23,r,1,(121.76378772032346, -121.76378772032352),28,25,4,yes,x,5,x,0.32151429999976244,1,17,test1,4,0.321747800000594,-20.0
1,lmh,f,23,r,1,(121.76378772032346, -121.76378772032352),28,7,3,yes,x,5,x,0.3791378000005352,1,18,test1,4,0.37931059999937133,-38.0
1,lmh,f,23,r,1,(-121.76378772032348, 121.76378772032349),24,25,4,yes,x,5,x,0.32217880000098376,1,19,test1,4,0.3223035000009986,-20.0
1,lmh,f,23,r,1,(121.76378772032349, 121.76378772032349),22,7,3,yes,x,5,x,0.48932000000058906,1,20,test1,4,0.4894844999998895,-38.0
1,lmh,f,23,r,1,(-121.76378772032348, 121.76378772032349),24,-3,11,no,m,6,m,0.735221900000397,1,21,test1,4,0.7354611999999179,-38.0
1,lmh,f,23,r,1,(-121.76378772032352, -121.76378772032348),26,-7,13,yes,x,5,x,0.49844950000078825,1,22,test1,4,0.4987617999995564,-52.0
1,lmh,f,23,r,1,(121.76378772032349, 121.76378772032349),22,3,1,yes,x,5,x,0.5167294999992009,1,23,test1,4,0.5168274999996356,-42.0
1,lmh,f,23,r,1,(1.0544208940658713e-14, 172.20000000000002),23,-7,13,no,m,6,m,1.1090351000002556,1,24,test1,4,1.1091512000002695,-42.0
1,lmh,f,23,r,1,(-121.76378772032352, -121.76378772032348),26,5,2,yes,x,5,x,0.3703475999991497,1,25,test1,4,0.3704753999991226,-40.0
1,lmh,f,23,r,1,(121.76378772032346, -121.76378772032352),28,5,2,yes,x,5,x,0.5353656999996019,1,26,test1,4,0.5354744000014762,-40.0
1,lmh,f,23,r,1,(-121.76378772032348, 121.76378772032349),24,3,1,no,m,6,m,0.7107710999989649,1,27,test1,4,0.7112682999995741,-40.0
1,lmh,f,23,r,1,(1.0544208940658713e-14, 172.20000000000002),23,-5,12,yes,x,5,x,0.5364260999995167,1,28,test1,4,0.5368664000015997,-50.0
1,lmh,f,23,r,1,(-121.76378772032352, -121.76378772032348),26,3,1,no,m,6,m,0.7348743000002287,1,29,test1,4,0.7351550000003044,-50.0
1,lmh,f,23,r,1,(-3.163262682197613e-14, -172.20000000000002),27,-7,13,yes,x,5,x,0.37444289999984903,1,30,test1,4,0.3748321000002761,-52.0
1,lmh,f,23,r,1,(-121.76378772032348, 121.76378772032349),24,-5,12,yes,x,5,x,0.41125599999941187,1,31,test1,4,0.41149179999956687,-50.0
1,lmh,f,23,r,1,(121.76378772032349, 121.76378772032349),22,-3,11,yes,x,5,x,0.8910962999998446,1,32,test1,4,0.8916558000000805,-48.0
1,lmh,f,23,r,1,(121.76378772032349, 121.76378772032349),22,-5,12,yes,x,5,x,0.48732030000064697,1,33,test1,4,0.4874182000003202,-50.0
1,lmh,f,23,r,1,(121.76378772032349, 121.76378772032349),22,5,2,yes,x,5,x,0.5018577999999252,1,34,test1,4,0.5019626999983302,-40.0
1,lmh,f,23,r,1,(172.20000000000002, 0.0),21,25,4,no,m,6,m,0.8136918000000151,1,35,test1,4,0.8137943000001542,-40.0
1,lmh,f,23,r,1,(-3.163262682197613e-14, -172.20000000000002),27,3,1,yes,x,5,x,0.42587749999984226,1,36,test1,4,0.4259794999998121,-42.0
1,lmh,f,23,r,1,(-121.76378772032352, -121.76378772032348),26,-7,13,no,m,6,m,1.3281516999995802,1,37,test1,4,1.3282704000012018,-42.0
1,lmh,f,23,r,1,(121.76378772032349, 121.76378772032349),22,-3,11,yes,x,5,m,0.6372312000003149,0,38,test1,4,0.6373339000001579,-48.0
1,lmh,f,23,r,1,(1.0544208940658713e-14, 172.20000000000002),23,-3,11,no,m,6,m,0.6452841999998782,1,39,test1,4,0.6455703999999969,-48.0
1,lmh,f,23,r,1,(1.0544208940658713e-14, 172.20000000000002),23,-25,14,yes,x,5,x,0.342820900001243,1,40,test1,4,0.34295639999982086,-70.0
1,lmh,f,23,r,1,(121.76378772032346, -121.76378772032352),28,-5,12,no,m,6,m,0.8938298000011855,1,41,test1,4,0.8939503000001423,-70.0
1,lmh,f,23,r,1,(-121.76378772032352, -121.76378772032348),26,25,4,no,m,6,m,0.6622320000005857,1,42,test1,4,0.6623913000003085,-70.0
1,lmh,f,23,r,1,(1.0544208940658713e-14, 172.20000000000002),23,3,1,yes,x,5,x,0.9584549999999581,1,43,test1,4,0.9585551999989548,-42.0
1,lmh,f,23,r,1,(-121.76378772032352, -121.76378772032348),26,7,3,yes,x,5,x,0.4790128000004188,1,44,test1,4,0.47911390000081155,-38.0
1,lmh,f,23,r,1,(-121.76378772032348, 121.76378772032349),24,25,4,no,m,6,m,1.684524700000111,1,45,test1,4,1.6846916000013152,-38.0
1,lmh,f,23,r,1,(121.76378772032346, -121.76378772032352),28,-5,12,yes,x,5,x,0.7640886999997747,1,46,test1,4,0.7649691999995412,-50.0
1,lmh,f,23,r,1,(121.76378772032346, -121.76378772032352),28,-7,13,no,m,6,m,1.646785999999338,1,47,test1,4,1.6473478999996587,-50.0
1,lmh,f,23,r,1,(121.76378772032349, 121.76378772032349),22,25,4,yes,x,5,x,0.5085660000004282,1,48,test1,4,0.5093913999990036,-20.0
1,lmh,f,23,r,1,(-3.163262682197613e-14, -172.20000000000002),27,-7,13,yes,x,5,x,0.45192750000023807,1,49,test1,4,0.4520307999991928,-52.0
1,lmh,f,23,r,1,(121.76378772032346, -121.76378772032352),28,-5,12,yes,x,5,x,0.46463130000120145,1,50,test1,4,0.4647580000000744,-50.0
1,lmh,f,23,r,1,(-121.76378772032348, 121.76378772032349),24,3,1,yes,x,5,x,0.9455349999989267,1,51,test1,4,0.9456625000002532,-42.0
1,lmh,f,23,r,1,(-3.163262682197613e-14, -172.20000000000002),27,-25,14,yes,x,5,x,0.37462670000059006,1,52,test1,4,0.374966499999573,-70.0
1,lmh,f,23,r,1,(121.76378772032349, 121.76378772032349),22,3,1,no,m,6,m,0.956648999999743,1,53,test1,4,0.9568228999996791,-70.0
1,lmh,f,23,r,1,(121.76378772032346, -121.76378772032352),28,3,1,yes,x,5,x,0.7380403000006481,1,54,test1,4,0.7381948000002012,-42.0
1,lmh,f,23,r,1,(121.76378772032346, -121.76378772032352),28,7,3,yes,x,5,x,0.5214238999997178,1,55,test1,4,0.5219635999983439,-38.0
1,lmh,f,23,r,1,(121.76378772032346, -121.76378772032352),28,25,4,yes,x,5,x,0.3799295999997412,1,56,test1,4,0.38003419999949983,-20.0
1,lmh,f,23,r,1,(1.0544208940658713e-14, 172.20000000000002),23,-5,12,no,m,6,x,0.4461446999994223,0,57,test1,4,0.44643360000009125,-20.0
1,lmh,f,23,r,1,(-172.20000000000002, 2.1088417881317425e-14),25,-5,12,yes,x,5,x,0.39844260000063514,1,58,test1,4,0.39854319999903964,-50.0
1,lmh,f,23,r,1,(1.0544208940658713e-14, 172.20000000000002),23,5,2,no,m,6,m,0.5416397000008146,1,59,test1,4,0.5417406000015035,-50.0
1,lmh,f,23,r,1,(121.76378772032349, 121.76378772032349),22,3,1,yes,x,5,x,0.9143323999996937,1,60,test1,4,0.91453299999921,-42.0
1,lmh,f,23,r,1,(121.76378772032349, 121.76378772032349),22,-5,12,yes,x,5,x,0.45549469999969006,1,61,test1,4,0.45572549999997136,-50.0
1,lmh,f,23,r,1,(-121.76378772032352, -121.76378772032348),26,3,1,yes,x,5,m,0.619867700001123,0,62,test1,4,0.6201951999992161,-42.0
1,lmh,f,23,r,1,(-172.20000000000002, 2.1088417881317425e-14),25,3,1,yes,x,5,x,0.5850460000001476,1,63,test1,4,0.5851984000000812,-42.0
1,lmh,f,23,r,1,(121.76378772032349, 121.76378772032349),22,25,4,yes,x,5,x,0.52313359999971,1,64,test1,4,0.5232464000000618,-20.0
1,lmh,f,23,r,1,(-121.76378772032352, -121.76378772032348),26,-25,14,yes,x,5,x,0.48910889999933715,1,65,test1,4,0.48924299999998766,-70.0
1,lmh,f,23,r,1,(121.76378772032349, 121.76378772032349),22,-25,14,yes,x,5,x,0.5617430000002059,1,66,test1,4,0.5618550999988656,-70.0
1,lmh,f,23,r,1,(-121.76378772032348, 121.76378772032349),24,-3,11,yes,x,5,x,0.8159107000010408,1,67,test1,4,0.8161244000002625,-48.0
1,lmh,f,23,r,1,(-121.76378772032348, 121.76378772032349),24,-7,13,no,m,6,m,1.0533044999992853,1,68,test1,4,1.0539083999992727,-48.0
1,lmh,f,23,r,1,(-121.76378772032348, 121.76378772032349),24,-3,11,yes,x,5,x,0.879757000000609,1,69,test1,4,0.8801120999996783,-48.0
1,lmh,f,23,r,1,(-3.163262682197613e-14, -172.20000000000002),27,25,4,yes,x,5,x,0.6202131999998528,1,70,test1,4,0.6203877000007196,-20.0
1,lmh,f,23,r,1,(-3.163262682197613e-14, -172.20000000000002),27,-5,12,no,m,6,m,0.7151011999994807,1,71,test1,4,0.715216300000975,-20.0
1,lmh,f,23,r,1,(172.20000000000002, 0.0),21,-5,12,yes,x,5,x,0.5303409999996802,1,72,test1,4,0.5305761999989045,-50.0
1,lmh,f,23,r,1,(-3.163262682197613e-14, -172.20000000000002),27,7,3,yes,x,5,x,0.4203399999987596,1,73,test1,4,0.421181699999579,-38.0
1,lmh,f,23,r,1,(-121.76378772032352, -121.76378772032348),26,25,4,yes,x,5,x,0.33728830000109156,1,74,test1,4,0.33758510000006936,-20.0
1,lmh,f,23,r,1,(1.0544208940658713e-14, 172.20000000000002),23,-7,13,yes,x,5,x,0.48112829999990936,1,75,test1,4,0.48138879999896744,-52.0
1,lmh,f,23,r,1,(172.20000000000002, 0.0),21,7,3,yes,x,5,x,0.49857239999982994,1,76,test1,4,0.4986979000004794,-38.0
1,lmh,f,23,r,1,(-172.20000000000002, 2.1088417881317425e-14),25,-3,11,yes,x,5,x,0.6100979000002553,1,77,test1,4,0.6102565999990475,-48.0
1,lmh,f,23,r,1,(172.20000000000002, 0.0),21,-3,11,no,m,6,m,1.0080462000005355,1,78,test1,4,1.008177899999282,-48.0
1,lmh,f,23,r,1,(-121.76378772032352, -121.76378772032348),26,-3,11,no,m,6,m,1.5729995000001509,1,79,test1,4,1.5732129000007262,-48.0
1,lmh,f,23,r,1,(-3.163262682197613e-14, -172.20000000000002),27,-3,11,yes,x,5,x,0.912448700000823,1,80,test1,4,0.9125803000006272,-48.0
1,lmh,f,23,r,1,(-172.20000000000002, 2.1088417881317425e-14),25,25,4,yes,x,5,x,0.4241963000004034,1,81,test1,4,0.4242919999996957,-20.0
1,lmh,f,23,r,1,(-172.20000000000002, 2.1088417881317425e-14),25,-7,13,no,m,6,m,1.3298952000004647,1,82,test1,4,1.3300791000001482,-20.0
1,lmh,f,23,r,1,(-121.76378772032348, 121.76378772032349),24,25,4,yes,x,5,x,0.42686700000012934,1,83,test1,4,0.42698829999972077,-20.0
1,lmh,f,23,r,1,(1.0544208940658713e-14, 172.20000000000002),23,3,1,no,m,6,m,1.3330845000000409,1,84,test1,4,1.3331836000015755,-20.0
1,lmh,f,23,r,1,(1.0544208940658713e-14, 172.20000000000002),23,5,2,yes,x,5,x,0.5198051000006672,1,85,test1,4,0.5199014000008901,-40.0
1,lmh,f,23,r,1,(121.76378772032346, -121.76378772032352),28,-3,11,yes,x,5,x,1.2374892000007094,1,86,test1,4,1.2379314999998314,-48.0
1,lmh,f,23,r,1,(-172.20000000000002, 2.1088417881317425e-14),25,25,4,yes,x,5,x,0.3831757000007201,1,87,test1,4,0.38358469999911904,-20.0
1,lmh,f,23,r,1,(-121.76378772032352, -121.76378772032348),26,-25,14,yes,x,5,x,0.4421868999997969,1,88,test1,4,0.4424085999999079,-70.0
1,lmh,f,23,r,1,(-121.76378772032352, -121.76378772032348),26,3,1,yes,x,5,x,0.7355635999992955,1,89,test1,4,0.7356920000001992,-42.0
1,lmh,f,23,r,1,(-172.20000000000002, 2.1088417881317425e-14),25,3,1,no,m,6,x,0.46122359999935725,0,90,test1,4,0.4617166999996698,-42.0
1,lmh,f,23,r,1,(172.20000000000002, 0.0),21,25,4,yes,x,5,x,0.4704343000012159,1,91,test1,4,0.47053650000088965,-20.0
1,lmh,f,23,r,1,(1.0544208940658713e-14, 172.20000000000002),23,7,3,no,m,6,m,0.66599959999985,1,92,test1,4,0.6662177999987762,-20.0
1,lmh,f,23,r,1,(121.76378772032349, 121.76378772032349),22,7,3,no,m,6,m,0.5628710000000865,1,93,test1,4,0.5629977000007784,-20.0
1,lmh,f,23,r,1,(121.76378772032349, 121.76378772032349),22,5,2,yes,x,5,x,0.6440139999995154,1,94,test1,4,0.6441305999996985,-40.0
1,lmh,f,23,r,1,(121.76378772032346, -121.76378772032352),28,-3,11,yes,x,5,m,0.8744012000006478,0,95,test1,4,0.8751493999989179,-48.0
1,lmh,f,23,r,1,(1.0544208940658713e-14, 172.20000000000002),23,5,2,yes,x,5,x,0.4327431000001525,1,96,test1,4,0.4330179999997199,-40.0
1,lmh,f,23,r,1,(121.76378772032346, -121.76378772032352),28,3,1,no,m,6,m,1.3254453000008652,1,1,test2,4,1.325552799999059,-40.0
1,lmh,f,23,r,1,(-121.76378772032348, 121.76378772032349),24,3,1,yes,x,5,x,0.5102889999998297,1,2,test2,4,0.5107649000001402,-42.0
1,lmh,f,23,r,1,(-121.76378772032348, 121.76378772032349),24,7,3,yes,x,5,x,0.4026847999994061,1,3,test2,4,0.4030106000009255,-38.0
1,lmh,f,23,r,1,(-172.20000000000002, 2.1088417881317425e-14),25,-5,12,yes,x,5,x,0.39681150000069465,1,4,test2,4,0.39721430000099645,-50.0
1,lmh,f,23,r,1,(172.20000000000002, 0.0),21,-7,13,yes,x,5,x,0.4742868000012095,1,5,test2,4,0.47438859999965644,-52.0
1,lmh,f,23,r,1,(-121.76378772032352, -121.76378772032348),26,-5,12,yes,x,5,x,0.3584536999987904,1,6,test2,4,0.3586761000005936,-50.0
1,lmh,f,23,r,1,(121.76378772032349, 121.76378772032349),22,-25,14,no,m,6,m,1.1075576000002911,1,7,test2,4,1.107836799999859,-50.0
1,lmh,f,23,r,1,(121.76378772032346, -121.76378772032352),28,3,1,yes,x,5,x,0.8238698999994085,1,8,test2,4,0.8243027000007714,-42.0
1,lmh,f,23,r,1,(1.0544208940658713e-14, 172.20000000000002),23,-3,11,yes,x,5,x,0.7324925000011717,1,9,test2,4,0.7325959000008879,-48.0
1,lmh,f,23,r,1,(121.76378772032349, 121.76378772032349),22,5,2,no,m,6,x,1.3678530000015598,0,10,test2,4,1.3679840000004333,-48.0
1,lmh,f,23,r,1,(-121.76378772032348, 121.76378772032349),24,-25,14,yes,x,5,x,0.40314350000153354,1,11,test2,4,0.40346409999983734,-70.0
1,lmh,f,23,r,1,(121.76378772032349, 121.76378772032349),22,-7,13,no,m,6,m,0.5791246999997384,1,12,test2,4,0.5795292999991943,-70.0
1,lmh,f,23,r,1,(-121.76378772032348, 121.76378772032349),24,-7,13,yes,x,5,x,0.39404800000011164,1,13,test2,4,0.39418360000126995,-52.0
1,lmh,f,23,r,1,(-3.163262682197613e-14, -172.20000000000002),27,3,1,no,m,6,m,1.3031582000003255,1,14,test2,4,1.3034651999987545,-52.0
1,lmh,f,23,r,1,(-121.76378772032352, -121.76378772032348),26,-3,11,yes,x,5,x,0.6660610999988421,1,15,test2,4,0.6662974000009854,-48.0
1,lmh,f,23,r,1,(121.76378772032346, -121.76378772032352),28,5,2,yes,x,5,x,0.46016270000109216,1,16,test2,4,0.4603951999997662,-40.0
1,lmh,f,23,r,1,(-172.20000000000002, 2.1088417881317425e-14),25,-25,14,no,m,6,m,0.9932996999996249,1,17,test2,4,0.993451999998797,-40.0
1,lmh,f,23,r,1,(-121.76378772032348, 121.76378772032349),24,-7,13,yes,x,5,x,0.4371565000001283,1,18,test2,4,0.43727790000048117,-52.0
1,lmh,f,23,r,1,(-121.76378772032352, -121.76378772032348),26,25,4,yes,x,5,x,0.3847881999990932,1,19,test2,4,0.38507100000060746,-20.0
1,lmh,f,23,r,1,(-3.163262682197613e-14, -172.20000000000002),27,-3,11,no,m,6,m,0.6635808999999426,1,20,test2,4,0.6638172999992094,-20.0
1,lmh,f,23,r,1,(-121.76378772032348, 121.76378772032349),24,-5,12,yes,x,5,x,0.4179730000014388,1,21,test2,4,0.4181545000010374,-50.0
1,lmh,f,23,r,1,(-121.76378772032352, -121.76378772032348),26,7,3,yes,x,5,x,0.44797399999879417,1,22,test2,4,0.44810039999902074,-38.0
1,lmh,f,23,r,1,(121.76378772032346, -121.76378772032352),28,-25,14,no,m,6,m,0.5891001999989385,1,23,test2,4,0.5892626000004384,-38.0
1,lmh,f,23,r,1,(172.20000000000002, 0.0),21,-7,13,no,m,6,m,0.5891212999995332,1,24,test2,4,0.589251499999591,-38.0
1,lmh,f,23,r,1,(121.76378772032349, 121.76378772032349),22,-5,12,no,m,6,m,0.5432892999997421,1,25,test2,4,0.5434186999991653,-38.0
1,lmh,f,23,r,1,(-121.76378772032352, -121.76378772032348),26,-5,12,no,m,6,m,0.4957598000000871,1,26,test2,4,0.4958951000007801,-38.0
1,lmh,f,23,r,1,(172.20000000000002, 0.0),21,-7,13,yes,x,5,x,0.48075430000062624,1,27,test2,4,0.4813674999986688,-52.0
1,lmh,f,23,r,1,(172.20000000000002, 0.0),21,3,1,yes,x,5,x,0.7057503999985784,1,28,test2,4,0.7058623000011721,-42.0
1,lmh,f,23,r,1,(-121.76378772032348, 121.76378772032349),24,7,3,yes,x,5,x,0.4431844999999157,1,29,test2,4,0.44328089999908116,-38.0
1,lmh,f,23,r,1,(-172.20000000000002, 2.1088417881317425e-14),25,5,2,yes,x,5,x,0.38463400000000547,1,30,test2,4,0.38486289999855217,-40.0
1,lmh,f,23,r,1,(121.76378772032346, -121.76378772032352),28,7,3,no,m,6,m,0.6782512000008865,1,31,test2,4,0.6785350999998627,-40.0
1,lmh,f,23,r,1,(172.20000000000002, 0.0),21,-25,14,yes,x,5,x,0.3339637999997649,1,32,test2,4,0.33406359999935376,-70.0
1,lmh,f,23,r,1,(172.20000000000002, 0.0),21,-5,12,yes,x,5,x,0.4736333000000741,1,33,test2,4,0.4737323000008473,-50.0
1,lmh,f,23,r,1,(1.0544208940658713e-14, 172.20000000000002),23,-7,13,yes,x,5,x,0.47844810000060534,1,34,test2,4,0.47866419999991194,-52.0
1,lmh,f,23,r,1,(-172.20000000000002, 2.1088417881317425e-14),25,3,1,yes,x,5,x,0.4688252999985707,1,35,test2,4,0.46904299999914656,-42.0
1,lmh,f,23,r,1,(-121.76378772032352, -121.76378772032348),26,-7,13,yes,x,5,x,0.4761424000007537,1,36,test2,4,0.47635770000124467,-52.0
1,lmh,f,23,r,1,(-172.20000000000002, 2.1088417881317425e-14),25,7,3,no,m,6,m,0.7422167000004265,1,37,test2,4,0.7425985999998375,-52.0
1,lmh,f,23,r,1,(1.0544208940658713e-14, 172.20000000000002),23,7,3,yes,x,5,x,0.48368699999991804,1,38,test2,4,0.4840000999993208,-38.0
1,lmh,f,23,r,1,(121.76378772032349, 121.76378772032349),22,-25,14,yes,x,5,x,0.4995273999993515,1,39,test2,4,0.49965379999957804,-70.0
1,lmh,f,23,r,1,(-121.76378772032348, 121.76378772032349),24,-25,14,yes,x,5,x,0.38985000000138825,1,40,test2,4,0.39026469999953406,-70.0
1,lmh,f,23,r,1,(-121.76378772032352, -121.76378772032348),26,5,2,yes,x,5,x,0.42402690000017174,1,41,test2,4,0.42418390000057116,-40.0
1,lmh,f,23,r,1,(172.20000000000002, 0.0),21,-25,14,yes,x,5,x,0.37235510000027716,1,42,test2,4,0.37275420000150916,-70.0
1,lmh,f,23,r,1,(-3.163262682197613e-14, -172.20000000000002),27,-7,13,no,m,6,m,0.8741900999993959,1,43,test2,4,0.8743252999993274,-70.0
1,lmh,f,23,r,1,(-3.163262682197613e-14, -172.20000000000002),27,-25,14,no,m,6,x,0.4380376000008255,0,44,test2,4,0.43820190000042203,-70.0
1,lmh,f,23,r,1,(-3.163262682197613e-14, -172.20000000000002),27,-5,12,yes,x,5,x,0.38517090000095777,1,45,test2,4,0.385293699999238,-50.0
1,lmh,f,23,r,1,(-121.76378772032352, -121.76378772032348),26,-5,12,yes,x,5,x,0.40102699999988545,1,46,test2,4,0.4012382999990223,-50.0
1,lmh,f,23,r,1,(-3.163262682197613e-14, -172.20000000000002),27,-5,12,yes,x,5,x,0.5232815999988816,1,47,test2,4,0.5235200000006444,-50.0
1,lmh,f,23,r,1,(1.0544208940658713e-14, 172.20000000000002),23,7,3,yes,x,5,x,0.47224930000083987,1,48,test2,4,0.4726223999987269,-38.0
1,lmh,f,23,r,1,(-172.20000000000002, 2.1088417881317425e-14),25,5,2,yes,x,5,x,0.39089440000134346,1,49,test2,4,0.391024099999413,-40.0
1,lmh,f,23,r,1,(-121.76378772032352, -121.76378772032348),26,7,3,no,m,6,m,0.6386766999985412,1,50,test2,4,0.6388325999996596,-40.0
1,lmh,f,23,r,1,(-121.76378772032348, 121.76378772032349),24,-5,12,no,m,6,m,0.7706351999986509,1,51,test2,4,0.7711698000002798,-40.0
1,lmh,f,23,r,1,(172.20000000000002, 0.0),21,-25,14,no,m,6,m,0.6530199000007997,1,52,test2,4,0.6533736000001227,-40.0
1,lmh,f,23,r,1,(-172.20000000000002, 2.1088417881317425e-14),25,-5,12,no,m,6,m,0.4835213999995176,1,53,test2,4,0.48375989999840385,-40.0
1,lmh,f,23,r,1,(172.20000000000002, 0.0),21,5,2,yes,x,5,x,0.5574759999999515,1,54,test2,4,0.5577733000009175,-40.0
1,lmh,f,23,r,1,(-3.163262682197613e-14, -172.20000000000002),27,3,1,yes,x,5,x,0.7864788999995653,1,55,test2,4,0.7866236000008939,-42.0
1,lmh,f,23,r,1,(-121.76378772032348, 121.76378772032349),24,5,2,yes,x,5,x,0.3971564000003127,1,56,test2,4,0.3973648000010144,-40.0
1,lmh,f,23,r,1,(-121.76378772032348, 121.76378772032349),24,-25,14,no,m,6,m,0.7747134000001097,1,57,test2,4,0.7748353999995743,-40.0
1,lmh,f,23,r,1,(1.0544208940658713e-14, 172.20000000000002),23,25,4,yes,x,5,x,0.43943530000069586,1,58,test2,4,0.43965659999958007,-20.0
1,lmh,f,23,r,1,(1.0544208940658713e-14, 172.20000000000002),23,25,4,no,m,6,m,1.0724792999990314,1,59,test2,4,1.0725829000002705,-20.0
1,lmh,f,23,r,1,(172.20000000000002, 0.0),21,5,2,yes,x,5,x,0.5737924999993993,1,60,test2,4,0.5739031000011892,-40.0
1,lmh,f,23,r,1,(-3.163262682197613e-14, -172.20000000000002),27,5,2,yes,x,5,x,0.5362921999985701,1,61,test2,4,0.5364134999999806,-40.0
1,lmh,f,23,r,1,(1.0544208940658713e-14, 172.20000000000002),23,-5,12,yes,x,5,x,0.5116383000004134,1,62,test2,4,0.5118757000000187,-50.0
1,lmh,f,23,r,1,(121.76378772032346, -121.76378772032352),28,5,2,no,m,6,m,0.7655055000013817,1,63,test2,4,0.7658917999997357,-50.0
1,lmh,f,23,r,1,(121.76378772032346, -121.76378772032352),28,25,4,no,m,6,m,0.6039562999994814,1,64,test2,4,0.6053056999990076,-50.0
