subj_id,subj_name,subj_gender ,subj_age,subj_handedness,subj_runNum,tar_l_x,tar_l_y,loc_code,tar_ori,tar_code,tar_pre ,cor_response,pre_code,subj_response,RT,correct,trial_num,type,bloc_num,dur, real_tar
1,lmh,f,23,r,2,(-172.20000000000002, 2.1088417881317425e-14),25,25,4,no,m,6,None,None,0,1,test1,1,1.9800987999997233,0.0
1,lmh,f,23,r,2,(-172.20000000000002, 2.1088417881317425e-14),25,-25,14,yes,x,5,x,0.5009110000000874,1,2,test1,1,0.501010199999655,-70.0
1,lmh,f,23,r,2,(-121.76378772032352, -121.76378772032348),26,-3,11,no,m,6,m,1.4063514999998006,1,3,test1,1,1.40645559999939,-70.0
1,lmh,f,23,r,2,(1.0544208940658713e-14, 172.20000000000002),23,-3,11,no,m,6,m,1.272679500000777,1,4,test1,1,1.2728076000003057,-70.0
1,lmh,f,23,r,2,(-121.76378772032348, 121.76378772032349),24,-5,12,no,m,6,m,1.308964000000742,1,5,test1,1,1.3090649000005214,-70.0
1,lmh,f,23,r,2,(-3.163262682197613e-14, -172.20000000000002),27,-3,11,yes,x,5,x,0.6999207999997452,1,6,test1,1,0.7001496000002589,-48.0
1,lmh,f,23,r,2,(-3.163262682197613e-14, -172.20000000000002),27,-7,13,no,m,6,m,0.7894985000002634,1,7,test1,1,0.7895981000001484,-48.0
1,lmh,f,23,r,2,(121.76378772032346, -121.76378772032352),28,5,2,yes,x,5,x,0.6956902000001719,1,8,test1,1,0.6960278999995353,-40.0
1,lmh,f,23,r,2,(1.0544208940658713e-14, 172.20000000000002),23,-3,11,yes,x,5,x,0.9932157000002917,1,9,test1,1,0.9935011999996277,-48.0
1,lmh,f,23,r,2,(-3.163262682197613e-14, -172.20000000000002),27,5,2,yes,x,5,x,0.4169902000003276,1,10,test1,1,0.41722939999999653,-40.0
1,lmh,f,23,r,2,(-121.76378772032352, -121.76378772032348),26,5,2,yes,x,5,x,0.8682167999995727,1,11,test1,1,0.8684677000001102,-40.0
1,lmh,f,23,r,2,(172.20000000000002, 0.0),21,25,4,yes,x,5,x,0.3783173000001625,1,12,test1,1,0.3785621999995783,-20.0
1,lmh,f,23,r,2,(1.0544208940658713e-14, 172.20000000000002),23,-25,14,yes,x,5,x,0.34846749999996973,1,13,test1,1,0.3485995000000912,-70.0
1,lmh,f,23,r,2,(-121.76378772032348, 121.76378772032349),24,3,1,no,m,6,m,1.7400468000005276,1,14,test1,1,1.7406055999999808,-70.0
1,lmh,f,23,r,2,(-3.163262682197613e-14, -172.20000000000002),27,3,1,no,m,6,x,0.4421327999998539,0,15,test1,1,0.44253089999983786,-70.0
1,lmh,f,23,r,2,(1.0544208940658713e-14, 172.20000000000002),23,5,2,no,m,6,m,1.1093818999997893,1,16,test1,1,1.1095128999995723,-70.0
1,lmh,f,23,r,2,(-121.76378772032348, 121.76378772032349),24,-3,11,no,m,6,m,1.0551519000000553,1,17,test1,1,1.0553768999998283,-70.0
1,lmh,f,23,r,2,(-121.76378772032348, 121.76378772032349),24,-25,14,yes,x,5,x,0.5107025000006615,1,18,test1,1,0.5108159999999771,-70.0
1,lmh,f,23,r,2,(-172.20000000000002, 2.1088417881317425e-14),25,-3,11,yes,x,5,m,0.9503248000000895,0,19,test1,1,0.9504852999998548,-48.0
1,lmh,f,23,r,2,(172.20000000000002, 0.0),21,7,3,yes,x,5,x,0.42795439999918017,1,20,test1,1,0.42821420000018406,-38.0
1,lmh,f,23,r,2,(121.76378772032349, 121.76378772032349),22,-25,14,yes,x,5,x,0.40606879999995726,1,21,test1,1,0.40619320000041625,-70.0
1,lmh,f,23,r,2,(-3.163262682197613e-14, -172.20000000000002),27,5,2,yes,x,5,x,0.49374639999950887,1,22,test1,1,0.49385050000000774,-40.0
1,lmh,f,23,r,2,(-121.76378772032348, 121.76378772032349),24,25,4,no,m,6,m,1.2464736999991146,1,23,test1,1,1.2466964000004737,-40.0
1,lmh,f,23,r,2,(172.20000000000002, 0.0),21,-5,12,no,m,6,x,0.6177770000003875,0,24,test1,1,0.6178733000006105,-40.0
1,lmh,f,23,r,2,(1.0544208940658713e-14, 172.20000000000002),23,7,3,yes,x,5,x,0.5497777999999016,1,25,test1,1,0.5498821000001044,-38.0
1,lmh,f,23,r,2,(172.20000000000002, 0.0),21,-5,12,yes,x,5,x,0.5004914999999528,1,26,test1,1,0.5006703999997626,-50.0
1,lmh,f,23,r,2,(-3.163262682197613e-14, -172.20000000000002),27,-25,14,yes,x,5,x,0.40565820000028907,1,27,test1,1,0.4057542000000467,-70.0
1,lmh,f,23,r,2,(121.76378772032346, -121.76378772032352),28,-5,12,yes,x,5,x,0.6412049000000479,1,28,test1,1,0.6414292999997997,-50.0
1,lmh,f,23,r,2,(-172.20000000000002, 2.1088417881317425e-14),25,-7,13,yes,x,5,x,0.39531429999988177,1,29,test1,1,0.3956883000000744,-52.0
1,lmh,f,23,r,2,(-121.76378772032348, 121.76378772032349),24,3,1,yes,x,5,x,0.665416599999844,1,30,test1,1,0.6660171000003174,-42.0
1,lmh,f,23,r,2,(1.0544208940658713e-14, 172.20000000000002),23,-7,13,no,m,6,x,1.2409067999997205,0,31,test1,1,1.241587100000288,-42.0
1,lmh,f,23,r,2,(172.20000000000002, 0.0),21,-3,11,no,m,6,m,0.7588243999998667,1,32,test1,1,0.7592674000006809,-42.0
1,lmh,f,23,r,2,(121.76378772032346, -121.76378772032352),28,25,4,no,m,6,m,1.1727049999999508,1,33,test1,1,1.1729937000000064,-42.0
1,lmh,f,23,r,2,(-121.76378772032348, 121.76378772032349),24,5,2,yes,x,5,x,0.5720233000001826,1,34,test1,1,0.572534199999609,-40.0
1,lmh,f,23,r,2,(172.20000000000002, 0.0),21,-25,14,yes,x,5,x,0.5454893999994965,1,35,test1,1,0.5457037999995009,-70.0
1,lmh,f,23,r,2,(121.76378772032349, 121.76378772032349),22,5,2,yes,x,5,x,0.595479399999931,1,36,test1,1,0.595607199999904,-40.0
1,lmh,f,23,r,2,(1.0544208940658713e-14, 172.20000000000002),23,-25,14,yes,x,5,x,0.4077748999998221,1,37,test1,1,0.4087875000004715,-70.0
1,lmh,f,23,r,2,(-121.76378772032352, -121.76378772032348),26,-5,12,yes,x,5,x,0.6042096000001038,1,38,test1,1,0.6043146000001798,-50.0
1,lmh,f,23,r,2,(-172.20000000000002, 2.1088417881317425e-14),25,3,1,yes,x,5,x,1.3267855000003692,1,39,test1,1,1.3271410999996078,-42.0
1,lmh,f,23,r,2,(-3.163262682197613e-14, -172.20000000000002),27,-5,12,no,m,6,m,0.7929629000000205,1,40,test1,1,0.793120700000145,-42.0
1,lmh,f,23,r,2,(1.0544208940658713e-14, 172.20000000000002),23,-7,13,yes,x,5,x,0.4312214000001404,1,41,test1,1,0.43171710000024177,-52.0
1,lmh,f,23,r,2,(1.0544208940658713e-14, 172.20000000000002),23,3,1,no,m,6,m,0.9357466000001295,1,42,test1,1,0.9360994999997274,-52.0
1,lmh,f,23,r,2,(121.76378772032346, -121.76378772032352),28,-3,11,yes,x,5,m,0.5835131000003457,0,43,test1,1,0.583630400000402,-48.0
1,lmh,f,23,r,2,(-121.76378772032348, 121.76378772032349),24,3,1,yes,x,5,x,0.7137941999999384,1,44,test1,1,0.7139676000006148,-42.0
1,lmh,f,23,r,2,(1.0544208940658713e-14, 172.20000000000002),23,3,1,yes,x,5,x,1.3839553999996497,1,45,test1,1,1.3840547999998307,-42.0
1,lmh,f,23,r,2,(-121.76378772032352, -121.76378772032348),26,-7,13,yes,x,5,x,0.5132813000000169,1,46,test1,1,0.5137315000001763,-52.0
1,lmh,f,23,r,2,(-3.163262682197613e-14, -172.20000000000002),27,3,1,yes,x,5,x,1.2790772999996989,1,47,test1,1,1.279529999999795,-42.0
1,lmh,f,23,r,2,(121.76378772032346, -121.76378772032352),28,-5,12,yes,x,5,x,0.6344250000001921,1,48,test1,1,0.6346258999992642,-50.0
1,lmh,f,23,r,2,(-3.163262682197613e-14, -172.20000000000002),27,-5,12,yes,x,5,x,0.4217199000004257,1,49,test1,1,0.4222735000003013,-50.0
1,lmh,f,23,r,2,(-121.76378772032352, -121.76378772032348),26,5,2,yes,x,5,x,0.43049129999963043,1,50,test1,1,0.4309564000004684,-40.0
1,lmh,f,23,r,2,(172.20000000000002, 0.0),21,3,1,yes,x,5,x,0.48510170000008657,1,51,test1,1,0.4853445999997348,-42.0
1,lmh,f,23,r,2,(-121.76378772032352, -121.76378772032348),26,-5,12,no,m,6,m,1.1326846000001751,1,52,test1,1,1.1328573000000688,-42.0
1,lmh,f,23,r,2,(-121.76378772032352, -121.76378772032348),26,-5,12,yes,x,5,x,0.41981099999975413,1,53,test1,1,0.42003399999975954,-50.0
1,lmh,f,23,r,2,(-172.20000000000002, 2.1088417881317425e-14),25,7,3,yes,x,5,x,0.4134313000004113,1,54,test1,1,0.4135870000000068,-38.0
1,lmh,f,23,r,2,(-3.163262682197613e-14, -172.20000000000002),27,7,3,yes,x,5,x,0.39570050000020274,1,55,test1,1,0.3958830000001399,-38.0
1,lmh,f,23,r,2,(-3.163262682197613e-14, -172.20000000000002),27,-7,13,yes,x,5,x,0.41160949999994045,1,56,test1,1,0.4117034999999305,-52.0
1,lmh,f,23,r,2,(-172.20000000000002, 2.1088417881317425e-14),25,-3,11,yes,x,5,x,0.538504500000272,1,57,test1,1,0.5386028000002625,-48.0
1,lmh,f,23,r,2,(-3.163262682197613e-14, -172.20000000000002),27,-3,11,no,m,6,m,1.5765300000002753,1,58,test1,1,1.5766275999994832,-48.0
1,lmh,f,23,r,2,(121.76378772032346, -121.76378772032352),28,25,4,yes,x,5,x,0.42628379999950994,1,59,test1,1,0.42638629999964905,-20.0
1,lmh,f,23,r,2,(-3.163262682197613e-14, -172.20000000000002),27,-25,14,no,m,6,m,1.351314800000182,1,60,test1,1,1.351557199999661,-20.0
1,lmh,f,23,r,2,(121.76378772032349, 121.76378772032349),22,-3,11,yes,x,5,x,1.1335941999996066,1,61,test1,1,1.1339513000002626,-48.0
1,lmh,f,23,r,2,(-121.76378772032348, 121.76378772032349),24,25,4,yes,x,5,x,0.38602759999957925,1,62,test1,1,0.3861285000002681,-20.0
1,lmh,f,23,r,2,(1.0544208940658713e-14, 172.20000000000002),23,5,2,yes,x,5,x,0.8653680000006716,1,63,test1,1,0.8657424999992145,-40.0
1,lmh,f,23,r,2,(1.0544208940658713e-14, 172.20000000000002),23,-3,11,yes,x,5,x,0.9538467000002129,1,64,test1,1,0.9539426999999705,-48.0
1,lmh,f,23,r,2,(-3.163262682197613e-14, -172.20000000000002),27,5,2,no,m,6,m,0.6788962000000538,1,65,test1,1,0.679242900000645,-48.0
1,lmh,f,23,r,2,(-3.163262682197613e-14, -172.20000000000002),27,7,3,no,m,6,m,0.8262058999998771,1,66,test1,1,0.8264316000004328,-48.0
1,lmh,f,23,r,2,(172.20000000000002, 0.0),21,7,3,no,m,6,m,0.6949331999994683,1,67,test1,1,0.6951291000004858,-48.0
1,lmh,f,23,r,2,(172.20000000000002, 0.0),21,5,2,no,m,6,m,1.6401770000002216,1,68,test1,1,1.6402822999998534,-48.0
1,lmh,f,23,r,2,(1.0544208940658713e-14, 172.20000000000002),23,-7,13,yes,x,5,x,0.37178169999970123,1,69,test1,1,0.37188960000003135,-52.0
1,lmh,f,23,r,2,(121.76378772032346, -121.76378772032352),28,5,2,no,m,6,m,1.2274274999999761,1,70,test1,1,1.227658099999644,-52.0
1,lmh,f,23,r,2,(-172.20000000000002, 2.1088417881317425e-14),25,3,1,yes,x,5,m,0.6839608000000226,0,71,test1,1,0.68405840000014,-42.0
1,lmh,f,23,r,2,(-121.76378772032352, -121.76378772032348),26,-7,13,no,m,6,m,0.5398776000001817,1,72,test1,1,0.5401147000002311,-42.0
1,lmh,f,23,r,2,(172.20000000000002, 0.0),21,-25,14,no,m,6,m,0.8283595000002606,1,73,test1,1,0.8286353999992571,-42.0
1,lmh,f,23,r,2,(-121.76378772032352, -121.76378772032348),26,-25,14,yes,x,5,x,0.3514906999998857,1,74,test1,1,0.3516571999998632,-70.0
1,lmh,f,23,r,2,(-121.76378772032348, 121.76378772032349),24,7,3,yes,x,5,x,0.3791308999998364,1,75,test1,1,0.3792516000003161,-38.0
1,lmh,f,23,r,2,(1.0544208940658713e-14, 172.20000000000002),23,-5,12,yes,x,5,x,0.48245760000008886,1,76,test1,1,0.4826578000001973,-50.0
1,lmh,f,23,r,2,(121.76378772032346, -121.76378772032352),28,3,1,yes,x,5,x,1.0243862999996054,1,77,test1,1,1.0246201999998448,-42.0
1,lmh,f,23,r,2,(-172.20000000000002, 2.1088417881317425e-14),25,25,4,yes,x,5,x,0.4100222000006397,1,78,test1,1,0.4102739999998448,-20.0
1,lmh,f,23,r,2,(-121.76378772032352, -121.76378772032348),26,-25,14,no,m,6,m,1.2184833000001163,1,79,test1,1,1.2187260000000606,-20.0
1,lmh,f,23,r,2,(121.76378772032349, 121.76378772032349),22,-5,12,yes,x,5,x,0.430999499999416,1,80,test1,1,0.4316443999996409,-50.0
1,lmh,f,23,r,2,(172.20000000000002, 0.0),21,-7,13,no,m,6,m,1.2412673999997423,1,81,test1,1,1.2414490000001024,-50.0
1,lmh,f,23,r,2,(-172.20000000000002, 2.1088417881317425e-14),25,-5,12,yes,x,5,x,0.4538198000000193,1,82,test1,1,0.45410959999935585,-50.0
1,lmh,f,23,r,2,(-3.163262682197613e-14, -172.20000000000002),27,25,4,no,m,6,m,0.6214091000001645,1,83,test1,1,0.6215148000001136,-50.0
1,lmh,f,23,r,2,(172.20000000000002, 0.0),21,3,1,no,m,6,m,0.6267319999997198,1,84,test1,1,0.6268282999999428,-50.0
1,lmh,f,23,r,2,(-121.76378772032352, -121.76378772032348),26,3,1,no,m,6,m,0.5377824000006513,1,85,test1,1,0.5381250999998883,-50.0
1,lmh,f,23,r,2,(121.76378772032349, 121.76378772032349),22,25,4,yes,x,5,x,0.46490709999943647,1,86,test1,1,0.4650171000002956,-20.0
1,lmh,f,23,r,2,(-172.20000000000002, 2.1088417881317425e-14),25,-5,12,no,m,6,m,1.2834204999999201,1,87,test1,1,1.2835276999994676,-20.0
1,lmh,f,23,r,2,(-121.76378772032352, -121.76378772032348),26,25,4,no,m,6,m,0.6739292000002024,1,88,test1,1,0.674185299999408,-20.0
1,lmh,f,23,r,2,(121.76378772032346, -121.76378772032352),28,-5,12,no,m,6,m,0.5916385999998965,1,89,test1,1,0.5918455000000904,-20.0
1,lmh,f,23,r,2,(172.20000000000002, 0.0),21,-3,11,yes,x,5,m,0.7700770999999804,0,90,test1,1,0.7707283999998253,-48.0
1,lmh,f,23,r,2,(121.76378772032349, 121.76378772032349),22,-25,14,no,m,6,m,0.807799299999715,1,91,test1,1,0.8080591999996614,-48.0
1,lmh,f,23,r,2,(1.0544208940658713e-14, 172.20000000000002),23,25,4,yes,x,5,x,0.4639169000001857,1,92,test1,1,0.46421139999984007,-20.0
1,lmh,f,23,r,2,(121.76378772032349, 121.76378772032349),22,-7,13,yes,x,5,x,0.4669239999993806,1,93,test1,1,0.4670644000007087,-52.0
1,lmh,f,23,r,2,(121.76378772032349, 121.76378772032349),22,7,3,no,m,6,m,0.642706999999973,1,94,test1,1,0.6428146999996898,-52.0
1,lmh,f,23,r,2,(121.76378772032349, 121.76378772032349),22,25,4,yes,x,5,x,0.40305349999925966,1,95,test1,1,0.4036912999999913,-20.0
1,lmh,f,23,r,2,(121.76378772032349, 121.76378772032349),22,7,3,yes,x,5,x,0.44551419999970676,1,96,test1,1,0.4463863000000856,-38.0
1,lmh,f,23,r,2,(172.20000000000002, 0.0),21,-25,14,yes,x,5,x,0.5135875999994823,1,1,test2,1,0.5138667000001078,-70.0
1,lmh,f,23,r,2,(-172.20000000000002, 2.1088417881317425e-14),25,7,3,no,m,6,m,1.65042319999975,1,2,test2,1,1.6505569999999352,-70.0
1,lmh,f,23,r,2,(1.0544208940658713e-14, 172.20000000000002),23,7,3,yes,x,5,x,0.39459809999971185,1,3,test2,1,0.39472769999974844,-38.0
1,lmh,f,23,r,2,(1.0544208940658713e-14, 172.20000000000002),23,5,2,yes,x,5,x,0.46528810000017984,1,4,test2,1,0.46541700000034325,-40.0
1,lmh,f,23,r,2,(121.76378772032349, 121.76378772032349),22,-7,13,yes,x,5,x,0.37894789999973,1,5,test2,1,0.3796218999996199,-52.0
1,lmh,f,23,r,2,(-121.76378772032352, -121.76378772032348),26,7,3,no,m,6,m,0.8406855000002906,1,6,test2,1,0.8409689000000071,-52.0
1,lmh,f,23,r,2,(121.76378772032349, 121.76378772032349),22,3,1,yes,x,5,x,0.5410507999995389,1,7,test2,1,0.5411498000003121,-42.0
1,lmh,f,23,r,2,(-121.76378772032348, 121.76378772032349),24,-25,14,no,m,6,m,0.8368835999999646,1,8,test2,1,0.8370804999995016,-42.0
1,lmh,f,23,r,2,(172.20000000000002, 0.0),21,-5,12,yes,x,5,x,0.48140979999971023,1,9,test2,1,0.4815257999998721,-50.0
1,lmh,f,23,r,2,(121.76378772032349, 121.76378772032349),22,5,2,yes,x,5,x,0.5361138999996911,1,10,test2,1,0.5363590999995722,-40.0
1,lmh,f,23,r,2,(-172.20000000000002, 2.1088417881317425e-14),25,25,4,yes,x,5,x,0.4003892000000633,1,11,test2,1,0.40059500000006665,-20.0
1,lmh,f,23,r,2,(-121.76378772032348, 121.76378772032349),24,-7,13,no,m,6,m,0.9733277999994243,1,12,test2,1,0.9734908999998879,-20.0
1,lmh,f,23,r,2,(-3.163262682197613e-14, -172.20000000000002),27,7,3,yes,x,5,x,0.43698760000006587,1,13,test2,1,0.4371443999998519,-38.0
1,lmh,f,23,r,2,(121.76378772032346, -121.76378772032352),28,3,1,yes,x,5,x,1.1811092999996617,1,14,test2,1,1.1812746000005063,-42.0
1,lmh,f,23,r,2,(121.76378772032349, 121.76378772032349),22,-3,11,yes,x,5,x,0.913968400000158,1,15,test2,1,0.9143865999994887,-48.0
1,lmh,f,23,r,2,(-121.76378772032348, 121.76378772032349),24,-3,11,yes,x,5,m,1.0778080999998565,0,16,test2,1,1.0783129000001281,-48.0
1,lmh,f,23,r,2,(-3.163262682197613e-14, -172.20000000000002),27,-7,13,yes,x,5,x,0.3903854999998657,1,17,test2,1,0.39051459999973304,-52.0
1,lmh,f,23,r,2,(172.20000000000002, 0.0),21,25,4,no,m,6,m,0.5223490000007587,1,18,test2,1,0.5226896000003762,-52.0
1,lmh,f,23,r,2,(121.76378772032346, -121.76378772032352),28,25,4,yes,x,5,x,0.4076621000003797,1,19,test2,1,0.4078276999998707,-20.0
1,lmh,f,23,r,2,(121.76378772032346, -121.76378772032352),28,-3,11,yes,x,5,x,0.8036677999998574,1,20,test2,1,0.8039578999996593,-48.0
1,lmh,f,23,r,2,(121.76378772032349, 121.76378772032349),22,-3,11,no,m,6,m,1.4572302000005948,1,21,test2,1,1.457339100000354,-48.0
1,lmh,f,23,r,2,(-172.20000000000002, 2.1088417881317425e-14),25,7,3,yes,x,5,x,0.39794679999977234,1,22,test2,1,0.39805080000041926,-38.0
1,lmh,f,23,r,2,(-3.163262682197613e-14, -172.20000000000002),27,3,1,yes,x,5,m,1.213084699999854,0,23,test2,1,1.2133694999993168,-42.0
1,lmh,f,23,r,2,(-172.20000000000002, 2.1088417881317425e-14),25,-3,11,no,m,6,m,0.5940302999997584,1,24,test2,1,0.5944891000008283,-42.0
1,lmh,f,23,r,2,(1.0544208940658713e-14, 172.20000000000002),23,25,4,no,m,6,m,0.5494657999997798,1,25,test2,1,0.5495977000000494,-42.0
1,lmh,f,23,r,2,(-121.76378772032352, -121.76378772032348),26,7,3,yes,x,5,x,0.5740406000004441,1,26,test2,1,0.5742860999998811,-38.0
1,lmh,f,23,r,2,(-172.20000000000002, 2.1088417881317425e-14),25,5,2,no,m,6,m,0.5754642000001695,1,27,test2,1,0.5756525999995574,-38.0
1,lmh,f,23,r,2,(121.76378772032349, 121.76378772032349),22,-25,14,yes,x,5,x,0.40135259999988193,1,28,test2,1,0.40171900000041205,-70.0
1,lmh,f,23,r,2,(-121.76378772032352, -121.76378772032348),26,-25,14,yes,x,5,x,0.4420734999994238,1,29,test2,1,0.44221359999937704,-70.0
1,lmh,f,23,r,2,(-3.163262682197613e-14, -172.20000000000002),27,-5,12,yes,x,5,x,0.46941680000054475,1,30,test2,1,0.4696417000004658,-50.0
1,lmh,f,23,r,2,(-172.20000000000002, 2.1088417881317425e-14),25,-25,14,no,m,6,m,0.7680803000002925,1,31,test2,1,0.7686438000000635,-50.0
1,lmh,f,23,r,2,(1.0544208940658713e-14, 172.20000000000002),23,7,3,no,m,6,m,0.815366200000426,1,32,test2,1,0.8154933999994682,-50.0
1,lmh,f,23,r,2,(121.76378772032346, -121.76378772032352),28,3,1,no,m,6,m,0.5437806999998429,1,33,test2,1,0.543905900000027,-50.0
1,lmh,f,23,r,2,(172.20000000000002, 0.0),21,7,3,yes,x,5,x,0.987856699999611,1,34,test2,1,0.9881937999998627,-38.0
1,lmh,f,23,r,2,(-172.20000000000002, 2.1088417881317425e-14),25,3,1,no,m,6,m,1.0781214999997246,1,35,test2,1,1.0783535999999003,-38.0
1,lmh,f,23,r,2,(-3.163262682197613e-14, -172.20000000000002),27,25,4,yes,x,5,x,0.4338416000000507,1,36,test2,1,0.43394679999983055,-20.0
1,lmh,f,23,r,2,(121.76378772032346, -121.76378772032352),28,7,3,yes,x,5,x,0.5318290999994133,1,37,test2,1,0.5319782999995368,-38.0
1,lmh,f,23,r,2,(-121.76378772032348, 121.76378772032349),24,7,3,no,m,6,m,1.535595000000285,1,38,test2,1,1.5358786999995573,-38.0
1,lmh,f,23,r,2,(-172.20000000000002, 2.1088417881317425e-14),25,-7,13,no,m,6,m,0.6738161000002947,1,39,test2,1,0.6739575000001423,-38.0
1,lmh,f,23,r,2,(121.76378772032346, -121.76378772032352),28,-7,13,yes,x,5,x,0.5096709999997984,1,40,test2,1,0.5097728999999163,-52.0
1,lmh,f,23,r,2,(121.76378772032346, -121.76378772032352),28,-7,13,no,m,6,m,1.5716486000001169,1,41,test2,1,1.572002899999461,-52.0
1,lmh,f,23,r,2,(-121.76378772032348, 121.76378772032349),24,7,3,yes,x,5,x,0.48114840000016557,1,42,test2,1,0.4813446999996813,-38.0
1,lmh,f,23,r,2,(-172.20000000000002, 2.1088417881317425e-14),25,-7,13,yes,x,5,x,0.47828280000067025,1,43,test2,1,0.4785837999997966,-52.0
1,lmh,f,23,r,2,(172.20000000000002, 0.0),21,3,1,yes,x,5,x,1.6441626999994696,1,44,test2,1,1.6442622000004121,-42.0
1,lmh,f,23,r,2,(-121.76378772032352, -121.76378772032348),26,3,1,yes,x,5,x,1.738028900000245,1,45,test2,1,1.738604299999679,-42.0
1,lmh,f,23,r,2,(-121.76378772032352, -121.76378772032348),26,25,4,yes,x,5,x,0.38661299999967014,1,46,test2,1,0.38675139999941166,-20.0
1,lmh,f,23,r,2,(121.76378772032346, -121.76378772032352),28,-7,13,yes,x,5,x,0.525701200000185,1,47,test2,1,0.5258297999998831,-52.0
1,lmh,f,23,r,2,(121.76378772032349, 121.76378772032349),22,25,4,no,m,6,m,0.82705740000074,1,48,test2,1,0.8272895000000062,-52.0
1,lmh,f,23,r,2,(-121.76378772032348, 121.76378772032349),24,-5,12,yes,x,5,x,0.6314051999997901,1,49,test2,1,0.6316831999993155,-50.0
1,lmh,f,23,r,2,(-121.76378772032348, 121.76378772032349),24,-5,12,yes,x,5,x,0.508773999999903,1,50,test2,1,0.5090201999992132,-50.0
1,lmh,f,23,r,2,(121.76378772032349, 121.76378772032349),22,-5,12,no,m,6,m,1.0152048999998442,1,51,test2,1,1.0154376000000411,-50.0
1,lmh,f,23,r,2,(-121.76378772032352, -121.76378772032348),26,7,3,yes,x,5,x,0.40526820000013686,1,52,test2,1,0.40539410000019416,-38.0
1,lmh,f,23,r,2,(-172.20000000000002, 2.1088417881317425e-14),25,5,2,yes,x,5,x,0.41671820000010484,1,53,test2,1,0.4172376999995322,-40.0
1,lmh,f,23,r,2,(1.0544208940658713e-14, 172.20000000000002),23,-5,12,no,m,6,m,0.6105642000002263,1,54,test2,1,0.6108543999998801,-40.0
1,lmh,f,23,r,2,(1.0544208940658713e-14, 172.20000000000002),23,3,1,yes,x,5,m,0.9906405000001541,0,55,test2,1,0.9907436999992569,-42.0
1,lmh,f,23,r,2,(121.76378772032346, -121.76378772032352),28,7,3,no,m,6,m,0.6627334000004339,1,56,test2,1,0.6628713999998581,-42.0
1,lmh,f,23,r,2,(-172.20000000000002, 2.1088417881317425e-14),25,-5,12,yes,x,5,x,0.46331629999986035,1,57,test2,1,0.46344440000029863,-50.0
1,lmh,f,23,r,2,(121.76378772032346, -121.76378772032352),28,-25,14,yes,x,5,x,0.47870770000008633,1,58,test2,1,0.478867399999217,-70.0
1,lmh,f,23,r,2,(172.20000000000002, 0.0),21,-7,13,yes,x,5,x,0.47183859999950073,1,59,test2,1,0.4719383999999991,-52.0
1,lmh,f,23,r,2,(-121.76378772032348, 121.76378772032349),24,-7,13,yes,x,5,x,0.46372799999971903,1,60,test2,1,0.46383140000034473,-52.0
1,lmh,f,23,r,2,(121.76378772032349, 121.76378772032349),22,3,1,yes,x,5,x,0.5805153999999675,1,61,test2,1,0.5806861999999455,-42.0
1,lmh,f,23,r,2,(-121.76378772032348, 121.76378772032349),24,5,2,no,m,6,m,0.6831824000000779,1,62,test2,1,0.6833587000000989,-42.0
1,lmh,f,23,r,2,(-121.76378772032348, 121.76378772032349),24,25,4,yes,x,5,x,0.36530429999947955,1,63,test2,1,0.36540210000021034,-20.0
1,lmh,f,23,r,2,(-121.76378772032348, 121.76378772032349),24,-25,14,yes,x,5,x,0.42952559999957884,1,64,test2,1,0.4296494000000166,-70.0
1,lmh,f,23,r,2,(121.76378772032349, 121.76378772032349),22,3,1,no,m,6,m,1.4651218999997582,1,65,test2,1,1.4655322999997225,-70.0
1,lmh,f,23,r,2,(-3.163262682197613e-14, -172.20000000000002),27,25,4,yes,x,5,x,0.522262899999987,1,66,test2,1,0.5224723000001177,-20.0
1,lmh,f,23,r,2,(-172.20000000000002, 2.1088417881317425e-14),25,5,2,yes,x,5,x,0.7888619000004837,1,67,test2,1,0.7890064000002894,-40.0
1,lmh,f,23,r,2,(-121.76378772032352, -121.76378772032348),26,-7,13,yes,x,5,x,0.44176210000023275,1,68,test2,1,0.44200439999985974,-52.0
1,lmh,f,23,r,2,(121.76378772032349, 121.76378772032349),22,5,2,no,m,6,m,0.6592176000003747,1,69,test2,1,0.659338999999818,-52.0
1,lmh,f,23,r,2,(-121.76378772032352, -121.76378772032348),26,3,1,yes,x,5,x,0.6575487000000066,1,70,test2,1,0.6581831000003149,-42.0
1,lmh,f,23,r,2,(121.76378772032349, 121.76378772032349),22,7,3,yes,x,5,x,0.6600750000006883,1,71,test2,1,0.6602612999995472,-38.0
1,lmh,f,23,r,2,(-121.76378772032352, -121.76378772032348),26,25,4,yes,x,5,x,0.3991519999999582,1,72,test2,1,0.39926610000020446,-20.0
1,lmh,f,23,r,2,(121.76378772032346, -121.76378772032352),28,-3,11,no,m,6,m,1.1622567000003983,1,73,test2,1,1.162398100000246,-20.0
1,lmh,f,23,r,2,(172.20000000000002, 0.0),21,-3,11,yes,x,5,x,0.5623332000004666,1,74,test2,1,0.5624603999995088,-48.0
1,lmh,f,23,r,2,(-3.163262682197613e-14, -172.20000000000002),27,-25,14,yes,x,5,x,0.3970760000001974,1,75,test2,1,0.3973408000001655,-70.0
1,lmh,f,23,r,2,(121.76378772032349, 121.76378772032349),22,-7,13,no,m,6,m,1.2982738999999128,1,76,test2,1,1.2983950999996523,-70.0
1,lmh,f,23,r,2,(121.76378772032346, -121.76378772032352),28,-25,14,no,m,6,m,1.3174457000004622,1,77,test2,1,1.3179409000003943,-70.0
1,lmh,f,23,r,2,(-121.76378772032352, -121.76378772032348),26,5,2,no,m,6,m,0.6061022000003504,1,78,test2,1,0.6062320000000909,-70.0
1,lmh,f,23,r,2,(-172.20000000000002, 2.1088417881317425e-14),25,-25,14,yes,x,5,x,0.46077229999991687,1,79,test2,1,0.4609187000005477,-70.0
1,lmh,f,23,r,2,(1.0544208940658713e-14, 172.20000000000002),23,-5,12,yes,x,5,x,0.6524592000005214,1,80,test2,1,0.6526733000000604,-50.0
1,lmh,f,23,r,2,(121.76378772032349, 121.76378772032349),22,-5,12,yes,x,5,x,0.7731921000004149,1,81,test2,1,0.7735357999999906,-50.0
1,lmh,f,23,r,2,(172.20000000000002, 0.0),21,-7,13,yes,x,5,x,0.4212790000001405,1,82,test2,1,0.4215402999998332,-52.0
1,lmh,f,23,r,2,(121.76378772032346, -121.76378772032352),28,5,2,yes,x,5,x,0.5962493000006361,1,83,test2,1,0.5963800999998057,-40.0
1,lmh,f,23,r,2,(121.76378772032346, -121.76378772032352),28,-25,14,yes,x,5,x,0.3870151999999507,1,84,test2,1,0.38713300000017625,-70.0
1,lmh,f,23,r,2,(-121.76378772032352, -121.76378772032348),26,-3,11,yes,x,5,x,0.5427955000004658,1,85,test2,1,0.5431970999998157,-48.0
1,lmh,f,23,r,2,(-121.76378772032352, -121.76378772032348),26,-3,11,yes,x,5,x,0.5409118000006856,1,86,test2,1,0.5411174000000756,-48.0
1,lmh,f,23,r,2,(172.20000000000002, 0.0),21,25,4,yes,x,5,x,0.3811310000000958,1,87,test2,1,0.3812378999991779,-20.0
1,lmh,f,23,r,2,(-3.163262682197613e-14, -172.20000000000002),27,-3,11,yes,x,5,x,0.8085197000000335,1,88,test2,1,0.8086509999993723,-48.0
1,lmh,f,23,r,2,(172.20000000000002, 0.0),21,5,2,yes,x,5,x,0.5654930000000604,1,89,test2,1,0.5656202999998641,-40.0
1,lmh,f,23,r,2,(-121.76378772032348, 121.76378772032349),24,-3,11,yes,x,5,x,0.8925245000000359,1,90,test2,1,0.8927559999992809,-48.0
1,lmh,f,23,r,2,(-121.76378772032348, 121.76378772032349),24,-7,13,yes,x,5,x,0.3946547000005012,1,91,test2,1,0.3948289999998451,-52.0
1,lmh,f,23,r,2,(121.76378772032346, -121.76378772032352),28,7,3,yes,x,5,x,0.5202343999999357,1,92,test2,1,0.5205065999998624,-38.0
1,lmh,f,23,r,2,(1.0544208940658713e-14, 172.20000000000002),23,-25,14,no,m,6,m,0.8617157999997289,1,93,test2,1,0.8621908000004623,-38.0
1,lmh,f,23,r,2,(172.20000000000002, 0.0),21,5,2,yes,x,5,x,0.5280520000005708,1,94,test2,1,0.5281506999999692,-40.0
1,lmh,f,23,r,2,(-121.76378772032348, 121.76378772032349),24,5,2,yes,x,5,x,0.4532086999997773,1,95,test2,1,0.4533723000004102,-40.0
1,lmh,f,23,r,2,(1.0544208940658713e-14, 172.20000000000002),23,25,4,yes,x,5,x,0.3519426000002568,1,96,test2,1,0.35260229999948933,-20.0
1,lmh,f,23,r,2,(-172.20000000000002, 2.1088417881317425e-14),25,25,4,no,m,6,None,None,0,1,test1,2,1.9801016000001255,-20.0
1,lmh,f,23,r,2,(-172.20000000000002, 2.1088417881317425e-14),25,-25,14,yes,x,5,x,0.48801370000001043,1,2,test1,2,0.48828929999945103,-70.0
1,lmh,f,23,r,2,(-121.76378772032352, -121.76378772032348),26,-3,11,no,m,6,m,1.675436599999557,1,3,test1,2,1.675591500000337,-70.0
1,lmh,f,23,r,2,(1.0544208940658713e-14, 172.20000000000002),23,-3,11,no,m,6,x,0.46256460000040533,0,4,test1,2,0.46266360000026907,-70.0
1,lmh,f,23,r,2,(-121.76378772032348, 121.76378772032349),24,-5,12,no,m,6,m,1.1466663000001063,1,5,test1,2,1.1467839999995704,-70.0
1,lmh,f,23,r,2,(-3.163262682197613e-14, -172.20000000000002),27,-3,11,yes,x,5,x,0.5563263000003644,1,6,test1,2,0.556521900000007,-48.0
1,lmh,f,23,r,2,(-3.163262682197613e-14, -172.20000000000002),27,-7,13,no,m,6,x,0.5508866999998645,0,7,test1,2,0.5511880999993082,-48.0
1,lmh,f,23,r,2,(121.76378772032346, -121.76378772032352),28,5,2,yes,x,5,x,0.5877657000000909,1,8,test1,2,0.5881110999998782,-40.0
1,lmh,f,23,r,2,(1.0544208940658713e-14, 172.20000000000002),23,-3,11,yes,x,5,x,1.567605000000185,1,9,test1,2,1.567938199999844,-48.0
1,lmh,f,23,r,2,(-3.163262682197613e-14, -172.20000000000002),27,5,2,yes,x,5,x,0.48605120000047464,1,10,test1,2,0.48614770000040153,-40.0
1,lmh,f,23,r,2,(-121.76378772032352, -121.76378772032348),26,5,2,yes,x,5,x,0.5166300000000774,1,11,test1,2,0.5168678,-40.0
1,lmh,f,23,r,2,(172.20000000000002, 0.0),21,25,4,yes,x,5,x,0.33189709999987826,1,12,test1,2,0.33200980000037816,-20.0
1,lmh,f,23,r,2,(1.0544208940658713e-14, 172.20000000000002),23,-25,14,yes,x,5,x,0.3471368000000439,1,13,test1,2,0.34723229999963223,-70.0
1,lmh,f,23,r,2,(-121.76378772032348, 121.76378772032349),24,3,1,no,m,6,m,1.3083176000000094,1,14,test1,2,1.3084173999995983,-70.0
1,lmh,f,23,r,2,(-3.163262682197613e-14, -172.20000000000002),27,3,1,no,m,6,m,0.8130220000002737,1,15,test1,2,0.8133059000001595,-70.0
1,lmh,f,23,r,2,(1.0544208940658713e-14, 172.20000000000002),23,5,2,no,m,6,m,1.1580814999997529,1,16,test1,2,1.158282500000496,-70.0
1,lmh,f,23,r,2,(-121.76378772032348, 121.76378772032349),24,-3,11,no,m,6,m,0.6788450999993074,1,17,test1,2,0.6791670999991766,-70.0
1,lmh,f,23,r,2,(-121.76378772032348, 121.76378772032349),24,-25,14,yes,x,5,x,0.4830279999996492,1,18,test1,2,0.4834377000006498,-70.0
1,lmh,f,23,r,2,(-172.20000000000002, 2.1088417881317425e-14),25,-3,11,yes,x,5,x,1.2641703999997844,1,19,test1,2,1.2645627000001696,-48.0
1,lmh,f,23,r,2,(172.20000000000002, 0.0),21,7,3,yes,x,5,x,0.47249399999964226,1,20,test1,2,0.47259680000024673,-38.0
1,lmh,f,23,r,2,(121.76378772032349, 121.76378772032349),22,-25,14,yes,x,5,x,0.3908339999998134,1,21,test1,2,0.3909395000000586,-70.0
1,lmh,f,23,r,2,(-3.163262682197613e-14, -172.20000000000002),27,5,2,yes,x,5,x,0.6005116999995153,1,22,test1,2,0.6006667999999991,-40.0
1,lmh,f,23,r,2,(-121.76378772032348, 121.76378772032349),24,25,4,no,m,6,m,1.765633600000001,1,23,test1,2,1.7657725999997638,-40.0
1,lmh,f,23,r,2,(172.20000000000002, 0.0),21,-5,12,no,m,6,x,0.5757987999995748,0,24,test1,2,0.5760094999995999,-40.0
1,lmh,f,23,r,2,(1.0544208940658713e-14, 172.20000000000002),23,7,3,yes,x,5,x,0.4142263000003368,1,25,test1,2,0.4145464000002903,-38.0
1,lmh,f,23,r,2,(172.20000000000002, 0.0),21,-5,12,yes,x,5,x,0.48457630000029894,1,26,test1,2,0.48492329999953654,-50.0
1,lmh,f,23,r,2,(-3.163262682197613e-14, -172.20000000000002),27,-25,14,yes,x,5,x,0.4493454000003112,1,27,test1,2,0.4494931000008364,-70.0
1,lmh,f,23,r,2,(121.76378772032346, -121.76378772032352),28,-5,12,yes,x,5,x,0.515906300000097,1,28,test1,2,0.5160868000002665,-50.0
1,lmh,f,23,r,2,(-172.20000000000002, 2.1088417881317425e-14),25,-7,13,yes,x,5,x,0.41566279999915423,1,29,test1,2,0.41589810000004945,-52.0
1,lmh,f,23,r,2,(-121.76378772032348, 121.76378772032349),24,3,1,yes,x,5,x,0.9067500000001019,1,30,test1,2,0.9071232999995118,-42.0
1,lmh,f,23,r,2,(1.0544208940658713e-14, 172.20000000000002),23,-7,13,no,m,6,m,1.204785200000515,1,31,test1,2,1.204902100000254,-42.0
1,lmh,f,23,r,2,(172.20000000000002, 0.0),21,-3,11,no,m,6,m,0.7803835000004256,1,32,test1,2,0.7806189000002632,-42.0
1,lmh,f,23,r,2,(121.76378772032346, -121.76378772032352),28,25,4,no,m,6,m,0.6175531999997474,1,33,test1,2,0.6180559000003996,-42.0
1,lmh,f,23,r,2,(-121.76378772032348, 121.76378772032349),24,5,2,yes,x,5,x,0.5426444000004267,1,34,test1,2,0.5427684000005684,-40.0
1,lmh,f,23,r,2,(172.20000000000002, 0.0),21,-25,14,yes,x,5,x,0.35533569999915926,1,35,test1,2,0.35543500000039785,-70.0
1,lmh,f,23,r,2,(121.76378772032349, 121.76378772032349),22,5,2,yes,x,5,x,0.5952304000002187,1,36,test1,2,0.5953329000003578,-40.0
1,lmh,f,23,r,2,(1.0544208940658713e-14, 172.20000000000002),23,-25,14,yes,x,5,x,0.4005355999997846,1,37,test1,2,0.40066729999944073,-70.0
1,lmh,f,23,r,2,(-121.76378772032352, -121.76378772032348),26,-5,12,yes,x,5,x,0.5600866000004316,1,38,test1,2,0.5601854000005915,-50.0
1,lmh,f,23,r,2,(-172.20000000000002, 2.1088417881317425e-14),25,3,1,yes,x,5,x,0.538215599999603,1,39,test1,2,0.5384469000000536,-42.0
1,lmh,f,23,r,2,(-3.163262682197613e-14, -172.20000000000002),27,-5,12,no,m,6,m,1.546884699999282,1,40,test1,2,1.5469987000005858,-42.0
1,lmh,f,23,r,2,(1.0544208940658713e-14, 172.20000000000002),23,-7,13,yes,x,5,x,0.3925128999999288,1,41,test1,2,0.3926262000004499,-52.0
1,lmh,f,23,r,2,(1.0544208940658713e-14, 172.20000000000002),23,3,1,no,m,6,m,1.042975600000318,1,42,test1,2,1.043072200000097,-52.0
1,lmh,f,23,r,2,(121.76378772032346, -121.76378772032352),28,-3,11,yes,x,5,x,0.6788336999998137,1,43,test1,2,0.6790707999998631,-48.0
1,lmh,f,23,r,2,(-121.76378772032348, 121.76378772032349),24,3,1,yes,x,5,x,0.6374586000001727,1,44,test1,2,0.6378627000003689,-42.0
1,lmh,f,23,r,2,(1.0544208940658713e-14, 172.20000000000002),23,3,1,yes,x,5,x,0.6529886000007536,1,45,test1,2,0.6531182000007902,-42.0
1,lmh,f,23,r,2,(-121.76378772032352, -121.76378772032348),26,-7,13,yes,x,5,x,0.537173000000621,1,46,test1,2,0.5372729999999137,-52.0
1,lmh,f,23,r,2,(-3.163262682197613e-14, -172.20000000000002),27,3,1,yes,x,5,x,0.5482025999999678,1,47,test1,2,0.5484107000002041,-42.0
1,lmh,f,23,r,2,(121.76378772032346, -121.76378772032352),28,-5,12,yes,x,5,x,0.5370255999996516,1,48,test1,2,0.5373550000003888,-50.0
1,lmh,f,23,r,2,(-3.163262682197613e-14, -172.20000000000002),27,-5,12,yes,x,5,x,0.40467809999972815,1,49,test1,2,0.4056014000007053,-50.0
1,lmh,f,23,r,2,(-121.76378772032352, -121.76378772032348),26,5,2,yes,x,5,x,0.5538778999998613,1,50,test1,2,0.5541991999998572,-40.0
1,lmh,f,23,r,2,(172.20000000000002, 0.0),21,3,1,yes,x,5,m,0.866178299999774,0,51,test1,2,0.8665467999999237,-42.0
1,lmh,f,23,r,2,(-121.76378772032352, -121.76378772032348),26,-5,12,no,m,6,m,0.7848880999999892,1,52,test1,2,0.7850021000003835,-42.0
1,lmh,f,23,r,2,(-121.76378772032352, -121.76378772032348),26,-5,12,yes,x,5,x,0.41357549999975163,1,53,test1,2,0.4141626000000542,-50.0
1,lmh,f,23,r,2,(-172.20000000000002, 2.1088417881317425e-14),25,7,3,yes,x,5,x,0.46903259999999136,1,54,test1,2,0.4692310999998881,-38.0
1,lmh,f,23,r,2,(-3.163262682197613e-14, -172.20000000000002),27,7,3,yes,x,5,x,0.40862579999975424,1,55,test1,2,0.408866400000079,-38.0
1,lmh,f,23,r,2,(-3.163262682197613e-14, -172.20000000000002),27,-7,13,yes,x,5,x,0.4411413999996512,1,56,test1,2,0.44127339999977266,-52.0
1,lmh,f,23,r,2,(-172.20000000000002, 2.1088417881317425e-14),25,-3,11,yes,x,5,x,0.6293378999998822,1,57,test1,2,0.6296431999999186,-48.0
1,lmh,f,23,r,2,(-3.163262682197613e-14, -172.20000000000002),27,-3,11,no,m,6,m,0.7626143000006778,1,58,test1,2,0.7630263000000923,-48.0
1,lmh,f,23,r,2,(121.76378772032346, -121.76378772032352),28,25,4,yes,x,5,x,0.39100320000034117,1,59,test1,2,0.3914704000007987,-20.0
1,lmh,f,23,r,2,(-3.163262682197613e-14, -172.20000000000002),27,-25,14,no,m,6,m,0.7840348999998241,1,60,test1,2,0.7842240999998467,-20.0
1,lmh,f,23,r,2,(121.76378772032349, 121.76378772032349),22,-3,11,yes,x,5,x,1.0529022000000623,1,61,test1,2,1.053006899999673,-48.0
1,lmh,f,23,r,2,(-121.76378772032348, 121.76378772032349),24,25,4,yes,x,5,x,0.4273819000000003,1,62,test1,2,0.4274932999996963,-20.0
1,lmh,f,23,r,2,(1.0544208940658713e-14, 172.20000000000002),23,5,2,yes,x,5,x,0.4547221000002537,1,63,test1,2,0.45518189999984315,-40.0
1,lmh,f,23,r,2,(1.0544208940658713e-14, 172.20000000000002),23,-3,11,yes,x,5,x,0.7305010000000038,1,64,test1,2,0.7309845999998288,-48.0
1,lmh,f,23,r,2,(-3.163262682197613e-14, -172.20000000000002),27,5,2,no,m,6,m,0.7907769999992524,1,65,test1,2,0.7909436999998434,-48.0
1,lmh,f,23,r,2,(-3.163262682197613e-14, -172.20000000000002),27,7,3,no,m,6,m,0.9922894999999698,1,66,test1,2,0.9924159000001964,-48.0
1,lmh,f,23,r,2,(172.20000000000002, 0.0),21,7,3,no,m,6,m,1.0373632000000725,1,67,test1,2,1.0375402999998187,-48.0
1,lmh,f,23,r,2,(172.20000000000002, 0.0),21,5,2,no,m,6,m,0.6280259000004662,1,68,test1,2,0.6285267999992357,-48.0
1,lmh,f,23,r,2,(1.0544208940658713e-14, 172.20000000000002),23,-7,13,yes,x,5,x,0.6797993999998653,1,69,test1,2,0.6799261999994997,-52.0
1,lmh,f,23,r,2,(121.76378772032346, -121.76378772032352),28,5,2,no,m,6,m,0.9172342000001663,1,70,test1,2,0.9175419000002876,-52.0
1,lmh,f,23,r,2,(-172.20000000000002, 2.1088417881317425e-14),25,3,1,yes,x,5,x,1.4631030000000464,1,71,test1,2,1.4632539000003817,-42.0
1,lmh,f,23,r,2,(-121.76378772032352, -121.76378772032348),26,-7,13,no,m,6,m,0.7409732000005533,1,72,test1,2,0.7416001999999935,-42.0
1,lmh,f,23,r,2,(172.20000000000002, 0.0),21,-25,14,no,m,6,m,1.0556530000003477,1,73,test1,2,1.0561177999998108,-42.0
1,lmh,f,23,r,2,(-121.76378772032352, -121.76378772032348),26,-25,14,yes,x,5,x,0.393641600000592,1,74,test1,2,0.3938607999998567,-70.0
1,lmh,f,23,r,2,(-121.76378772032348, 121.76378772032349),24,7,3,yes,x,5,x,0.43758470000011584,1,75,test1,2,0.43796719999954803,-38.0
1,lmh,f,23,r,2,(1.0544208940658713e-14, 172.20000000000002),23,-5,12,yes,x,5,x,0.4257188000001406,1,76,test1,2,0.4264548000001014,-50.0
1,lmh,f,23,r,2,(121.76378772032346, -121.76378772032352),28,3,1,yes,x,5,m,1.591896099999758,0,77,test1,2,1.5920381999994788,-42.0
1,lmh,f,23,r,2,(-172.20000000000002, 2.1088417881317425e-14),25,25,4,yes,x,5,x,0.49943530000018654,1,78,test1,2,0.49953310000000783,-20.0
1,lmh,f,23,r,2,(-121.76378772032352, -121.76378772032348),26,-25,14,no,m,6,m,0.794677199999569,1,79,test1,2,0.795020100000329,-20.0
1,lmh,f,23,r,2,(121.76378772032349, 121.76378772032349),22,-5,12,yes,x,5,x,0.6290400999996564,1,80,test1,2,0.6291375999999218,-50.0
1,lmh,f,23,r,2,(172.20000000000002, 0.0),21,-7,13,no,m,6,m,0.9389741000004506,1,81,test1,2,0.939084499999808,-50.0
1,lmh,f,23,r,2,(-172.20000000000002, 2.1088417881317425e-14),25,-5,12,yes,x,5,x,0.38886030000048777,1,82,test1,2,0.38895939999929396,-50.0
1,lmh,f,23,r,2,(-3.163262682197613e-14, -172.20000000000002),27,25,4,no,m,6,m,0.6399786000001768,1,83,test1,2,0.6400716999996803,-50.0
1,lmh,f,23,r,2,(172.20000000000002, 0.0),21,3,1,no,m,6,m,0.6138490000003003,1,84,test1,2,0.6139498000002277,-50.0
1,lmh,f,23,r,2,(-121.76378772032352, -121.76378772032348),26,3,1,no,m,6,m,0.5575550000003204,1,85,test1,2,0.5577825000000303,-50.0
1,lmh,f,23,r,2,(121.76378772032349, 121.76378772032349),22,25,4,yes,x,5,x,0.4120033000008334,1,86,test1,2,0.41236659999958647,-20.0
1,lmh,f,23,r,2,(-172.20000000000002, 2.1088417881317425e-14),25,-5,12,no,m,6,m,1.0374907000004896,1,87,test1,2,1.0375936999998885,-20.0
1,lmh,f,23,r,2,(-121.76378772032352, -121.76378772032348),26,25,4,no,m,6,None,None,0,88,test1,2,1.9800817000004827,-20.0
1,lmh,f,23,r,2,(121.76378772032346, -121.76378772032352),28,-5,12,no,m,6,m,0.6977715999992142,1,89,test1,2,0.6982643999999709,-20.0
1,lmh,f,23,r,2,(172.20000000000002, 0.0),21,-3,11,yes,x,5,x,0.7409146999998484,1,90,test1,2,0.7413393000006181,-48.0
1,lmh,f,23,r,2,(121.76378772032349, 121.76378772032349),22,-25,14,no,m,6,m,0.5402378999997381,1,91,test1,2,0.5404861000006349,-48.0
1,lmh,f,23,r,2,(1.0544208940658713e-14, 172.20000000000002),23,25,4,yes,x,5,x,0.4012481999998272,1,92,test1,2,0.40139930000077584,-20.0
1,lmh,f,23,r,2,(121.76378772032349, 121.76378772032349),22,-7,13,yes,x,5,x,0.4753692000003866,1,93,test1,2,0.47567420000086713,-52.0
1,lmh,f,23,r,2,(121.76378772032349, 121.76378772032349),22,7,3,no,m,6,m,1.4927840999998807,1,94,test1,2,1.4929437999999209,-52.0
1,lmh,f,23,r,2,(121.76378772032349, 121.76378772032349),22,25,4,yes,x,5,x,0.38658310000027996,1,95,test1,2,0.3866794999994454,-20.0
1,lmh,f,23,r,2,(121.76378772032349, 121.76378772032349),22,7,3,yes,x,5,x,0.5859954000006837,1,96,test1,2,0.5861661999997523,-38.0
1,lmh,f,23,r,2,(172.20000000000002, 0.0),21,-25,14,yes,x,5,x,0.420108700000128,1,1,test2,2,0.42032840000047145,-70.0
1,lmh,f,23,r,2,(-172.20000000000002, 2.1088417881317425e-14),25,7,3,no,m,6,m,0.6238111000002391,1,2,test2,2,0.6241103000002113,-70.0
1,lmh,f,23,r,2,(1.0544208940658713e-14, 172.20000000000002),23,7,3,yes,x,5,x,0.4628421999996135,1,3,test2,2,0.46307899999919755,-38.0
1,lmh,f,23,r,2,(1.0544208940658713e-14, 172.20000000000002),23,5,2,yes,x,5,x,0.7517990999995163,1,4,test2,2,0.7520476999998209,-40.0
1,lmh,f,23,r,2,(121.76378772032349, 121.76378772032349),22,-7,13,yes,x,5,x,0.5799160000005941,1,5,test2,2,0.5801989000001413,-52.0
1,lmh,f,23,r,2,(-121.76378772032352, -121.76378772032348),26,7,3,no,m,6,x,0.5813743999997314,0,6,test2,2,0.5815056000001277,-52.0
1,lmh,f,23,r,2,(121.76378772032349, 121.76378772032349),22,3,1,yes,x,5,x,1.115893700000015,1,7,test2,2,1.116026000000602,-42.0
1,lmh,f,23,r,2,(-121.76378772032348, 121.76378772032349),24,-25,14,no,m,6,m,0.6155160999996951,1,8,test2,2,0.615745600000082,-42.0
1,lmh,f,23,r,2,(172.20000000000002, 0.0),21,-5,12,yes,x,5,x,0.511249900000621,1,9,test2,2,0.5113514000004216,-50.0
1,lmh,f,23,r,2,(121.76378772032349, 121.76378772032349),22,5,2,yes,x,5,x,0.6283894999996846,1,10,test2,2,0.6286313999999038,-40.0
1,lmh,f,23,r,2,(-172.20000000000002, 2.1088417881317425e-14),25,25,4,yes,x,5,x,0.38054290000036417,1,11,test2,2,0.3806689000002734,-20.0
1,lmh,f,23,r,2,(-121.76378772032348, 121.76378772032349),24,-7,13,no,m,6,m,1.7683867999994618,1,12,test2,2,1.7686563999995997,-20.0
1,lmh,f,23,r,2,(-3.163262682197613e-14, -172.20000000000002),27,7,3,yes,x,5,x,0.4069709999994302,1,13,test2,2,0.40707060000022466,-38.0
1,lmh,f,23,r,2,(121.76378772032346, -121.76378772032352),28,3,1,yes,x,5,m,0.6717024000008678,0,14,test2,2,0.6719443000001775,-42.0
1,lmh,f,23,r,2,(121.76378772032349, 121.76378772032349),22,-3,11,yes,x,5,x,0.49521809999987454,1,15,test2,2,0.49560310000015306,-48.0
1,lmh,f,23,r,2,(-121.76378772032348, 121.76378772032349),24,-3,11,yes,x,5,x,1.1043515999999727,1,16,test2,2,1.1046924000002036,-48.0
1,lmh,f,23,r,2,(-3.163262682197613e-14, -172.20000000000002),27,-7,13,yes,x,5,x,0.4676670999997441,1,17,test2,2,0.4679316000001563,-52.0
1,lmh,f,23,r,2,(172.20000000000002, 0.0),21,25,4,no,m,6,m,1.0558454000001802,1,18,test2,2,1.055944300000192,-52.0
1,lmh,f,23,r,2,(121.76378772032346, -121.76378772032352),28,25,4,yes,x,5,x,0.461187300000347,1,19,test2,2,0.46142820000022766,-20.0
1,lmh,f,23,r,2,(121.76378772032346, -121.76378772032352),28,-3,11,yes,x,5,x,0.9126565999995364,1,20,test2,2,0.9133185999999114,-48.0
1,lmh,f,23,r,2,(121.76378772032349, 121.76378772032349),22,-3,11,no,m,6,m,1.3190238999995927,1,21,test2,2,1.3191500000002634,-48.0
1,lmh,f,23,r,2,(-172.20000000000002, 2.1088417881317425e-14),25,7,3,yes,x,5,x,0.6735780999997587,1,22,test2,2,0.6738563999997496,-38.0
1,lmh,f,23,r,2,(-3.163262682197613e-14, -172.20000000000002),27,3,1,yes,x,5,x,0.7122188000003007,1,23,test2,2,0.7126078000001144,-42.0
1,lmh,f,23,r,2,(-172.20000000000002, 2.1088417881317425e-14),25,-3,11,no,m,6,x,0.6719969999994646,0,24,test2,2,0.6723528000002261,-42.0
1,lmh,f,23,r,2,(1.0544208940658713e-14, 172.20000000000002),23,25,4,no,m,6,m,0.6163905000003069,1,25,test2,2,0.6172341000001325,-42.0
1,lmh,f,23,r,2,(-121.76378772032352, -121.76378772032348),26,7,3,yes,x,5,x,0.3786262000003262,1,26,test2,2,0.378808399999798,-38.0
1,lmh,f,23,r,2,(-172.20000000000002, 2.1088417881317425e-14),25,5,2,no,m,6,m,1.1819517000003543,1,27,test2,2,1.1822339000000284,-38.0
1,lmh,f,23,r,2,(121.76378772032349, 121.76378772032349),22,-25,14,yes,x,5,x,0.4994872999996005,1,28,test2,2,0.4996555999996417,-70.0
1,lmh,f,23,r,2,(-121.76378772032352, -121.76378772032348),26,-25,14,yes,x,5,x,0.45234870000058436,1,29,test2,2,0.4524549999996452,-70.0
1,lmh,f,23,r,2,(-3.163262682197613e-14, -172.20000000000002),27,-5,12,yes,x,5,x,0.7995765000005122,1,30,test2,2,0.8002482000001692,-50.0
1,lmh,f,23,r,2,(-172.20000000000002, 2.1088417881317425e-14),25,-25,14,no,m,6,m,1.5137015000000247,1,31,test2,2,1.5138670999995156,-50.0
1,lmh,f,23,r,2,(1.0544208940658713e-14, 172.20000000000002),23,7,3,no,m,6,m,1.345846000000165,1,32,test2,2,1.3460834999996223,-50.0
1,lmh,f,23,r,2,(121.76378772032346, -121.76378772032352),28,3,1,no,m,6,m,1.0443859999995766,1,33,test2,2,1.0444865000008576,-50.0
1,lmh,f,23,r,2,(172.20000000000002, 0.0),21,7,3,yes,x,5,x,0.49897109999983513,1,34,test2,2,0.4990835999997216,-38.0
1,lmh,f,23,r,2,(-172.20000000000002, 2.1088417881317425e-14),25,3,1,no,m,6,m,1.5198980999994092,1,35,test2,2,1.5202333999986877,-38.0
1,lmh,f,23,r,2,(-3.163262682197613e-14, -172.20000000000002),27,25,4,yes,x,5,x,0.5489123999996082,1,36,test2,2,0.5492040999997698,-20.0
1,lmh,f,23,r,2,(121.76378772032346, -121.76378772032352),28,7,3,yes,x,5,x,0.4539219999987836,1,37,test2,2,0.4542037999999593,-38.0
1,lmh,f,23,r,2,(-121.76378772032348, 121.76378772032349),24,7,3,no,m,6,m,1.2263254999998026,1,38,test2,2,1.2264827999988483,-38.0
1,lmh,f,23,r,2,(-172.20000000000002, 2.1088417881317425e-14),25,-7,13,no,m,6,m,1.0263159999994969,1,39,test2,2,1.0265371999994386,-38.0
1,lmh,f,23,r,2,(121.76378772032346, -121.76378772032352),28,-7,13,yes,x,5,x,0.42989699999998265,1,40,test2,2,0.43006059999970603,-52.0
1,lmh,f,23,r,2,(121.76378772032346, -121.76378772032352),28,-7,13,no,m,6,m,1.140051799999128,1,41,test2,2,1.140157600000748,-52.0
1,lmh,f,23,r,2,(-121.76378772032348, 121.76378772032349),24,7,3,yes,x,5,None,None,0,42,test2,2,1.9800908000015625,-38.0
1,lmh,f,23,r,2,(-172.20000000000002, 2.1088417881317425e-14),25,-7,13,yes,x,5,x,0.4537244999992254,1,43,test2,2,0.4538244000013947,-52.0
1,lmh,f,23,r,2,(172.20000000000002, 0.0),21,3,1,yes,x,5,x,1.1770728999999847,1,44,test2,2,1.1775354000001244,-42.0
1,lmh,f,23,r,2,(-121.76378772032352, -121.76378772032348),26,3,1,yes,x,5,x,1.0632650999996258,1,45,test2,2,1.063771800001632,-42.0
1,lmh,f,23,r,2,(-121.76378772032352, -121.76378772032348),26,25,4,yes,x,5,x,1.225221099999544,1,46,test2,2,1.2253534000010404,-20.0
1,lmh,f,23,r,2,(121.76378772032346, -121.76378772032352),28,-7,13,yes,x,5,x,0.49448340000162716,1,47,test2,2,0.494585399999778,-52.0
1,lmh,f,23,r,2,(121.76378772032349, 121.76378772032349),22,25,4,no,m,6,m,0.8346423000002687,1,48,test2,2,0.8347416000015073,-52.0
1,lmh,f,23,r,2,(-121.76378772032348, 121.76378772032349),24,-5,12,yes,x,5,x,0.6791462999990472,1,49,test2,2,0.6796063000001595,-50.0
1,lmh,f,23,r,2,(-121.76378772032348, 121.76378772032349),24,-5,12,yes,x,5,x,0.45458160000089265,1,50,test2,2,0.4547121999985393,-50.0
1,lmh,f,23,r,2,(121.76378772032349, 121.76378772032349),22,-5,12,no,m,6,m,1.4384226000001945,1,51,test2,2,1.4386623999998847,-50.0
1,lmh,f,23,r,2,(-121.76378772032352, -121.76378772032348),26,7,3,yes,x,5,x,0.4440377000009903,1,52,test2,2,0.444391999999425,-38.0
1,lmh,f,23,r,2,(-172.20000000000002, 2.1088417881317425e-14),25,5,2,yes,x,5,x,0.45929489999980433,1,53,test2,2,0.4595757000006415,-40.0
1,lmh,f,23,r,2,(1.0544208940658713e-14, 172.20000000000002),23,-5,12,no,m,6,x,0.6356969999997091,0,54,test2,2,0.6359083000006649,-40.0
1,lmh,f,23,r,2,(1.0544208940658713e-14, 172.20000000000002),23,3,1,yes,x,5,m,1.3481297999987873,0,55,test2,2,1.3482586999998603,-42.0
1,lmh,f,23,r,2,(121.76378772032346, -121.76378772032352),28,7,3,no,m,6,m,1.1507774999990943,1,56,test2,2,1.1508751000001212,-42.0
1,lmh,f,23,r,2,(-172.20000000000002, 2.1088417881317425e-14),25,-5,12,yes,x,5,x,0.5994535000008909,1,57,test2,2,0.599690200000623,-50.0
1,lmh,f,23,r,2,(121.76378772032346, -121.76378772032352),28,-25,14,yes,x,5,x,0.39899250000053144,1,58,test2,2,0.39911989999927755,-70.0
1,lmh,f,23,r,2,(172.20000000000002, 0.0),21,-7,13,yes,x,5,x,0.4740612000005058,1,59,test2,2,0.47428880000006757,-52.0
1,lmh,f,23,r,2,(-121.76378772032348, 121.76378772032349),24,-7,13,yes,x,5,x,0.39029330000084883,1,60,test2,2,0.39057190000130504,-52.0
1,lmh,f,23,r,2,(121.76378772032349, 121.76378772032349),22,3,1,yes,x,5,x,0.920907999998235,1,61,test2,2,0.9210071999987122,-42.0
1,lmh,f,23,r,2,(-121.76378772032348, 121.76378772032349),24,5,2,no,m,6,m,1.1608015000001615,1,62,test2,2,1.1608983000005537,-42.0
1,lmh,f,23,r,2,(-121.76378772032348, 121.76378772032349),24,25,4,yes,x,5,x,0.3721544999989419,1,63,test2,2,0.3725059999997029,-20.0
1,lmh,f,23,r,2,(-121.76378772032348, 121.76378772032349),24,-25,14,yes,x,5,x,0.40987930000119377,1,64,test2,2,0.4103476000000228,-70.0
1,lmh,f,23,r,2,(121.76378772032349, 121.76378772032349),22,3,1,no,m,6,m,1.2521995999995852,1,65,test2,2,1.252303600000232,-70.0
1,lmh,f,23,r,2,(-3.163262682197613e-14, -172.20000000000002),27,25,4,yes,x,5,x,0.4337534999995114,1,66,test2,2,0.4339072999991913,-20.0
1,lmh,f,23,r,2,(-172.20000000000002, 2.1088417881317425e-14),25,5,2,yes,x,5,x,0.501618000000235,1,67,test2,2,0.5017165999997815,-40.0
1,lmh,f,23,r,2,(-121.76378772032352, -121.76378772032348),26,-7,13,yes,x,5,x,0.41875880000043253,1,68,test2,2,0.4188579000001482,-52.0
1,lmh,f,23,r,2,(121.76378772032349, 121.76378772032349),22,5,2,no,m,6,m,0.8336482000013348,1,69,test2,2,0.8339675999995961,-52.0
1,lmh,f,23,r,2,(-121.76378772032352, -121.76378772032348),26,3,1,yes,x,5,x,0.6620621000001847,1,70,test2,2,0.6624087000000145,-42.0
1,lmh,f,23,r,2,(121.76378772032349, 121.76378772032349),22,7,3,yes,x,5,x,0.7049584999986109,1,71,test2,2,0.7050519000003987,-38.0
1,lmh,f,23,r,2,(-121.76378772032352, -121.76378772032348),26,25,4,yes,x,5,x,0.4559028000003309,1,72,test2,2,0.4560044999998354,-20.0
1,lmh,f,23,r,2,(121.76378772032346, -121.76378772032352),28,-3,11,no,m,6,m,0.6988947999998345,1,73,test2,2,0.6990086999994674,-20.0
1,lmh,f,23,r,2,(172.20000000000002, 0.0),21,-3,11,yes,x,5,x,0.9396430999986478,1,74,test2,2,0.9398952999999892,-48.0
1,lmh,f,23,r,2,(-3.163262682197613e-14, -172.20000000000002),27,-25,14,yes,x,5,x,0.46374310000101104,1,75,test2,2,0.46396029999959865,-70.0
1,lmh,f,23,r,2,(121.76378772032349, 121.76378772032349),22,-7,13,no,m,6,None,None,0,76,test2,2,1.9800940999994054,-70.0
1,lmh,f,23,r,2,(121.76378772032346, -121.76378772032352),28,-25,14,no,m,6,m,0.9144403000009333,1,77,test2,2,0.9150102999992669,-70.0
1,lmh,f,23,r,2,(-121.76378772032352, -121.76378772032348),26,5,2,no,m,6,m,0.6441122999985964,1,78,test2,2,0.6442377999992459,-70.0
1,lmh,f,23,r,2,(-172.20000000000002, 2.1088417881317425e-14),25,-25,14,yes,x,5,x,0.3829258999994636,1,79,test2,2,0.3830259999995178,-70.0
1,lmh,f,23,r,2,(1.0544208940658713e-14, 172.20000000000002),23,-5,12,yes,x,5,x,0.6499886000001425,1,80,test2,2,0.650085900000704,-50.0
1,lmh,f,23,r,2,(121.76378772032349, 121.76378772032349),22,-5,12,yes,x,5,x,1.2051279000006616,1,81,test2,2,1.2054410000000644,-50.0
1,lmh,f,23,r,2,(172.20000000000002, 0.0),21,-7,13,yes,x,5,x,0.417654599999878,1,82,test2,2,0.41794709999885526,-52.0
1,lmh,f,23,r,2,(121.76378772032346, -121.76378772032352),28,5,2,yes,x,5,x,1.0295232000007672,1,83,test2,2,1.0297480000008363,-40.0
1,lmh,f,23,r,2,(121.76378772032346, -121.76378772032352),28,-25,14,yes,x,5,x,0.8696511999987706,1,84,test2,2,0.8701038999988668,-70.0
1,lmh,f,23,r,2,(-121.76378772032352, -121.76378772032348),26,-3,11,yes,x,5,x,0.8993331999990914,1,85,test2,2,0.8997063000006165,-48.0
1,lmh,f,23,r,2,(-121.76378772032352, -121.76378772032348),26,-3,11,yes,x,5,x,1.0468830000008893,1,86,test2,2,1.0471135000007052,-48.0
1,lmh,f,23,r,2,(172.20000000000002, 0.0),21,25,4,yes,x,5,x,0.7700636999998096,1,87,test2,2,0.7701875000002474,-20.0
1,lmh,f,23,r,2,(-3.163262682197613e-14, -172.20000000000002),27,-3,11,yes,x,5,x,0.8764193999995769,1,88,test2,2,0.8765185000011115,-48.0
1,lmh,f,23,r,2,(172.20000000000002, 0.0),21,5,2,yes,x,5,x,0.878793300000325,1,89,test2,2,0.8791242000006605,-40.0
1,lmh,f,23,r,2,(-121.76378772032348, 121.76378772032349),24,-3,11,yes,x,5,m,1.3779075000002194,0,90,test2,2,1.3780096999998932,-48.0
1,lmh,f,23,r,2,(-121.76378772032348, 121.76378772032349),24,-7,13,yes,x,5,x,0.4407357000000047,1,91,test2,2,0.4408604000000196,-52.0
1,lmh,f,23,r,2,(121.76378772032346, -121.76378772032352),28,7,3,yes,x,5,x,0.4317277999998623,1,92,test2,2,0.4326500999995915,-38.0
1,lmh,f,23,r,2,(1.0544208940658713e-14, 172.20000000000002),23,-25,14,no,m,6,m,0.8312214999987191,1,93,test2,2,0.8313760000000912,-38.0
1,lmh,f,23,r,2,(172.20000000000002, 0.0),21,5,2,yes,x,5,x,0.9779871000009734,1,94,test2,2,0.9780912999995053,-40.0
1,lmh,f,23,r,2,(-121.76378772032348, 121.76378772032349),24,5,2,yes,x,5,x,0.3932812000002741,1,95,test2,2,0.39338080000015907,-40.0
1,lmh,f,23,r,2,(1.0544208940658713e-14, 172.20000000000002),23,25,4,yes,x,5,x,0.477859399999943,1,96,test2,2,0.4780279000005976,-20.0
1,lmh,f,23,r,2,(-172.20000000000002, 2.1088417881317425e-14),25,25,4,no,m,6,m,0.7345783000000665,1,1,test1,3,0.7348149000008561,-20.0
1,lmh,f,23,r,2,(-172.20000000000002, 2.1088417881317425e-14),25,-25,14,yes,x,5,x,0.407010300001275,1,2,test1,3,0.40712379999968107,-70.0
1,lmh,f,23,r,2,(-121.76378772032352, -121.76378772032348),26,-3,11,no,m,6,m,1.4879344000000856,1,3,test1,3,1.4881674000007479,-70.0
1,lmh,f,23,r,2,(1.0544208940658713e-14, 172.20000000000002),23,-3,11,no,m,6,m,0.6759772000004887,1,4,test1,3,0.6760786000013468,-70.0
1,lmh,f,23,r,2,(-121.76378772032348, 121.76378772032349),24,-5,12,no,m,6,m,1.9566431999992346,1,5,test1,3,1.95677219999925,-70.0
1,lmh,f,23,r,2,(-3.163262682197613e-14, -172.20000000000002),27,-3,11,yes,x,5,x,0.9598772000008466,1,6,test1,3,0.9600296999997227,-48.0
1,lmh,f,23,r,2,(-3.163262682197613e-14, -172.20000000000002),27,-7,13,no,m,6,m,1.6553137000009883,1,7,test1,3,1.6554400000004534,-48.0
1,lmh,f,23,r,2,(121.76378772032346, -121.76378772032352),28,5,2,yes,x,5,x,0.5535079000001133,1,8,test1,3,0.5538053000000218,-40.0
1,lmh,f,23,r,2,(1.0544208940658713e-14, 172.20000000000002),23,-3,11,yes,x,5,x,0.8412919000002148,1,9,test1,3,0.8417012999998406,-48.0
1,lmh,f,23,r,2,(-3.163262682197613e-14, -172.20000000000002),27,5,2,yes,x,5,x,0.5357399000004079,1,10,test1,3,0.535926999998992,-40.0
1,lmh,f,23,r,2,(-121.76378772032352, -121.76378772032348),26,5,2,yes,x,5,x,0.9177177999990818,1,11,test1,3,0.9178566000009596,-40.0
1,lmh,f,23,r,2,(172.20000000000002, 0.0),21,25,4,yes,x,5,x,0.8705753000012919,1,12,test1,3,0.871450200000254,-20.0
1,lmh,f,23,r,2,(1.0544208940658713e-14, 172.20000000000002),23,-25,14,yes,x,5,x,0.4803650000012567,1,13,test1,3,0.4806289999996807,-70.0
1,lmh,f,23,r,2,(-121.76378772032348, 121.76378772032349),24,3,1,no,m,6,m,0.9735518999987107,1,14,test1,3,0.9738481999993382,-70.0
1,lmh,f,23,r,2,(-3.163262682197613e-14, -172.20000000000002),27,3,1,no,m,6,m,1.2801933999999164,1,15,test1,3,1.2802874999997584,-70.0
1,lmh,f,23,r,2,(1.0544208940658713e-14, 172.20000000000002),23,5,2,no,m,6,m,1.532211499999903,1,16,test1,3,1.5323441999989882,-70.0
1,lmh,f,23,r,2,(-121.76378772032348, 121.76378772032349),24,-3,11,no,m,6,m,1.1659536000006483,1,17,test1,3,1.1661636000008002,-70.0
1,lmh,f,23,r,2,(-121.76378772032348, 121.76378772032349),24,-25,14,yes,x,5,x,0.4040444000002026,1,18,test1,3,0.40429559999938647,-70.0
1,lmh,f,23,r,2,(-172.20000000000002, 2.1088417881317425e-14),25,-3,11,yes,x,5,m,1.0492379000006622,0,19,test1,3,1.0493382000004203,-48.0
1,lmh,f,23,r,2,(172.20000000000002, 0.0),21,7,3,yes,x,5,x,0.5963566999998875,1,20,test1,3,0.596663800000897,-38.0
1,lmh,f,23,r,2,(121.76378772032349, 121.76378772032349),22,-25,14,yes,x,5,x,0.48967460000130814,1,21,test1,3,0.4898183000004792,-70.0
1,lmh,f,23,r,2,(-3.163262682197613e-14, -172.20000000000002),27,5,2,yes,x,5,x,0.8885782999986986,1,22,test1,3,0.8890937999985908,-40.0
1,lmh,f,23,r,2,(-121.76378772032348, 121.76378772032349),24,25,4,no,m,6,m,0.7017018000005919,1,23,test1,3,0.7018005999998422,-40.0
1,lmh,f,23,r,2,(172.20000000000002, 0.0),21,-5,12,no,m,6,m,1.8205498999996053,1,24,test1,3,1.820807699999932,-40.0
1,lmh,f,23,r,2,(1.0544208940658713e-14, 172.20000000000002),23,7,3,yes,x,5,None,None,0,25,test1,3,1.980116500000804,-38.0
1,lmh,f,23,r,2,(172.20000000000002, 0.0),21,-5,12,yes,x,5,x,0.555260700000872,1,26,test1,3,0.5554403999994975,-50.0
1,lmh,f,23,r,2,(-3.163262682197613e-14, -172.20000000000002),27,-25,14,yes,x,5,x,0.38314619999982824,1,27,test1,3,0.38331290000132867,-70.0
1,lmh,f,23,r,2,(121.76378772032346, -121.76378772032352),28,-5,12,yes,x,5,x,0.492461199999525,1,28,test1,3,0.49279070000011416,-50.0
1,lmh,f,23,r,2,(-172.20000000000002, 2.1088417881317425e-14),25,-7,13,yes,x,5,x,0.49487149999913527,1,29,test1,3,0.49500280000029306,-52.0
1,lmh,f,23,r,2,(-121.76378772032348, 121.76378772032349),24,3,1,yes,x,5,x,0.9268262000005052,1,30,test1,3,0.9270605000001524,-42.0
1,lmh,f,23,r,2,(1.0544208940658713e-14, 172.20000000000002),23,-7,13,no,m,6,m,1.7352874000007432,1,31,test1,3,1.735526700000264,-42.0
1,lmh,f,23,r,2,(172.20000000000002, 0.0),21,-3,11,no,m,6,m,0.9543988999994326,1,32,test1,3,0.9545395000004646,-42.0
1,lmh,f,23,r,2,(121.76378772032346, -121.76378772032352),28,25,4,no,m,6,m,0.7014607000000979,1,33,test1,3,0.7015895999993518,-42.0
1,lmh,f,23,r,2,(-121.76378772032348, 121.76378772032349),24,5,2,yes,x,5,x,0.48963609999918845,1,34,test1,3,0.4898541999991721,-40.0
1,lmh,f,23,r,2,(172.20000000000002, 0.0),21,-25,14,yes,x,5,x,0.4173814999994647,1,35,test1,3,0.4174822999993921,-70.0
1,lmh,f,23,r,2,(121.76378772032349, 121.76378772032349),22,5,2,yes,x,5,x,0.6189075999991474,1,36,test1,3,0.6191338999997242,-40.0
1,lmh,f,23,r,2,(1.0544208940658713e-14, 172.20000000000002),23,-25,14,yes,x,5,x,0.417946599998686,1,37,test1,3,0.41826469999978144,-70.0
1,lmh,f,23,r,2,(-121.76378772032352, -121.76378772032348),26,-5,12,yes,x,5,x,0.4634174000002531,1,38,test1,3,0.4637036000003718,-50.0
1,lmh,f,23,r,2,(-172.20000000000002, 2.1088417881317425e-14),25,3,1,yes,x,5,x,0.4781494999988354,1,39,test1,3,0.4783382999994501,-42.0
1,lmh,f,23,r,2,(-3.163262682197613e-14, -172.20000000000002),27,-5,12,no,m,6,m,0.9767525999995996,1,40,test1,3,0.9772702000009303,-42.0
1,lmh,f,23,r,2,(1.0544208940658713e-14, 172.20000000000002),23,-7,13,yes,x,5,x,0.39669080000021495,1,41,test1,3,0.3969335999991017,-52.0
1,lmh,f,23,r,2,(1.0544208940658713e-14, 172.20000000000002),23,3,1,no,m,6,m,0.7595904999998311,1,42,test1,3,0.7597466999995959,-52.0
1,lmh,f,23,r,2,(121.76378772032346, -121.76378772032352),28,-3,11,yes,x,5,x,1.313763399999516,1,43,test1,3,1.3140015999997559,-48.0
1,lmh,f,23,r,2,(-121.76378772032348, 121.76378772032349),24,3,1,yes,x,5,x,0.5050028999994538,1,44,test1,3,0.505144200000359,-42.0
1,lmh,f,23,r,2,(1.0544208940658713e-14, 172.20000000000002),23,3,1,yes,x,5,x,0.8081868000008399,1,45,test1,3,0.8084236000013334,-42.0
1,lmh,f,23,r,2,(-121.76378772032352, -121.76378772032348),26,-7,13,yes,x,5,x,0.5318351999994775,1,46,test1,3,0.5320931999995082,-52.0
1,lmh,f,23,r,2,(-3.163262682197613e-14, -172.20000000000002),27,3,1,yes,x,5,x,0.9514118999995844,1,47,test1,3,0.9516325000004144,-42.0
1,lmh,f,23,r,2,(121.76378772032346, -121.76378772032352),28,-5,12,yes,x,5,x,0.6249144000012166,1,48,test1,3,0.6250350000009348,-50.0
1,lmh,f,23,r,2,(-3.163262682197613e-14, -172.20000000000002),27,-5,12,yes,x,5,x,0.4776406999990286,1,49,test1,3,0.47795330000008107,-50.0
1,lmh,f,23,r,2,(-121.76378772032352, -121.76378772032348),26,5,2,yes,x,5,x,0.7451449000000139,1,50,test1,3,0.7453680000016902,-40.0
1,lmh,f,23,r,2,(172.20000000000002, 0.0),21,3,1,yes,x,5,m,0.8088619000009203,0,51,test1,3,0.8092283000005409,-42.0
1,lmh,f,23,r,2,(-121.76378772032352, -121.76378772032348),26,-5,12,no,m,6,m,0.9887873999996373,1,52,test1,3,0.9888869000005798,-42.0
1,lmh,f,23,r,2,(-121.76378772032352, -121.76378772032348),26,-5,12,yes,x,5,x,0.5172684999997728,1,53,test1,3,0.5174160000005941,-50.0
1,lmh,f,23,r,2,(-172.20000000000002, 2.1088417881317425e-14),25,7,3,yes,x,5,x,0.5730416000005789,1,54,test1,3,0.5736336000009032,-38.0
1,lmh,f,23,r,2,(-3.163262682197613e-14, -172.20000000000002),27,7,3,yes,x,5,x,0.7511305000007269,1,55,test1,3,0.7514847999991616,-38.0
1,lmh,f,23,r,2,(-3.163262682197613e-14, -172.20000000000002),27,-7,13,yes,x,5,x,0.43029699999897275,1,56,test1,3,0.43075540000063484,-52.0
1,lmh,f,23,r,2,(-172.20000000000002, 2.1088417881317425e-14),25,-3,11,yes,x,5,x,1.1702781000003597,1,57,test1,3,1.1703768000006676,-48.0
1,lmh,f,23,r,2,(-3.163262682197613e-14, -172.20000000000002),27,-3,11,no,m,6,x,0.7384566000000632,0,58,test1,3,0.738946000001306,-48.0
1,lmh,f,23,r,2,(121.76378772032346, -121.76378772032352),28,25,4,yes,x,5,x,0.47736149999946065,1,59,test1,3,0.4780451999995421,-20.0
1,lmh,f,23,r,2,(-3.163262682197613e-14, -172.20000000000002),27,-25,14,no,m,6,None,None,0,60,test1,3,1.9801052000002528,-20.0
1,lmh,f,23,r,2,(121.76378772032349, 121.76378772032349),22,-3,11,yes,x,5,x,0.4368039000000863,1,61,test1,3,0.4369171999987884,-48.0
1,lmh,f,23,r,2,(-121.76378772032348, 121.76378772032349),24,25,4,yes,x,5,x,0.5244402999996964,1,62,test1,3,0.5247414999994362,-20.0
1,lmh,f,23,r,2,(1.0544208940658713e-14, 172.20000000000002),23,5,2,yes,x,5,x,0.636560400000235,1,63,test1,3,0.6366628000014316,-40.0
1,lmh,f,23,r,2,(1.0544208940658713e-14, 172.20000000000002),23,-3,11,yes,x,5,x,1.8177709999999934,1,64,test1,3,1.8186908999996376,-48.0
1,lmh,f,23,r,2,(-3.163262682197613e-14, -172.20000000000002),27,5,2,no,m,6,m,1.8583746000003885,1,65,test1,3,1.8584707000009075,-48.0
1,lmh,f,23,r,2,(-3.163262682197613e-14, -172.20000000000002),27,7,3,no,m,6,m,0.8683995999999752,1,66,test1,3,0.8685371000010491,-48.0
1,lmh,f,23,r,2,(172.20000000000002, 0.0),21,7,3,no,m,6,m,0.6566863999996713,1,67,test1,3,0.6568145000001095,-48.0
1,lmh,f,23,r,2,(172.20000000000002, 0.0),21,5,2,no,m,6,m,1.6666975999996794,1,68,test1,3,1.6669258999991143,-48.0
1,lmh,f,23,r,2,(1.0544208940658713e-14, 172.20000000000002),23,-7,13,yes,x,5,m,0.8918131999998877,0,69,test1,3,0.8919638999996096,-52.0
1,lmh,f,23,r,2,(121.76378772032346, -121.76378772032352),28,5,2,no,m,6,m,1.5461961000000883,1,70,test1,3,1.546431599999778,-52.0
1,lmh,f,23,r,2,(-172.20000000000002, 2.1088417881317425e-14),25,3,1,yes,x,5,m,0.9856283999997686,0,71,test1,3,0.9857310999996116,-42.0
1,lmh,f,23,r,2,(-121.76378772032352, -121.76378772032348),26,-7,13,no,m,6,m,0.7657156000004761,1,72,test1,3,0.7661110999997618,-42.0
1,lmh,f,23,r,2,(172.20000000000002, 0.0),21,-25,14,no,m,6,m,0.590697800000271,1,73,test1,3,0.5907954000012978,-42.0
1,lmh,f,23,r,2,(-121.76378772032352, -121.76378772032348),26,-25,14,yes,x,5,x,0.38026039999931527,1,74,test1,3,0.3803668000000471,-70.0
1,lmh,f,23,r,2,(-121.76378772032348, 121.76378772032349),24,7,3,yes,x,5,x,0.4819229999993695,1,75,test1,3,0.48204749999968044,-38.0
1,lmh,f,23,r,2,(1.0544208940658713e-14, 172.20000000000002),23,-5,12,yes,x,5,x,0.5237137000003713,1,76,test1,3,0.5239110000002256,-50.0
1,lmh,f,23,r,2,(121.76378772032346, -121.76378772032352),28,3,1,yes,x,5,m,1.2703782999997202,0,77,test1,3,1.270687899999757,-42.0
1,lmh,f,23,r,2,(-172.20000000000002, 2.1088417881317425e-14),25,25,4,yes,x,5,x,0.45484289999876637,1,78,test1,3,0.45510099999955855,-20.0
1,lmh,f,23,r,2,(-121.76378772032352, -121.76378772032348),26,-25,14,no,m,6,m,1.2425643000005948,1,79,test1,3,1.2429507999986527,-20.0
1,lmh,f,23,r,2,(121.76378772032349, 121.76378772032349),22,-5,12,yes,x,5,x,0.8739981999988231,1,80,test1,3,0.8743144999989454,-50.0
1,lmh,f,23,r,2,(172.20000000000002, 0.0),21,-7,13,no,m,6,m,1.2182118000000628,1,81,test1,3,1.2183140000015555,-50.0
1,lmh,f,23,r,2,(-172.20000000000002, 2.1088417881317425e-14),25,-5,12,yes,x,5,x,1.0383747999985644,1,82,test1,3,1.0386046999992686,-50.0
1,lmh,f,23,r,2,(-3.163262682197613e-14, -172.20000000000002),27,25,4,no,m,6,m,1.3293780000003608,1,83,test1,3,1.3294951999996556,-50.0
1,lmh,f,23,r,2,(172.20000000000002, 0.0),21,3,1,no,m,6,m,0.6264704999994137,1,84,test1,3,0.6265894000007393,-50.0
1,lmh,f,23,r,2,(-121.76378772032352, -121.76378772032348),26,3,1,no,m,6,x,0.5228485000006913,0,85,test1,3,0.5229481999995187,-50.0
1,lmh,f,23,r,2,(121.76378772032349, 121.76378772032349),22,25,4,yes,x,5,x,0.5814622000016243,1,86,test1,3,0.581742000000304,-20.0
1,lmh,f,23,r,2,(-172.20000000000002, 2.1088417881317425e-14),25,-5,12,no,m,6,m,0.7009144000003289,1,87,test1,3,0.7011349000003975,-20.0
1,lmh,f,23,r,2,(-121.76378772032352, -121.76378772032348),26,25,4,no,m,6,x,1.6360721999990346,0,88,test1,3,1.6363854999999603,-20.0
1,lmh,f,23,r,2,(121.76378772032346, -121.76378772032352),28,-5,12,no,m,6,m,0.6876389999997627,1,89,test1,3,0.6880896999991819,-20.0
1,lmh,f,23,r,2,(172.20000000000002, 0.0),21,-3,11,yes,x,5,m,1.631805400000303,0,90,test1,3,1.6320063000002847,-48.0
1,lmh,f,23,r,2,(121.76378772032349, 121.76378772032349),22,-25,14,no,m,6,m,0.8870753000010154,1,91,test1,3,0.8871770000005199,-48.0
1,lmh,f,23,r,2,(1.0544208940658713e-14, 172.20000000000002),23,25,4,yes,x,5,x,0.597044599999208,1,92,test1,3,0.5973164999995788,-20.0
1,lmh,f,23,r,2,(121.76378772032349, 121.76378772032349),22,-7,13,yes,x,5,x,1.132405899999867,1,93,test1,3,1.132727200001682,-52.0
1,lmh,f,23,r,2,(121.76378772032349, 121.76378772032349),22,7,3,no,m,6,m,0.7737777000002097,1,94,test1,3,0.7739093000000139,-52.0
1,lmh,f,23,r,2,(121.76378772032349, 121.76378772032349),22,25,4,yes,x,5,x,1.5497210000012274,1,95,test1,3,1.5498671999994258,-20.0
1,lmh,f,23,r,2,(121.76378772032349, 121.76378772032349),22,7,3,yes,x,5,None,None,0,96,test1,3,1.9802409000003536,-38.0
1,lmh,f,23,r,2,(172.20000000000002, 0.0),21,-25,14,yes,x,5,x,0.6814195999995718,1,1,test2,3,0.6815193000002182,-70.0
1,lmh,f,23,r,2,(-172.20000000000002, 2.1088417881317425e-14),25,7,3,no,m,6,m,1.0574074999985896,1,2,test2,3,1.0575107999993634,-70.0
1,lmh,f,23,r,2,(1.0544208940658713e-14, 172.20000000000002),23,7,3,yes,x,5,x,0.45862189999934344,1,3,test2,3,0.45908439999948314,-38.0
1,lmh,f,23,r,2,(1.0544208940658713e-14, 172.20000000000002),23,5,2,yes,x,5,x,0.3893244999999297,1,4,test2,3,0.3894239999990532,-40.0
1,lmh,f,23,r,2,(121.76378772032349, 121.76378772032349),22,-7,13,yes,x,5,x,0.4861330000003363,1,5,test2,3,0.4863815999997314,-52.0
1,lmh,f,23,r,2,(-121.76378772032352, -121.76378772032348),26,7,3,no,m,6,m,1.2693247999995947,1,6,test2,3,1.2695044000010967,-52.0
1,lmh,f,23,r,2,(121.76378772032349, 121.76378772032349),22,3,1,yes,x,5,x,0.6490610000000743,1,7,test2,3,0.649985199999719,-42.0
1,lmh,f,23,r,2,(-121.76378772032348, 121.76378772032349),24,-25,14,no,m,6,m,0.7627374999992753,1,8,test2,3,0.7628330999996251,-42.0
1,lmh,f,23,r,2,(172.20000000000002, 0.0),21,-5,12,yes,x,5,x,0.4568607000001066,1,9,test2,3,0.45707409999886295,-50.0
1,lmh,f,23,r,2,(121.76378772032349, 121.76378772032349),22,5,2,yes,x,5,x,0.569201799999064,1,10,test2,3,0.5697089999994205,-40.0
1,lmh,f,23,r,2,(-172.20000000000002, 2.1088417881317425e-14),25,25,4,yes,x,5,x,0.35355689999960305,1,11,test2,3,0.353714900000341,-20.0
1,lmh,f,23,r,2,(-121.76378772032348, 121.76378772032349),24,-7,13,no,m,6,m,0.810856000000058,1,12,test2,3,0.8109547000003658,-20.0
1,lmh,f,23,r,2,(-3.163262682197613e-14, -172.20000000000002),27,7,3,yes,x,5,x,0.39473069999985455,1,13,test2,3,0.3950544999988779,-38.0
1,lmh,f,23,r,2,(121.76378772032346, -121.76378772032352),28,3,1,yes,x,5,m,0.6428550000000541,0,14,test2,3,0.643165699999372,-42.0
1,lmh,f,23,r,2,(121.76378772032349, 121.76378772032349),22,-3,11,yes,x,5,x,0.44690260000061244,1,15,test2,3,0.44700060000104713,-48.0
1,lmh,f,23,r,2,(-121.76378772032348, 121.76378772032349),24,-3,11,yes,x,5,x,0.6268924000014522,1,16,test2,3,0.6269924999996874,-48.0
1,lmh,f,23,r,2,(-3.163262682197613e-14, -172.20000000000002),27,-7,13,yes,x,5,x,0.39711720000013884,1,17,test2,3,0.3972156999989238,-52.0
1,lmh,f,23,r,2,(172.20000000000002, 0.0),21,25,4,no,m,6,m,1.314939100000629,1,18,test2,3,1.3150382000003447,-52.0
1,lmh,f,23,r,2,(121.76378772032346, -121.76378772032352),28,25,4,yes,x,5,x,0.3958041999994748,1,19,test2,3,0.39608809999845107,-20.0
1,lmh,f,23,r,2,(121.76378772032346, -121.76378772032352),28,-3,11,yes,x,5,x,0.5620538999992277,1,20,test2,3,0.562215500000093,-48.0
1,lmh,f,23,r,2,(121.76378772032349, 121.76378772032349),22,-3,11,no,m,6,m,1.114200099998925,1,21,test2,3,1.1144318000006024,-48.0
1,lmh,f,23,r,2,(-172.20000000000002, 2.1088417881317425e-14),25,7,3,yes,x,5,x,0.41500859999905515,1,22,test2,3,0.4151112999988982,-38.0
1,lmh,f,23,r,2,(-3.163262682197613e-14, -172.20000000000002),27,3,1,yes,x,5,x,1.2767562999997608,1,23,test2,3,1.2769650999998703,-42.0
1,lmh,f,23,r,2,(-172.20000000000002, 2.1088417881317425e-14),25,-3,11,no,m,6,m,0.7500320999988617,1,24,test2,3,0.7503917000012734,-42.0
1,lmh,f,23,r,2,(1.0544208940658713e-14, 172.20000000000002),23,25,4,no,m,6,m,0.6344594000001962,1,25,test2,3,0.6347334000001865,-42.0
1,lmh,f,23,r,2,(-121.76378772032352, -121.76378772032348),26,7,3,yes,x,5,x,0.49110819999987143,1,26,test2,3,0.491236800000479,-38.0
1,lmh,f,23,r,2,(-172.20000000000002, 2.1088417881317425e-14),25,5,2,no,m,6,m,0.9386121999996249,1,27,test2,3,0.9387464000010368,-38.0
1,lmh,f,23,r,2,(121.76378772032349, 121.76378772032349),22,-25,14,yes,x,5,x,0.40384029999950144,1,28,test2,3,0.4039766000005329,-70.0
1,lmh,f,23,r,2,(-121.76378772032352, -121.76378772032348),26,-25,14,yes,x,5,x,0.3430193000003783,1,29,test2,3,0.3433106000011321,-70.0
1,lmh,f,23,r,2,(-3.163262682197613e-14, -172.20000000000002),27,-5,12,yes,x,5,x,0.47308889999840176,1,30,test2,3,0.47374719999970694,-50.0
1,lmh,f,23,r,2,(-172.20000000000002, 2.1088417881317425e-14),25,-25,14,no,m,6,m,1.4983885000001465,1,31,test2,3,1.4984848000003694,-50.0
1,lmh,f,23,r,2,(1.0544208940658713e-14, 172.20000000000002),23,7,3,no,m,6,m,0.7149364999986574,1,32,test2,3,0.7151692000006733,-50.0
1,lmh,f,23,r,2,(121.76378772032346, -121.76378772032352),28,3,1,no,m,6,x,0.6689981999988959,0,33,test2,3,0.6692193000017141,-50.0
1,lmh,f,23,r,2,(172.20000000000002, 0.0),21,7,3,yes,x,5,x,0.4473346999984642,1,34,test2,3,0.4475557999994635,-38.0
1,lmh,f,23,r,2,(-172.20000000000002, 2.1088417881317425e-14),25,3,1,no,m,6,m,1.4272314999998343,1,35,test2,3,1.4274681999995664,-38.0
1,lmh,f,23,r,2,(-3.163262682197613e-14, -172.20000000000002),27,25,4,yes,x,5,x,0.3780323999999382,1,36,test2,3,0.37825470000097994,-20.0
1,lmh,f,23,r,2,(121.76378772032346, -121.76378772032352),28,7,3,yes,x,5,x,0.5233291999993526,1,37,test2,3,0.5239762000001065,-38.0
1,lmh,f,23,r,2,(-121.76378772032348, 121.76378772032349),24,7,3,no,m,6,m,0.6510964999997668,1,38,test2,3,0.6512153000003309,-38.0
1,lmh,f,23,r,2,(-172.20000000000002, 2.1088417881317425e-14),25,-7,13,no,m,6,m,0.5289792000003217,1,39,test2,3,0.5293055000001914,-38.0
1,lmh,f,23,r,2,(121.76378772032346, -121.76378772032352),28,-7,13,yes,x,5,x,0.5035416999999143,1,40,test2,3,0.5039681000016571,-52.0
1,lmh,f,23,r,2,(121.76378772032346, -121.76378772032352),28,-7,13,no,m,6,m,0.8120209999997314,1,41,test2,3,0.8121979999996256,-52.0
1,lmh,f,23,r,2,(-121.76378772032348, 121.76378772032349),24,7,3,yes,x,5,x,0.5308232000006683,1,42,test2,3,0.5310914000001503,-38.0
1,lmh,f,23,r,2,(-172.20000000000002, 2.1088417881317425e-14),25,-7,13,yes,x,5,x,0.4305070999998861,1,43,test2,3,0.4306099000004906,-52.0
1,lmh,f,23,r,2,(172.20000000000002, 0.0),21,3,1,yes,x,5,x,0.9922219999989466,1,44,test2,3,0.9925060000005033,-42.0
1,lmh,f,23,r,2,(-121.76378772032352, -121.76378772032348),26,3,1,yes,x,5,x,0.6232371999994939,1,45,test2,3,0.6233381000001827,-42.0
1,lmh,f,23,r,2,(-121.76378772032352, -121.76378772032348),26,25,4,yes,x,5,x,0.3950362999985373,1,46,test2,3,0.39526699999987613,-20.0
1,lmh,f,23,r,2,(121.76378772032346, -121.76378772032352),28,-7,13,yes,x,5,x,0.48638039999968896,1,47,test2,3,0.4866834000004019,-52.0
1,lmh,f,23,r,2,(121.76378772032349, 121.76378772032349),22,25,4,no,m,6,m,1.5830480000004172,1,48,test2,3,1.5833511000000726,-52.0
1,lmh,f,23,r,2,(-121.76378772032348, 121.76378772032349),24,-5,12,yes,x,5,x,0.370870400000058,1,49,test2,3,0.37098860000151035,-50.0
1,lmh,f,23,r,2,(-121.76378772032348, 121.76378772032349),24,-5,12,yes,x,5,x,0.36656760000005306,1,50,test2,3,0.367282700000942,-50.0
1,lmh,f,23,r,2,(121.76378772032349, 121.76378772032349),22,-5,12,no,m,6,x,0.36044760000004317,0,51,test2,3,0.3606230000004871,-50.0
1,lmh,f,23,r,2,(-121.76378772032352, -121.76378772032348),26,7,3,yes,x,5,x,0.530338099999426,1,52,test2,3,0.5304565000005823,-38.0
1,lmh,f,23,r,2,(-172.20000000000002, 2.1088417881317425e-14),25,5,2,yes,x,5,x,0.42796160000034433,1,53,test2,3,0.4282753999996203,-40.0
1,lmh,f,23,r,2,(1.0544208940658713e-14, 172.20000000000002),23,-5,12,no,m,6,m,1.4013479000004736,1,54,test2,3,1.4016267000006337,-40.0
1,lmh,f,23,r,2,(1.0544208940658713e-14, 172.20000000000002),23,3,1,yes,x,5,x,0.7933979999997973,1,55,test2,3,0.7934944999997242,-42.0
1,lmh,f,23,r,2,(121.76378772032346, -121.76378772032352),28,7,3,no,m,6,m,1.7459363999987545,1,56,test2,3,1.746093200001269,-42.0
1,lmh,f,23,r,2,(-172.20000000000002, 2.1088417881317425e-14),25,-5,12,yes,x,5,x,0.4660511000001861,1,57,test2,3,0.4662797999990289,-50.0
1,lmh,f,23,r,2,(121.76378772032346, -121.76378772032352),28,-25,14,yes,x,5,x,0.4164611000014702,1,58,test2,3,0.41655920000084734,-70.0
1,lmh,f,23,r,2,(172.20000000000002, 0.0),21,-7,13,yes,x,5,x,0.4316232000001037,1,59,test2,3,0.4318957000014052,-52.0
1,lmh,f,23,r,2,(-121.76378772032348, 121.76378772032349),24,-7,13,yes,x,5,x,0.43733659999998054,1,60,test2,3,0.43763340000077733,-52.0
1,lmh,f,23,r,2,(121.76378772032349, 121.76378772032349),22,3,1,yes,x,5,m,1.445353699999032,0,61,test2,3,1.445507099999304,-42.0
1,lmh,f,23,r,2,(-121.76378772032348, 121.76378772032349),24,5,2,no,m,6,m,0.7591465000004973,1,62,test2,3,0.7594865000010032,-42.0
1,lmh,f,23,r,2,(-121.76378772032348, 121.76378772032349),24,25,4,yes,x,5,x,0.3553161999989243,1,63,test2,3,0.3557904999997845,-20.0
1,lmh,f,23,r,2,(-121.76378772032348, 121.76378772032349),24,-25,14,yes,x,5,x,0.3665760000003502,1,64,test2,3,0.36704509999981383,-70.0
1,lmh,f,23,r,2,(121.76378772032349, 121.76378772032349),22,3,1,no,m,6,m,0.714237399999547,1,65,test2,3,0.7143982000015967,-70.0
1,lmh,f,23,r,2,(-3.163262682197613e-14, -172.20000000000002),27,25,4,yes,x,5,x,0.35380309999891324,1,66,test2,3,0.35404580000067654,-20.0
1,lmh,f,23,r,2,(-172.20000000000002, 2.1088417881317425e-14),25,5,2,yes,x,5,m,0.9432395999992877,0,67,test2,3,0.9433697000004031,-40.0
1,lmh,f,23,r,2,(-121.76378772032352, -121.76378772032348),26,-7,13,yes,x,5,x,0.8694973000001482,1,68,test2,3,0.8698024000004807,-52.0
1,lmh,f,23,r,2,(121.76378772032349, 121.76378772032349),22,5,2,no,m,6,m,0.9375765000004321,1,69,test2,3,0.9378073999996559,-52.0
1,lmh,f,23,r,2,(-121.76378772032352, -121.76378772032348),26,3,1,yes,x,5,m,0.6543686000004527,0,70,test2,3,0.6549197999993339,-42.0
1,lmh,f,23,r,2,(121.76378772032349, 121.76378772032349),22,7,3,yes,x,5,x,0.8251846000002843,1,71,test2,3,0.8256204000008438,-38.0
1,lmh,f,23,r,2,(-121.76378772032352, -121.76378772032348),26,25,4,yes,x,5,x,0.3401145000007091,1,72,test2,3,0.34021479999864823,-20.0
1,lmh,f,23,r,2,(121.76378772032346, -121.76378772032352),28,-3,11,no,m,6,m,1.4076100000002043,1,73,test2,3,1.4077689999994618,-20.0
1,lmh,f,23,r,2,(172.20000000000002, 0.0),21,-3,11,yes,x,5,m,1.4296087999991869,0,74,test2,3,1.4297098000006372,-48.0
1,lmh,f,23,r,2,(-3.163262682197613e-14, -172.20000000000002),27,-25,14,yes,x,5,x,0.41151279999940016,1,75,test2,3,0.41171179999946617,-70.0
1,lmh,f,23,r,2,(121.76378772032349, 121.76378772032349),22,-7,13,no,m,6,m,0.6934007999989262,1,76,test2,3,0.6937546999997721,-70.0
1,lmh,f,23,r,2,(121.76378772032346, -121.76378772032352),28,-25,14,no,m,6,m,1.1138159000001906,1,77,test2,3,1.1139528000003338,-70.0
1,lmh,f,23,r,2,(-121.76378772032352, -121.76378772032348),26,5,2,no,m,6,m,0.6442842000014934,1,78,test2,3,0.6446367999997165,-70.0
1,lmh,f,23,r,2,(-172.20000000000002, 2.1088417881317425e-14),25,-25,14,yes,x,5,x,0.3775303000002168,1,79,test2,3,0.37765140000010433,-70.0
1,lmh,f,23,r,2,(1.0544208940658713e-14, 172.20000000000002),23,-5,12,yes,x,5,x,0.7923795000006066,1,80,test2,3,0.7926027000012255,-50.0
1,lmh,f,23,r,2,(121.76378772032349, 121.76378772032349),22,-5,12,yes,x,5,x,0.44618720000107714,1,81,test2,3,0.44632389999969746,-50.0
1,lmh,f,23,r,2,(172.20000000000002, 0.0),21,-7,13,yes,x,5,x,0.40532730000086303,1,82,test2,3,0.4057990000001155,-52.0
1,lmh,f,23,r,2,(121.76378772032346, -121.76378772032352),28,5,2,yes,x,5,x,0.8821208999997907,1,83,test2,3,0.8825713000005635,-40.0
1,lmh,f,23,r,2,(121.76378772032346, -121.76378772032352),28,-25,14,yes,x,5,x,0.39223329999913403,1,84,test2,3,0.3924532000000909,-70.0
1,lmh,f,23,r,2,(-121.76378772032352, -121.76378772032348),26,-3,11,yes,x,5,x,0.5231046000008064,1,85,test2,3,0.523202800000945,-48.0
1,lmh,f,23,r,2,(-121.76378772032352, -121.76378772032348),26,-3,11,yes,x,5,m,1.3789622000003874,0,86,test2,3,1.3790768999988359,-48.0
1,lmh,f,23,r,2,(172.20000000000002, 0.0),21,25,4,yes,x,5,x,0.36749109999982466,1,87,test2,3,0.36771069999849715,-20.0
1,lmh,f,23,r,2,(-3.163262682197613e-14, -172.20000000000002),27,-3,11,yes,x,5,x,0.9591897999998764,1,88,test2,3,0.9595048999999563,-48.0
1,lmh,f,23,r,2,(172.20000000000002, 0.0),21,5,2,yes,x,5,x,0.5509017999993375,1,89,test2,3,0.5511956999998802,-40.0
1,lmh,f,23,r,2,(-121.76378772032348, 121.76378772032349),24,-3,11,yes,x,5,m,0.752997099998538,0,90,test2,3,0.7531066999999894,-48.0
1,lmh,f,23,r,2,(-121.76378772032348, 121.76378772032349),24,-7,13,yes,x,5,x,0.3624641000005795,1,91,test2,3,0.3627615999994305,-52.0
1,lmh,f,23,r,2,(121.76378772032346, -121.76378772032352),28,7,3,yes,x,5,x,1.2239286999993055,1,92,test2,3,1.2241336000006413,-38.0
1,lmh,f,23,r,2,(1.0544208940658713e-14, 172.20000000000002),23,-25,14,no,m,6,m,1.0814521000011155,1,93,test2,3,1.0817901999998867,-38.0
1,lmh,f,23,r,2,(172.20000000000002, 0.0),21,5,2,yes,x,5,None,None,0,94,test2,3,1.980116500000804,-40.0
1,lmh,f,23,r,2,(-121.76378772032348, 121.76378772032349),24,5,2,yes,x,5,x,0.7594067999998515,1,95,test2,3,0.7595084000004135,-40.0
1,lmh,f,23,r,2,(1.0544208940658713e-14, 172.20000000000002),23,25,4,yes,x,5,x,0.41084069999851636,1,96,test2,3,0.41097350000018196,-20.0
1,lmh,f,23,r,2,(-172.20000000000002, 2.1088417881317425e-14),25,25,4,no,m,6,m,1.8911123999987467,1,1,test1,4,1.8915247000004456,-20.0
1,lmh,f,23,r,2,(-172.20000000000002, 2.1088417881317425e-14),25,-25,14,yes,x,5,x,0.39570180000009714,1,2,test1,4,0.3958295000011276,-70.0
1,lmh,f,23,r,2,(-121.76378772032352, -121.76378772032348),26,-3,11,no,m,6,m,1.3712345000003552,1,3,test1,4,1.3714624000003823,-70.0
1,lmh,f,23,r,2,(1.0544208940658713e-14, 172.20000000000002),23,-3,11,no,m,6,m,0.6799702999996953,1,4,test1,4,0.68006940000123,-70.0
1,lmh,f,23,r,2,(-121.76378772032348, 121.76378772032349),24,-5,12,no,m,6,m,0.5659472000006645,1,5,test1,4,0.5660719000006793,-70.0
1,lmh,f,23,r,2,(-3.163262682197613e-14, -172.20000000000002),27,-3,11,yes,x,5,x,0.752877199998693,1,6,test1,4,0.7529802999997628,-48.0
1,lmh,f,23,r,2,(-3.163262682197613e-14, -172.20000000000002),27,-7,13,no,m,6,m,0.5806265999999596,1,7,test1,4,0.5808608999996068,-48.0
1,lmh,f,23,r,2,(121.76378772032346, -121.76378772032352),28,5,2,yes,x,5,x,0.6281720999995741,1,8,test1,4,0.6288315000001603,-40.0
1,lmh,f,23,r,2,(1.0544208940658713e-14, 172.20000000000002),23,-3,11,yes,x,5,x,0.5600247000002128,1,9,test1,4,0.5604184000003443,-48.0
1,lmh,f,23,r,2,(-3.163262682197613e-14, -172.20000000000002),27,5,2,yes,x,5,x,0.498742100000527,1,10,test1,4,0.4988797000005434,-40.0
1,lmh,f,23,r,2,(-121.76378772032352, -121.76378772032348),26,5,2,yes,x,5,x,0.40615149999939604,1,11,test1,4,0.4066748000004736,-40.0
1,lmh,f,23,r,2,(172.20000000000002, 0.0),21,25,4,yes,x,5,x,0.38896720000047935,1,12,test1,4,0.38912619999973685,-20.0
1,lmh,f,23,r,2,(1.0544208940658713e-14, 172.20000000000002),23,-25,14,yes,x,5,x,0.39229080000040994,1,13,test1,4,0.39240869999957795,-70.0
1,lmh,f,23,r,2,(-121.76378772032348, 121.76378772032349),24,3,1,no,m,6,m,1.0702003000005789,1,14,test1,4,1.0704365000001417,-70.0
1,lmh,f,23,r,2,(-3.163262682197613e-14, -172.20000000000002),27,3,1,no,m,6,m,1.8604864999997517,1,15,test1,4,1.8608679999997548,-70.0
1,lmh,f,23,r,2,(1.0544208940658713e-14, 172.20000000000002),23,5,2,no,m,6,m,0.8487969000016165,1,16,test1,4,0.8489626999999018,-70.0
1,lmh,f,23,r,2,(-121.76378772032348, 121.76378772032349),24,-3,11,no,m,6,m,1.0279002000006585,1,17,test1,4,1.0280292999996163,-70.0
1,lmh,f,23,r,2,(-121.76378772032348, 121.76378772032349),24,-25,14,yes,x,5,x,0.8543410000002041,1,18,test1,4,0.8544949999995879,-70.0
1,lmh,f,23,r,2,(-172.20000000000002, 2.1088417881317425e-14),25,-3,11,yes,x,5,x,1.2572485999990022,1,19,test1,4,1.257486799999242,-48.0
1,lmh,f,23,r,2,(172.20000000000002, 0.0),21,7,3,yes,x,5,x,0.4246691999996983,1,20,test1,4,0.424956500000917,-38.0
1,lmh,f,23,r,2,(121.76378772032349, 121.76378772032349),22,-25,14,yes,x,5,x,0.4373789000001125,1,21,test1,4,0.43759359999967273,-70.0
1,lmh,f,23,r,2,(-3.163262682197613e-14, -172.20000000000002),27,5,2,yes,x,5,x,1.4096238999991328,1,22,test1,4,1.4098913000016182,-40.0
1,lmh,f,23,r,2,(-121.76378772032348, 121.76378772032349),24,25,4,no,m,6,m,1.2412370000001829,1,23,test1,4,1.2413390999990952,-40.0
1,lmh,f,23,r,2,(172.20000000000002, 0.0),21,-5,12,no,m,6,m,0.7402036999992561,1,24,test1,4,0.7403174999999464,-40.0
1,lmh,f,23,r,2,(1.0544208940658713e-14, 172.20000000000002),23,7,3,yes,x,5,x,0.3962327999997797,1,25,test1,4,0.3965698000010889,-38.0
1,lmh,f,23,r,2,(172.20000000000002, 0.0),21,-5,12,yes,x,5,x,0.5614224000000831,1,26,test1,4,0.5615637999999308,-50.0
1,lmh,f,23,r,2,(-3.163262682197613e-14, -172.20000000000002),27,-25,14,yes,x,5,x,0.35302390000106243,1,27,test1,4,0.35344220000115456,-70.0
1,lmh,f,23,r,2,(121.76378772032346, -121.76378772032352),28,-5,12,yes,x,5,x,0.5404835000008461,1,28,test1,4,0.5407168000001548,-50.0
1,lmh,f,23,r,2,(-172.20000000000002, 2.1088417881317425e-14),25,-7,13,yes,x,5,x,0.36467150000135007,1,29,test1,4,0.3647733999987395,-52.0
1,lmh,f,23,r,2,(-121.76378772032348, 121.76378772032349),24,3,1,yes,x,5,None,None,0,30,test1,4,1.9800814000009268,-42.0
1,lmh,f,23,r,2,(1.0544208940658713e-14, 172.20000000000002),23,-7,13,no,m,6,m,0.6435309000007692,1,31,test1,4,0.6437712999995711,-42.0
1,lmh,f,23,r,2,(172.20000000000002, 0.0),21,-3,11,no,m,6,m,0.5636505999991641,1,32,test1,4,0.5637507000010373,-42.0
1,lmh,f,23,r,2,(121.76378772032346, -121.76378772032352),28,25,4,no,m,6,m,0.5172939999993105,1,33,test1,4,0.5174155999993673,-42.0
1,lmh,f,23,r,2,(-121.76378772032348, 121.76378772032349),24,5,2,yes,x,5,x,0.5097931999989669,1,34,test1,4,0.5098900000011781,-40.0
1,lmh,f,23,r,2,(172.20000000000002, 0.0),21,-25,14,yes,x,5,x,0.4225393000015174,1,35,test1,4,0.42280050000044866,-70.0
1,lmh,f,23,r,2,(121.76378772032349, 121.76378772032349),22,5,2,yes,x,5,x,0.9901785999991262,1,36,test1,4,0.9903049000004103,-40.0
1,lmh,f,23,r,2,(1.0544208940658713e-14, 172.20000000000002),23,-25,14,yes,x,5,x,0.3459124000000884,1,37,test1,4,0.34607209999921906,-70.0
1,lmh,f,23,r,2,(-121.76378772032352, -121.76378772032348),26,-5,12,yes,x,5,x,0.3846118999990722,1,38,test1,4,0.3847404000007373,-50.0
1,lmh,f,23,r,2,(-172.20000000000002, 2.1088417881317425e-14),25,3,1,yes,x,5,x,0.5718993999998929,1,39,test1,4,0.5721204000001308,-42.0
1,lmh,f,23,r,2,(-3.163262682197613e-14, -172.20000000000002),27,-5,12,no,m,6,m,0.898570600000312,1,40,test1,4,0.8987233000007109,-42.0
1,lmh,f,23,r,2,(1.0544208940658713e-14, 172.20000000000002),23,-7,13,yes,x,5,x,0.4226747000011528,1,41,test1,4,0.4230264999987412,-52.0
1,lmh,f,23,r,2,(1.0544208940658713e-14, 172.20000000000002),23,3,1,no,m,6,m,0.7413479999995616,1,42,test1,4,0.7417611999990186,-52.0
1,lmh,f,23,r,2,(121.76378772032346, -121.76378772032352),28,-3,11,yes,x,5,x,1.4340018999992026,1,43,test1,4,1.4341311999996833,-48.0
1,lmh,f,23,r,2,(-121.76378772032348, 121.76378772032349),24,3,1,yes,x,5,x,0.706128699999681,1,44,test1,4,0.7067120000010618,-42.0
1,lmh,f,23,r,2,(1.0544208940658713e-14, 172.20000000000002),23,3,1,yes,x,5,m,1.7666356000008818,0,45,test1,4,1.7667507999994996,-42.0
1,lmh,f,23,r,2,(-121.76378772032352, -121.76378772032348),26,-7,13,yes,x,5,x,0.42592680000052496,1,46,test1,4,0.4262859999998909,-52.0
1,lmh,f,23,r,2,(-3.163262682197613e-14, -172.20000000000002),27,3,1,yes,x,5,x,0.6276966000004904,1,47,test1,4,0.6281668999999965,-42.0
1,lmh,f,23,r,2,(121.76378772032346, -121.76378772032352),28,-5,12,yes,x,5,x,0.39589969999906316,1,48,test1,4,0.396062300000267,-50.0
1,lmh,f,23,r,2,(-3.163262682197613e-14, -172.20000000000002),27,-5,12,yes,x,5,x,0.36316209999858984,1,49,test1,4,0.36329250000017055,-50.0
1,lmh,f,23,r,2,(-121.76378772032352, -121.76378772032348),26,5,2,yes,x,5,x,0.5981422000004386,1,50,test1,4,0.598240799999985,-40.0
1,lmh,f,23,r,2,(172.20000000000002, 0.0),21,3,1,yes,x,5,x,0.5612371000006533,1,51,test1,4,0.5614757999992435,-42.0
1,lmh,f,23,r,2,(-121.76378772032352, -121.76378772032348),26,-5,12,no,m,6,x,0.4415716000003158,0,52,test1,4,0.44188219999887224,-42.0
1,lmh,f,23,r,2,(-121.76378772032352, -121.76378772032348),26,-5,12,yes,x,5,x,0.3848326999996061,1,53,test1,4,0.38495030000012775,-50.0
1,lmh,f,23,r,2,(-172.20000000000002, 2.1088417881317425e-14),25,7,3,yes,x,5,x,0.4351651999986643,1,54,test1,4,0.4352670999996917,-38.0
1,lmh,f,23,r,2,(-3.163262682197613e-14, -172.20000000000002),27,7,3,yes,x,5,x,0.4645796999993763,1,55,test1,4,0.4649399000008998,-38.0
1,lmh,f,23,r,2,(-3.163262682197613e-14, -172.20000000000002),27,-7,13,yes,x,5,x,0.40382839999983844,1,56,test1,4,0.4039271000001463,-52.0
1,lmh,f,23,r,2,(-172.20000000000002, 2.1088417881317425e-14),25,-3,11,yes,x,5,x,0.5227881999999227,1,57,test1,4,0.523062199999913,-48.0
1,lmh,f,23,r,2,(-3.163262682197613e-14, -172.20000000000002),27,-3,11,no,m,6,x,0.5274246999997558,0,58,test1,4,0.5276606000006723,-48.0
1,lmh,f,23,r,2,(121.76378772032346, -121.76378772032352),28,25,4,yes,x,5,x,0.4329478999989078,1,59,test1,4,0.4332158999986859,-20.0
1,lmh,f,23,r,2,(-3.163262682197613e-14, -172.20000000000002),27,-25,14,no,m,6,x,0.389686200000142,0,60,test1,4,0.38994220000131463,-20.0
1,lmh,f,23,r,2,(121.76378772032349, 121.76378772032349),22,-3,11,yes,x,5,x,1.075829999999769,1,61,test1,4,1.0759397999991052,-48.0
1,lmh,f,23,r,2,(-121.76378772032348, 121.76378772032349),24,25,4,yes,x,5,x,0.4099968999998964,1,62,test1,4,0.41013200000088545,-20.0
1,lmh,f,23,r,2,(1.0544208940658713e-14, 172.20000000000002),23,5,2,yes,x,5,x,1.0005892000008316,1,63,test1,4,1.0007955000000948,-40.0
1,lmh,f,23,r,2,(1.0544208940658713e-14, 172.20000000000002),23,-3,11,yes,x,5,m,1.461877199999435,0,64,test1,4,1.4620032000002539,-48.0
1,lmh,f,23,r,2,(-3.163262682197613e-14, -172.20000000000002),27,5,2,no,m,6,m,1.2810317999992549,1,65,test1,4,1.2811457999996492,-48.0
1,lmh,f,23,r,2,(-3.163262682197613e-14, -172.20000000000002),27,7,3,no,m,6,m,0.6608543000002101,1,66,test1,4,0.6610163999994256,-48.0
1,lmh,f,23,r,2,(172.20000000000002, 0.0),21,7,3,no,m,6,m,1.0246557999998913,1,67,test1,4,1.0247571999989304,-48.0
1,lmh,f,23,r,2,(172.20000000000002, 0.0),21,5,2,no,m,6,m,0.530162000000928,1,68,test1,4,0.5303891000003205,-48.0
1,lmh,f,23,r,2,(1.0544208940658713e-14, 172.20000000000002),23,-7,13,yes,x,5,x,0.5096618999996281,1,69,test1,4,0.5098229000013816,-52.0
1,lmh,f,23,r,2,(121.76378772032346, -121.76378772032352),28,5,2,no,m,6,m,0.6275422999988223,1,70,test1,4,0.6277532000003703,-52.0
1,lmh,f,23,r,2,(-172.20000000000002, 2.1088417881317425e-14),25,3,1,yes,x,5,m,1.0410628999998153,0,71,test1,4,1.0412145999998756,-42.0
1,lmh,f,23,r,2,(-121.76378772032352, -121.76378772032348),26,-7,13,no,m,6,m,0.7787061999988509,1,72,test1,4,0.7788358999987395,-42.0
1,lmh,f,23,r,2,(172.20000000000002, 0.0),21,-25,14,no,m,6,m,0.7590600000003178,1,73,test1,4,0.7592894999997952,-42.0
1,lmh,f,23,r,2,(-121.76378772032352, -121.76378772032348),26,-25,14,yes,x,5,x,0.5637564000007842,1,74,test1,4,0.5638863000003767,-70.0
1,lmh,f,23,r,2,(-121.76378772032348, 121.76378772032349),24,7,3,yes,x,5,x,0.5076890000000276,1,75,test1,4,0.5079310999990412,-38.0
1,lmh,f,23,r,2,(1.0544208940658713e-14, 172.20000000000002),23,-5,12,yes,x,5,x,0.4910395000006247,1,76,test1,4,0.49114449999979115,-50.0
1,lmh,f,23,r,2,(121.76378772032346, -121.76378772032352),28,3,1,yes,x,5,m,1.3503709000015078,0,77,test1,4,1.3505230999999185,-42.0
1,lmh,f,23,r,2,(-172.20000000000002, 2.1088417881317425e-14),25,25,4,yes,x,5,x,0.3815436000004411,1,78,test1,4,0.38167450000037206,-20.0
1,lmh,f,23,r,2,(-121.76378772032352, -121.76378772032348),26,-25,14,no,m,6,m,1.669278999999733,1,79,test1,4,1.6694734000011522,-20.0
1,lmh,f,23,r,2,(121.76378772032349, 121.76378772032349),22,-5,12,yes,x,5,None,None,0,80,test1,4,1.9801008000013098,-50.0
1,lmh,f,23,r,2,(172.20000000000002, 0.0),21,-7,13,no,m,6,m,1.9067657999985386,1,81,test1,4,1.906932699999743,-50.0
1,lmh,f,23,r,2,(-172.20000000000002, 2.1088417881317425e-14),25,-5,12,yes,x,5,x,0.5126299999992625,1,82,test1,4,0.5127290000000357,-50.0
1,lmh,f,23,r,2,(-3.163262682197613e-14, -172.20000000000002),27,25,4,no,m,6,m,0.8854520999993838,1,83,test1,4,0.8857152000000497,-50.0
1,lmh,f,23,r,2,(172.20000000000002, 0.0),21,3,1,no,m,6,m,1.0193089000003965,1,84,test1,4,1.0195129999992787,-50.0
1,lmh,f,23,r,2,(-121.76378772032352, -121.76378772032348),26,3,1,no,m,6,x,1.614970099999482,0,85,test1,4,1.6150717999989865,-50.0
1,lmh,f,23,r,2,(121.76378772032349, 121.76378772032349),22,25,4,yes,x,5,x,0.6343110999987402,1,86,test1,4,0.6347287999997206,-20.0
1,lmh,f,23,r,2,(-172.20000000000002, 2.1088417881317425e-14),25,-5,12,no,m,6,m,1.1874444999994012,1,87,test1,4,1.1875786999989941,-20.0
1,lmh,f,23,r,2,(-121.76378772032352, -121.76378772032348),26,25,4,no,m,6,m,0.850957999999082,1,88,test1,4,0.8515630000001693,-20.0
1,lmh,f,23,r,2,(121.76378772032346, -121.76378772032352),28,-5,12,no,m,6,m,1.1684390000009444,1,89,test1,4,1.168557900000451,-20.0
1,lmh,f,23,r,2,(172.20000000000002, 0.0),21,-3,11,yes,x,5,x,0.7826076999990619,1,90,test1,4,0.7827073000007658,-48.0
1,lmh,f,23,r,2,(121.76378772032349, 121.76378772032349),22,-25,14,no,m,6,m,0.5557116999989375,1,91,test1,4,0.5558757999988302,-48.0
1,lmh,f,23,r,2,(1.0544208940658713e-14, 172.20000000000002),23,25,4,yes,x,5,x,1.7182881999997335,1,92,test1,4,1.718391899999915,-20.0
1,lmh,f,23,r,2,(121.76378772032349, 121.76378772032349),22,-7,13,yes,x,5,x,0.4149441999998089,1,93,test1,4,0.41505770000003395,-52.0
1,lmh,f,23,r,2,(121.76378772032349, 121.76378772032349),22,7,3,no,m,6,m,0.9534924999989016,1,94,test1,4,0.9540293999998539,-52.0
1,lmh,f,23,r,2,(121.76378772032349, 121.76378772032349),22,25,4,yes,x,5,x,1.4577040999993187,1,95,test1,4,1.4579407000001083,-20.0
1,lmh,f,23,r,2,(121.76378772032349, 121.76378772032349),22,7,3,yes,x,5,x,0.48338560000047437,1,96,test1,4,0.48361450000084005,-38.0
1,lmh,f,23,r,2,(172.20000000000002, 0.0),21,-25,14,yes,x,5,x,0.5129743000015878,1,1,test2,4,0.5133615000013378,-70.0
1,lmh,f,23,r,2,(-172.20000000000002, 2.1088417881317425e-14),25,7,3,no,m,6,m,0.7557950999998866,1,2,test2,4,0.7566007000004902,-70.0
1,lmh,f,23,r,2,(1.0544208940658713e-14, 172.20000000000002),23,7,3,yes,x,5,x,0.5495202000001882,1,3,test2,4,0.5499275000001944,-38.0
1,lmh,f,23,r,2,(1.0544208940658713e-14, 172.20000000000002),23,5,2,yes,x,5,x,0.6119058999993285,1,4,test2,4,0.6122906000000512,-40.0
1,lmh,f,23,r,2,(121.76378772032349, 121.76378772032349),22,-7,13,yes,x,5,x,0.384026100000483,1,5,test2,4,0.3844394999996439,-52.0
1,lmh,f,23,r,2,(-121.76378772032352, -121.76378772032348),26,7,3,no,m,6,m,0.6964398000000074,1,6,test2,4,0.6966705000013462,-52.0
1,lmh,f,23,r,2,(121.76378772032349, 121.76378772032349),22,3,1,yes,x,5,x,0.6664005999991787,1,7,test2,4,0.6665059999995719,-42.0
1,lmh,f,23,r,2,(-121.76378772032348, 121.76378772032349),24,-25,14,no,m,6,None,None,0,8,test2,4,1.9800850999999966,-42.0
1,lmh,f,23,r,2,(172.20000000000002, 0.0),21,-5,12,yes,x,5,x,0.40872719999970286,1,9,test2,4,0.4091071999991982,-50.0
1,lmh,f,23,r,2,(121.76378772032349, 121.76378772032349),22,5,2,yes,x,5,x,0.5348821999996289,1,10,test2,4,0.5350142000006599,-40.0
1,lmh,f,23,r,2,(-172.20000000000002, 2.1088417881317425e-14),25,25,4,yes,x,5,x,0.3692038000008324,1,11,test2,4,0.36933010000029753,-20.0
1,lmh,f,23,r,2,(-121.76378772032348, 121.76378772032349),24,-7,13,no,m,6,m,0.6103148000001966,1,12,test2,4,0.6106700000000274,-20.0
1,lmh,f,23,r,2,(-3.163262682197613e-14, -172.20000000000002),27,7,3,yes,x,5,x,0.5551503999995475,1,13,test2,4,0.5552523999995174,-38.0
1,lmh,f,23,r,2,(121.76378772032346, -121.76378772032352),28,3,1,yes,x,5,m,0.8013899999987188,0,14,test2,4,0.8014969999985624,-42.0
1,lmh,f,23,r,2,(121.76378772032349, 121.76378772032349),22,-3,11,yes,x,5,x,1.0280179000001226,1,15,test2,4,1.0286808000000747,-48.0
1,lmh,f,23,r,2,(-121.76378772032348, 121.76378772032349),24,-3,11,yes,x,5,m,0.6898026000017126,0,16,test2,4,0.6900261000009777,-48.0
1,lmh,f,23,r,2,(-3.163262682197613e-14, -172.20000000000002),27,-7,13,yes,x,5,x,0.4056237999993755,1,17,test2,4,0.40599420000035025,-52.0
1,lmh,f,23,r,2,(172.20000000000002, 0.0),21,25,4,no,m,6,m,1.1760215000012977,1,18,test2,4,1.1765221999994537,-52.0
1,lmh,f,23,r,2,(121.76378772032346, -121.76378772032352),28,25,4,yes,x,5,x,0.46394230000078096,1,19,test2,4,0.4642466000004788,-20.0
1,lmh,f,23,r,2,(121.76378772032346, -121.76378772032352),28,-3,11,yes,x,5,x,1.2202593000001798,1,20,test2,4,1.2203900999993493,-48.0
1,lmh,f,23,r,2,(121.76378772032349, 121.76378772032349),22,-3,11,no,m,6,m,1.4862618999995902,1,21,test2,4,1.4863934999993944,-48.0
1,lmh,f,23,r,2,(-172.20000000000002, 2.1088417881317425e-14),25,7,3,yes,x,5,x,0.5379379999994853,1,22,test2,4,0.5382934999997815,-38.0
1,lmh,f,23,r,2,(-3.163262682197613e-14, -172.20000000000002),27,3,1,yes,x,5,x,1.46191749999889,1,23,test2,4,1.462116299999252,-42.0
1,lmh,f,23,r,2,(-172.20000000000002, 2.1088417881317425e-14),25,-3,11,no,m,6,x,1.1456359999992856,0,24,test2,4,1.1458660999996937,-42.0
1,lmh,f,23,r,2,(1.0544208940658713e-14, 172.20000000000002),23,25,4,no,m,6,m,0.8332294000010734,1,25,test2,4,0.8334384000008868,-42.0
1,lmh,f,23,r,2,(-121.76378772032352, -121.76378772032348),26,7,3,yes,x,5,x,0.4437709999983781,1,26,test2,4,0.4440027000000555,-38.0
1,lmh,f,23,r,2,(-172.20000000000002, 2.1088417881317425e-14),25,5,2,no,m,6,None,None,0,27,test2,4,1.9800866999994469,-38.0
1,lmh,f,23,r,2,(121.76378772032349, 121.76378772032349),22,-25,14,yes,x,5,x,0.4592547000011109,1,28,test2,4,0.459475100000418,-70.0
1,lmh,f,23,r,2,(-121.76378772032352, -121.76378772032348),26,-25,14,yes,x,5,x,0.35870040000008885,1,29,test2,4,0.35891569999876083,-70.0
1,lmh,f,23,r,2,(-3.163262682197613e-14, -172.20000000000002),27,-5,12,yes,x,5,x,0.5567375000009633,1,30,test2,4,0.55683880000106,-50.0
1,lmh,f,23,r,2,(-172.20000000000002, 2.1088417881317425e-14),25,-25,14,no,m,6,m,1.1514031999995495,1,31,test2,4,1.151662000000215,-50.0
1,lmh,f,23,r,2,(1.0544208940658713e-14, 172.20000000000002),23,7,3,no,m,6,m,0.8934721000005084,1,32,test2,4,0.8936341999997239,-50.0
1,lmh,f,23,r,2,(121.76378772032346, -121.76378772032352),28,3,1,no,m,6,m,0.5676640000001498,1,33,test2,4,0.5677663999995275,-50.0
1,lmh,f,23,r,2,(172.20000000000002, 0.0),21,7,3,yes,x,5,x,0.46865950000028533,1,34,test2,4,0.46882320000077016,-38.0
1,lmh,f,23,r,2,(-172.20000000000002, 2.1088417881317425e-14),25,3,1,no,m,6,m,0.6421797999992123,1,35,test2,4,0.6422784999995201,-38.0
1,lmh,f,23,r,2,(-3.163262682197613e-14, -172.20000000000002),27,25,4,yes,x,5,x,0.35299920000034035,1,36,test2,4,0.3532320999984222,-20.0
1,lmh,f,23,r,2,(121.76378772032346, -121.76378772032352),28,7,3,yes,x,5,x,0.7049766000000091,1,37,test2,4,0.705201599999782,-38.0
1,lmh,f,23,r,2,(-121.76378772032348, 121.76378772032349),24,7,3,no,m,6,m,0.7191115999994508,1,38,test2,4,0.7195716999995057,-38.0
1,lmh,f,23,r,2,(-172.20000000000002, 2.1088417881317425e-14),25,-7,13,no,m,6,m,0.9126728999999614,1,39,test2,4,0.9127792999988742,-38.0
1,lmh,f,23,r,2,(121.76378772032346, -121.76378772032352),28,-7,13,yes,x,5,x,1.083017099999779,1,40,test2,4,1.08314049999899,-52.0
1,lmh,f,23,r,2,(121.76378772032346, -121.76378772032352),28,-7,13,no,m,6,m,1.1248102000008657,1,41,test2,4,1.1250963999991654,-52.0
1,lmh,f,23,r,2,(-121.76378772032348, 121.76378772032349),24,7,3,yes,x,5,x,0.3938502000000881,1,42,test2,4,0.3941047000007529,-38.0
1,lmh,f,23,r,2,(-172.20000000000002, 2.1088417881317425e-14),25,-7,13,yes,x,5,x,0.35917369999879156,1,43,test2,4,0.35930890000054205,-52.0
1,lmh,f,23,r,2,(172.20000000000002, 0.0),21,3,1,yes,x,5,m,0.9496942999994644,0,44,test2,4,0.9499199000001681,-42.0
1,lmh,f,23,r,2,(-121.76378772032352, -121.76378772032348),26,3,1,yes,x,5,m,0.6934457999996084,0,45,test2,4,0.693546200000128,-42.0
1,lmh,f,23,r,2,(-121.76378772032352, -121.76378772032348),26,25,4,yes,x,5,x,0.41627019999941695,1,46,test2,4,0.4164204000007885,-20.0
1,lmh,f,23,r,2,(121.76378772032346, -121.76378772032352),28,-7,13,yes,x,5,x,0.6183001999997941,1,47,test2,4,0.6185992999999144,-52.0
1,lmh,f,23,r,2,(121.76378772032349, 121.76378772032349),22,25,4,no,m,6,m,1.2422368000006827,1,48,test2,4,1.2423705999990489,-52.0
1,lmh,f,23,r,2,(-121.76378772032348, 121.76378772032349),24,-5,12,yes,x,5,x,0.4537734999994427,1,49,test2,4,0.45405899999968824,-50.0
1,lmh,f,23,r,2,(-121.76378772032348, 121.76378772032349),24,-5,12,yes,x,5,x,0.5517388999996911,1,50,test2,4,0.5520298999999795,-50.0
1,lmh,f,23,r,2,(121.76378772032349, 121.76378772032349),22,-5,12,no,m,6,m,0.9528964000000997,1,51,test2,4,0.9530562999989343,-50.0
1,lmh,f,23,r,2,(-121.76378772032352, -121.76378772032348),26,7,3,yes,x,5,x,0.3623552999997628,1,52,test2,4,0.3626307000013185,-38.0
1,lmh,f,23,r,2,(-172.20000000000002, 2.1088417881317425e-14),25,5,2,yes,x,5,x,0.41724450000037905,1,53,test2,4,0.41740980000031414,-40.0
1,lmh,f,23,r,2,(1.0544208940658713e-14, 172.20000000000002),23,-5,12,no,m,6,m,0.7042224000015267,1,54,test2,4,0.7044433000010031,-40.0
1,lmh,f,23,r,2,(1.0544208940658713e-14, 172.20000000000002),23,3,1,yes,x,5,m,0.9392905000004248,0,55,test2,4,0.9393913000003522,-42.0
1,lmh,f,23,r,2,(121.76378772032346, -121.76378772032352),28,7,3,no,m,6,m,0.910902099998566,1,56,test2,4,0.911017800000991,-42.0
1,lmh,f,23,r,2,(-172.20000000000002, 2.1088417881317425e-14),25,-5,12,yes,x,5,x,1.1295286000004126,1,57,test2,4,1.1301655999996,-50.0
1,lmh,f,23,r,2,(121.76378772032346, -121.76378772032352),28,-25,14,yes,x,5,x,0.4446625000000495,1,58,test2,4,0.4449918999998772,-70.0
1,lmh,f,23,r,2,(172.20000000000002, 0.0),21,-7,13,yes,x,5,x,1.1694290000014007,1,59,test2,4,1.1696014999997715,-52.0
1,lmh,f,23,r,2,(-121.76378772032348, 121.76378772032349),24,-7,13,yes,x,5,None,None,0,60,test2,4,1.980128799999875,-52.0
1,lmh,f,23,r,2,(121.76378772032349, 121.76378772032349),22,3,1,yes,x,5,m,0.6010526000009122,0,61,test2,4,0.601267199999711,-42.0
1,lmh,f,23,r,2,(-121.76378772032348, 121.76378772032349),24,5,2,no,m,6,m,0.6177606000001106,1,62,test2,4,0.6179252000001725,-42.0
1,lmh,f,23,r,2,(-121.76378772032348, 121.76378772032349),24,25,4,yes,x,5,x,0.41941359999873384,1,63,test2,4,0.41950680000081775,-20.0
1,lmh,f,23,r,2,(-121.76378772032348, 121.76378772032349),24,-25,14,yes,x,5,x,0.39681949999976496,1,64,test2,4,0.39698300000054587,-70.0
1,lmh,f,23,r,2,(121.76378772032349, 121.76378772032349),22,3,1,no,m,6,m,0.6830329000003985,1,65,test2,4,0.6833765999999741,-70.0
1,lmh,f,23,r,2,(-3.163262682197613e-14, -172.20000000000002),27,25,4,yes,x,5,x,0.39385679999941203,1,66,test2,4,0.39398269999946933,-20.0
1,lmh,f,23,r,2,(-172.20000000000002, 2.1088417881317425e-14),25,5,2,yes,x,5,x,0.4848646999998891,1,67,test2,4,0.48500069999863626,-40.0
1,lmh,f,23,r,2,(-121.76378772032352, -121.76378772032348),26,-7,13,yes,x,5,x,0.45048029999998107,1,68,test2,4,0.4507906999988336,-52.0
1,lmh,f,23,r,2,(121.76378772032349, 121.76378772032349),22,5,2,no,m,6,m,0.6772050999989006,1,69,test2,4,0.6774243999989267,-52.0
1,lmh,f,23,r,2,(-121.76378772032352, -121.76378772032348),26,3,1,yes,x,5,m,0.8162909000002401,0,70,test2,4,0.8164553000005981,-42.0
1,lmh,f,23,r,2,(121.76378772032349, 121.76378772032349),22,7,3,yes,x,5,x,0.4754876000006334,1,71,test2,4,0.4755875000009837,-38.0
1,lmh,f,23,r,2,(-121.76378772032352, -121.76378772032348),26,25,4,yes,x,5,x,0.3773197999998956,1,72,test2,4,0.37755809999907797,-20.0
1,lmh,f,23,r,2,(121.76378772032346, -121.76378772032352),28,-3,11,no,m,6,m,0.9126127999988967,1,73,test2,4,0.9127282000008563,-20.0
1,lmh,f,23,r,2,(172.20000000000002, 0.0),21,-3,11,yes,x,5,x,0.5163630999995803,1,74,test2,4,0.5167541000009805,-48.0
1,lmh,f,23,r,2,(-3.163262682197613e-14, -172.20000000000002),27,-25,14,yes,x,5,x,0.35031979999985197,1,75,test2,4,0.3504436999992322,-70.0
1,lmh,f,23,r,2,(121.76378772032349, 121.76378772032349),22,-7,13,no,m,6,m,1.226373000001331,1,76,test2,4,1.2264764999999898,-70.0
1,lmh,f,23,r,2,(121.76378772032346, -121.76378772032352),28,-25,14,no,m,6,m,1.041933100001188,1,77,test2,4,1.0420429000005242,-70.0
1,lmh,f,23,r,2,(-121.76378772032352, -121.76378772032348),26,5,2,no,m,6,m,1.435254800000621,1,78,test2,4,1.4353556999994908,-70.0
1,lmh,f,23,r,2,(-172.20000000000002, 2.1088417881317425e-14),25,-25,14,yes,x,5,x,0.7183122999995248,1,79,test2,4,0.7185458999992989,-70.0
1,lmh,f,23,r,2,(1.0544208940658713e-14, 172.20000000000002),23,-5,12,yes,x,5,x,0.6384646000005887,1,80,test2,4,0.6385795999995025,-50.0
1,lmh,f,23,r,2,(121.76378772032349, 121.76378772032349),22,-5,12,yes,x,5,x,1.132639299999937,1,81,test2,4,1.132869600000049,-50.0
1,lmh,f,23,r,2,(172.20000000000002, 0.0),21,-7,13,yes,x,5,x,0.47775670000009995,1,82,test2,4,0.4781652000001486,-52.0
1,lmh,f,23,r,2,(121.76378772032346, -121.76378772032352),28,5,2,yes,x,5,x,0.5730566000002,1,83,test2,4,0.5732886000005237,-40.0
