subj_id,subj_name,subj_gender ,subj_age,subj_handedness,subj_runNum,tar_l_x,tar_l_y,loc_code,tar_ori,tar_code,tar_pre ,cor_response,pre_code,subj_response,RT,correct,trial_num,type,bloc_num,dur, real_tar
20,jq,f,19,r,1,(121.76378772032346, -121.76378772032352),28,-3,11,yes,x,5,m,1.1379180999992968,0,1,prac,0,1.138670700000148,-48.0
20,jq,f,19,r,1,(-121.76378772032352, -121.76378772032348),26,-5,12,yes,x,5,x,0.8763962000002721,1,2,prac,0,0.876496899999438,-50.0
20,jq,f,19,r,1,(-172.20000000000002, 2.1088417881317425e-14),25,-25,14,yes,x,5,x,0.6555883999999423,1,3,prac,0,0.6558094000001802,-70.0
20,jq,f,19,r,1,(-172.20000000000002, 2.1088417881317425e-14),25,-5,12,yes,x,5,x,0.7801620000000185,1,4,prac,0,0.7802605000006224,-50.0
20,jq,f,19,r,1,(-3.163262682197613e-14, -172.20000000000002),27,3,1,no,m,6,m,0.7388501999994332,1,5,prac,0,0.7390685000000303,-50.0
20,jq,f,19,r,1,(-121.76378772032352, -121.76378772032348),26,25,4,yes,x,5,x,0.5840299999999843,1,6,prac,0,0.5843187000000398,-20.0
20,jq,f,19,r,1,(172.20000000000002, 0.0),21,-25,14,no,m,6,m,0.6370678000002954,1,7,prac,0,0.6372459000003801,-20.0
20,jq,f,19,r,1,(-121.76378772032352, -121.76378772032348),26,25,4,no,m,6,m,0.7299358999998731,1,8,prac,0,0.7300590999993801,-20.0
20,jq,f,19,r,1,(-121.76378772032352, -121.76378772032348),26,-5,12,no,m,6,m,0.8553913000005195,1,9,prac,0,0.8555096000000049,-20.0
20,jq,f,19,r,1,(172.20000000000002, 0.0),21,-25,14,yes,x,5,x,0.6180064999998649,1,10,prac,0,0.6182390000003579,-70.0
20,jq,f,19,r,1,(-3.163262682197613e-14, -172.20000000000002),27,-3,11,no,m,6,m,0.7473565000000235,1,11,prac,0,0.747499400000379,-70.0
20,jq,f,19,r,1,(1.0544208940658713e-14, 172.20000000000002),23,-7,13,yes,x,5,x,0.7780510000002323,1,12,prac,0,0.7781678999999713,-52.0
20,jq,f,19,r,1,(121.76378772032346, -121.76378772032352),28,7,3,yes,x,5,x,0.7496123999999327,1,13,prac,0,0.749777200000608,-38.0
20,jq,f,19,r,1,(-121.76378772032352, -121.76378772032348),26,-25,14,no,m,6,m,0.9543739999999161,1,14,prac,0,0.9545944999999847,-38.0
20,jq,f,19,r,1,(-3.163262682197613e-14, -172.20000000000002),27,7,3,no,m,6,m,0.8743751000001794,1,15,prac,0,0.8746971000000485,-38.0
20,jq,f,19,r,1,(1.0544208940658713e-14, 172.20000000000002),23,-3,11,yes,x,5,m,1.021441699999741,0,16,prac,0,1.0216633999998521,-48.0
20,jq,f,19,r,1,(-172.20000000000002, 2.1088417881317425e-14),25,-25,14,yes,x,5,x,0.5766446000006908,1,17,prac,0,0.577028199999404,-70.0
20,jq,f,19,r,1,(-121.76378772032348, 121.76378772032349),24,-3,11,no,m,6,m,0.8871198999995613,1,18,prac,0,0.8872848999999405,-70.0
20,jq,f,19,r,1,(-121.76378772032348, 121.76378772032349),24,-5,12,yes,x,5,x,0.6833954999992784,1,19,prac,0,0.6835245000002033,-50.0
20,jq,f,19,r,1,(-172.20000000000002, 2.1088417881317425e-14),25,25,4,yes,x,5,x,0.9430161000000226,1,20,prac,0,0.9433119000004808,-20.0
20,jq,f,19,r,1,(121.76378772032346, -121.76378772032352),28,-5,12,no,m,6,m,1.1979474999998274,1,1,test1,1,1.1981314999993629,-20.0
20,jq,f,19,r,1,(-3.163262682197613e-14, -172.20000000000002),27,-7,13,no,m,6,m,0.9129435000004378,1,2,test1,1,0.9130893999999898,-20.0
20,jq,f,19,r,1,(-172.20000000000002, 2.1088417881317425e-14),25,25,4,yes,x,5,x,0.6591463999993721,1,3,test1,1,0.6593771999996534,-20.0
20,jq,f,19,r,1,(-3.163262682197613e-14, -172.20000000000002),27,7,3,no,m,6,m,0.6206404999993538,1,4,test1,1,0.6208440000000337,-20.0
20,jq,f,19,r,1,(172.20000000000002, 0.0),21,25,4,yes,x,5,x,0.5917150999994192,1,5,test1,1,0.5918417000002592,-20.0
20,jq,f,19,r,1,(-121.76378772032348, 121.76378772032349),24,-7,13,no,m,6,m,0.7053857000000789,1,6,test1,1,0.7056651000002603,-20.0
20,jq,f,19,r,1,(-121.76378772032352, -121.76378772032348),26,-3,11,yes,x,5,m,1.899258600000394,0,7,test1,1,1.8995162999999593,-48.0
20,jq,f,19,r,1,(121.76378772032349, 121.76378772032349),22,5,2,yes,x,5,x,0.6618718999998237,1,8,test1,1,0.6620973999997659,-40.0
20,jq,f,19,r,1,(121.76378772032346, -121.76378772032352),28,25,4,no,m,6,m,0.986245200000667,1,9,test1,1,0.9865441000001738,-40.0
20,jq,f,19,r,1,(-172.20000000000002, 2.1088417881317425e-14),25,-3,11,yes,x,5,x,1.0097388000003775,1,10,test1,1,1.0098667000002024,-48.0
20,jq,f,19,r,1,(-172.20000000000002, 2.1088417881317425e-14),25,-25,14,yes,x,5,x,0.6405963999995947,1,11,test1,1,0.640698600000178,-70.0
20,jq,f,19,r,1,(172.20000000000002, 0.0),21,-7,13,no,m,6,m,0.7022219999998924,1,12,test1,1,0.702445699999771,-70.0
20,jq,f,19,r,1,(-3.163262682197613e-14, -172.20000000000002),27,-25,14,no,m,6,m,0.7030323999997563,1,13,test1,1,0.7032647000005454,-70.0
20,jq,f,19,r,1,(-172.20000000000002, 2.1088417881317425e-14),25,-25,14,no,m,6,m,0.7458252999995238,1,14,test1,1,0.7460592000006727,-70.0
20,jq,f,19,r,1,(-121.76378772032348, 121.76378772032349),24,-5,12,no,m,6,m,0.8651317999992898,1,15,test1,1,0.865472000000409,-70.0
20,jq,f,19,r,1,(-121.76378772032352, -121.76378772032348),26,-7,13,yes,x,5,m,0.7606125000002066,0,16,test1,1,0.7609345000000758,-52.0
20,jq,f,19,r,1,(1.0544208940658713e-14, 172.20000000000002),23,7,3,yes,x,5,x,0.743449700000383,1,17,test1,1,0.7437431999996988,-38.0
20,jq,f,19,r,1,(121.76378772032349, 121.76378772032349),22,-5,12,yes,x,5,x,0.6473095000001194,1,18,test1,1,0.647600400000556,-50.0
20,jq,f,19,r,1,(121.76378772032349, 121.76378772032349),22,-3,11,yes,x,5,x,0.9360846999998103,1,19,test1,1,0.9361982000000353,-48.0
20,jq,f,19,r,1,(121.76378772032349, 121.76378772032349),22,7,3,no,m,6,m,0.9174124999999549,1,20,test1,1,0.917554000000564,-48.0
20,jq,f,19,r,1,(121.76378772032349, 121.76378772032349),22,5,2,yes,x,5,x,0.4719137000001865,1,21,test1,1,0.4722737000001871,-40.0
20,jq,f,19,r,1,(-121.76378772032352, -121.76378772032348),26,5,2,yes,x,5,x,0.6170818000000509,1,22,test1,1,0.6173235999995086,-40.0
20,jq,f,19,r,1,(-121.76378772032352, -121.76378772032348),26,-3,11,yes,x,5,x,0.9002671999996892,1,23,test1,1,0.9007510000001275,-48.0
20,jq,f,19,r,1,(-3.163262682197613e-14, -172.20000000000002),27,3,1,yes,x,5,m,0.7966071000000738,0,24,test1,1,0.796898699999474,-42.0
20,jq,f,19,r,1,(121.76378772032346, -121.76378772032352),28,-5,12,yes,x,5,m,1.1540627999993376,0,25,test1,1,1.1541956000000937,-50.0
20,jq,f,19,r,1,(121.76378772032349, 121.76378772032349),22,-25,14,no,m,6,m,0.8348708000003171,1,26,test1,1,0.8353053999999247,-50.0
20,jq,f,19,r,1,(172.20000000000002, 0.0),21,-3,11,no,m,6,m,1.1573204000005717,1,27,test1,1,1.1580086000003575,-50.0
20,jq,f,19,r,1,(121.76378772032346, -121.76378772032352),28,7,3,no,m,6,m,0.7141970000002402,1,28,test1,1,0.7143751999992674,-50.0
20,jq,f,19,r,1,(-121.76378772032352, -121.76378772032348),26,-5,12,yes,x,5,x,0.9881798000005801,1,29,test1,1,0.9885101999998369,-50.0
20,jq,f,19,r,1,(-121.76378772032348, 121.76378772032349),24,-7,13,yes,x,5,x,0.6449652999999671,1,30,test1,1,0.6450649000007616,-52.0
20,jq,f,19,r,1,(121.76378772032349, 121.76378772032349),22,7,3,yes,x,5,x,0.8928041999997731,1,31,test1,1,0.8931754999994155,-38.0
20,jq,f,19,r,1,(121.76378772032349, 121.76378772032349),22,25,4,no,m,6,m,1.3464514999996027,1,32,test1,1,1.3465681000006953,-38.0
20,jq,f,19,r,1,(-172.20000000000002, 2.1088417881317425e-14),25,3,1,no,m,6,m,1.2211675000007745,1,33,test1,1,1.2212642999993477,-38.0
20,jq,f,19,r,1,(-121.76378772032352, -121.76378772032348),26,-25,14,yes,x,5,x,0.5332460999998148,1,34,test1,1,0.5334307000002809,-70.0
20,jq,f,19,r,1,(1.0544208940658713e-14, 172.20000000000002),23,3,1,yes,x,5,x,1.4424640999995972,1,35,test1,1,1.4425677999997788,-42.0
20,jq,f,19,r,1,(-121.76378772032352, -121.76378772032348),26,-5,12,no,m,6,x,0.8392734999997629,0,36,test1,1,0.8394362999997611,-42.0
20,jq,f,19,r,1,(121.76378772032346, -121.76378772032352),28,3,1,yes,x,5,m,0.9027511999993294,0,37,test1,1,0.9029766000003292,-42.0
20,jq,f,19,r,1,(1.0544208940658713e-14, 172.20000000000002),23,7,3,no,m,6,m,0.6546766999999818,1,38,test1,1,0.6547897000000376,-42.0
20,jq,f,19,r,1,(-3.163262682197613e-14, -172.20000000000002),27,-3,11,yes,x,5,m,0.9375132999994094,0,39,test1,1,0.9378336999998282,-48.0
20,jq,f,19,r,1,(-3.163262682197613e-14, -172.20000000000002),27,25,4,yes,x,5,x,0.5633388999995077,1,40,test1,1,0.5637263000007806,-20.0
20,jq,f,19,r,1,(121.76378772032349, 121.76378772032349),22,25,4,yes,x,5,x,0.6258246999996118,1,41,test1,1,0.6259226000001945,-20.0
20,jq,f,19,r,1,(-172.20000000000002, 2.1088417881317425e-14),25,5,2,no,m,6,m,0.8367525999992722,1,42,test1,1,0.8368546000001515,-20.0
20,jq,f,19,r,1,(-121.76378772032348, 121.76378772032349),24,-3,11,yes,x,5,x,0.8335224000002199,1,43,test1,1,0.8337859999992361,-48.0
20,jq,f,19,r,1,(121.76378772032346, -121.76378772032352),28,-7,13,no,m,6,m,0.939365899999757,1,44,test1,1,0.9394830000001093,-48.0
20,jq,f,19,r,1,(-121.76378772032348, 121.76378772032349),24,-25,14,yes,x,5,x,0.5944340000005468,1,45,test1,1,0.5945625999993354,-70.0
20,jq,f,19,r,1,(121.76378772032346, -121.76378772032352),28,5,2,no,m,6,m,0.8137901000000056,1,46,test1,1,0.8139208000002327,-70.0
20,jq,f,19,r,1,(121.76378772032349, 121.76378772032349),22,3,1,yes,x,5,x,0.7095527000001312,1,47,test1,1,0.7097309000000678,-42.0
20,jq,f,19,r,1,(-172.20000000000002, 2.1088417881317425e-14),25,-7,13,no,m,6,m,1.6154257999996844,1,48,test1,1,1.6155446000002485,-42.0
20,jq,f,19,r,1,(121.76378772032349, 121.76378772032349),22,3,1,no,m,6,m,1.1749329000003854,1,49,test1,1,1.1750327999998262,-42.0
20,jq,f,19,r,1,(121.76378772032346, -121.76378772032352),28,-25,14,yes,x,5,x,0.7675146999999924,1,50,test1,1,0.7676447000003463,-70.0
20,jq,f,19,r,1,(-121.76378772032348, 121.76378772032349),24,3,1,no,m,6,m,1.0292433000004166,1,51,test1,1,1.02963390000059,-70.0
20,jq,f,19,r,1,(121.76378772032346, -121.76378772032352),28,5,2,yes,x,5,x,0.8682417999998506,1,52,test1,1,0.8684653999998773,-40.0
20,jq,f,19,r,1,(121.76378772032346, -121.76378772032352),28,-5,12,yes,x,5,x,0.7464852000002793,1,53,test1,1,0.7465978999998697,-50.0
20,jq,f,19,r,1,(121.76378772032349, 121.76378772032349),22,25,4,yes,x,5,x,1.2298980999994455,1,54,test1,1,1.2301335999991352,-20.0
20,jq,f,19,r,1,(172.20000000000002, 0.0),21,-5,12,yes,x,5,x,1.4044379000006302,1,55,test1,1,1.4047358999996504,-50.0
20,jq,f,19,r,1,(-172.20000000000002, 2.1088417881317425e-14),25,5,2,yes,x,5,x,0.6206470999995872,1,56,test1,1,0.6210442999999941,-40.0
20,jq,f,19,r,1,(121.76378772032349, 121.76378772032349),22,-3,11,no,m,6,m,1.2003498000003674,1,57,test1,1,1.200981099999808,-40.0
20,jq,f,19,r,1,(121.76378772032349, 121.76378772032349),22,-7,13,no,m,6,x,0.6240679000002274,0,58,test1,1,0.6244354999998905,-40.0
20,jq,f,19,r,1,(1.0544208940658713e-14, 172.20000000000002),23,-5,12,yes,x,5,x,0.6433526999999231,1,59,test1,1,0.6435965000000579,-50.0
20,jq,f,19,r,1,(121.76378772032346, -121.76378772032352),28,5,2,yes,x,5,x,0.8762959999994564,1,60,test1,1,0.8765192999999272,-40.0
20,jq,f,19,r,1,(-172.20000000000002, 2.1088417881317425e-14),25,7,3,no,m,6,m,0.7509473000000071,1,61,test1,1,0.751203899999382,-40.0
20,jq,f,19,r,1,(-3.163262682197613e-14, -172.20000000000002),27,-7,13,yes,x,5,x,1.196944600000279,1,62,test1,1,1.1970903999999791,-52.0
20,jq,f,19,r,1,(1.0544208940658713e-14, 172.20000000000002),23,-25,14,no,m,6,m,0.9741057999999612,1,63,test1,1,0.9743637999999919,-52.0
20,jq,f,19,r,1,(172.20000000000002, 0.0),21,-3,11,yes,x,5,x,0.9818832000000839,1,64,test1,1,0.9822045000000799,-48.0
20,jq,f,19,r,1,(-3.163262682197613e-14, -172.20000000000002),27,-3,11,no,m,6,x,0.71736779999992,0,65,test1,1,0.7175538000001325,-48.0
20,jq,f,19,r,1,(172.20000000000002, 0.0),21,7,3,yes,x,5,x,1.1657656999996107,1,66,test1,1,1.1660626000002594,-38.0
20,jq,f,19,r,1,(172.20000000000002, 0.0),21,3,1,yes,x,5,m,1.2709083999998256,0,67,test1,1,1.2710693999997602,-42.0
20,jq,f,19,r,1,(-121.76378772032352, -121.76378772032348),26,25,4,yes,x,5,x,0.7092117000001963,1,68,test1,1,0.7094088000003467,-20.0
20,jq,f,19,r,1,(-3.163262682197613e-14, -172.20000000000002),27,25,4,yes,x,5,x,0.6785556000004362,1,69,test1,1,0.6787715000000389,-20.0
20,jq,f,19,r,1,(-172.20000000000002, 2.1088417881317425e-14),25,-5,12,yes,x,5,x,0.9185461999995823,1,70,test1,1,0.9186472999999751,-50.0
20,jq,f,19,r,1,(-3.163262682197613e-14, -172.20000000000002),27,25,4,no,m,6,m,0.7203923000006398,1,71,test1,1,0.7204971000001024,-50.0
20,jq,f,19,r,1,(-121.76378772032352, -121.76378772032348),26,-3,11,no,m,6,x,0.7529515999995056,0,72,test1,1,0.7532277999998769,-50.0
20,jq,f,19,r,1,(-121.76378772032352, -121.76378772032348),26,7,3,no,m,6,m,0.6209675000000061,1,73,test1,1,0.6210979999996198,-50.0
20,jq,f,19,r,1,(1.0544208940658713e-14, 172.20000000000002),23,7,3,yes,x,5,None,None,0,74,test1,1,1.9800803999996788,-38.0
20,jq,f,19,r,1,(121.76378772032346, -121.76378772032352),28,-25,14,no,m,6,m,1.4639544999999998,1,75,test1,1,1.464202799999839,-38.0
20,jq,f,19,r,1,(121.76378772032346, -121.76378772032352),28,-3,11,yes,x,5,m,1.2108600000001388,0,76,test1,1,1.2109901999992871,-48.0
20,jq,f,19,r,1,(-121.76378772032352, -121.76378772032348),26,25,4,yes,x,5,x,0.5928871999994954,1,77,test1,1,0.5932639000002382,-20.0
20,jq,f,19,r,1,(1.0544208940658713e-14, 172.20000000000002),23,25,4,no,m,6,m,0.833628299999873,1,78,test1,1,0.8339007999993555,-20.0
20,jq,f,19,r,1,(-121.76378772032348, 121.76378772032349),24,7,3,yes,x,5,x,0.623669699999482,1,79,test1,1,0.6238853000004383,-38.0
20,jq,f,19,r,1,(121.76378772032346, -121.76378772032352),28,3,1,yes,x,5,m,1.034608200000548,0,80,test1,1,1.0348377000000255,-42.0
20,jq,f,19,r,1,(-121.76378772032348, 121.76378772032349),24,7,3,yes,x,5,x,0.6315499000002092,1,81,test1,1,0.6322190000000774,-38.0
20,jq,f,19,r,1,(-3.163262682197613e-14, -172.20000000000002),27,-5,12,no,m,6,m,1.0687011999998504,1,82,test1,1,1.0687999000001582,-38.0
20,jq,f,19,r,1,(-3.163262682197613e-14, -172.20000000000002),27,5,2,yes,x,5,x,0.8165308999996341,1,83,test1,1,0.817196399999375,-40.0
20,jq,f,19,r,1,(121.76378772032346, -121.76378772032352),28,25,4,yes,x,5,x,0.7541762999999264,1,84,test1,1,0.7542727999998533,-20.0
20,jq,f,19,r,1,(-121.76378772032352, -121.76378772032348),26,5,2,yes,x,5,x,0.6690376999995351,1,85,test1,1,0.6691932000003362,-40.0
20,jq,f,19,r,1,(-121.76378772032352, -121.76378772032348),26,7,3,yes,x,5,x,0.5455682000001616,1,86,test1,1,0.5460017000004882,-38.0
20,jq,f,19,r,1,(172.20000000000002, 0.0),21,5,2,no,m,6,m,1.0520518999992419,1,87,test1,1,1.0522066000003178,-38.0
20,jq,f,19,r,1,(1.0544208940658713e-14, 172.20000000000002),23,3,1,yes,x,5,x,0.7725037000000157,1,88,test1,1,0.7726277000001573,-42.0
20,jq,f,19,r,1,(-121.76378772032348, 121.76378772032349),24,25,4,no,m,6,m,0.8324071999995795,1,89,test1,1,0.8327532000002975,-42.0
20,jq,f,19,r,1,(-3.163262682197613e-14, -172.20000000000002),27,7,3,yes,x,5,x,0.7235946999999214,1,90,test1,1,0.7236990999999762,-38.0
20,jq,f,19,r,1,(-121.76378772032348, 121.76378772032349),24,-5,12,yes,x,5,x,0.7304924000000028,1,91,test1,1,0.7308916000001773,-50.0
20,jq,f,19,r,1,(-121.76378772032348, 121.76378772032349),24,3,1,yes,x,5,x,1.5455181000006633,1,92,test1,1,1.545884400000432,-42.0
20,jq,f,19,r,1,(1.0544208940658713e-14, 172.20000000000002),23,-5,12,yes,x,5,x,1.3648180999998658,1,93,test1,1,1.3649771000000328,-50.0
20,jq,f,19,r,1,(-121.76378772032348, 121.76378772032349),24,-7,13,yes,x,5,x,0.5541079999993599,1,94,test1,1,0.554527500000404,-52.0
20,jq,f,19,r,1,(121.76378772032346, -121.76378772032352),28,7,3,yes,x,5,x,0.7969352000000072,1,95,test1,1,0.797075199999199,-38.0
20,jq,f,19,r,1,(1.0544208940658713e-14, 172.20000000000002),23,25,4,yes,x,5,x,0.6488491000000067,1,96,test1,1,0.6493700000000899,-20.0
20,jq,f,19,r,1,(-121.76378772032352, -121.76378772032348),26,7,3,yes,x,5,x,0.8352632999994967,1,1,test2,1,0.8355054000003292,-38.0
20,jq,f,19,r,1,(-121.76378772032348, 121.76378772032349),24,-25,14,yes,x,5,x,0.5762557000007291,1,2,test2,1,0.576396599999498,-70.0
20,jq,f,19,r,1,(121.76378772032349, 121.76378772032349),22,7,3,yes,x,5,x,0.583284399999684,1,3,test2,1,0.5833843999998862,-38.0
20,jq,f,19,r,1,(121.76378772032346, -121.76378772032352),28,25,4,yes,x,5,x,0.4626863000003141,1,4,test2,1,0.4627817000000505,-20.0
20,jq,f,19,r,1,(1.0544208940658713e-14, 172.20000000000002),23,5,2,yes,x,5,x,0.42711859999963053,1,5,test2,1,0.4272123000000647,-40.0
20,jq,f,19,r,1,(-121.76378772032348, 121.76378772032349),24,3,1,yes,x,5,x,0.6532108000001244,1,6,test2,1,0.6535292000007757,-42.0
20,jq,f,19,r,1,(172.20000000000002, 0.0),21,5,2,yes,x,5,x,0.5660156000003553,1,7,test2,1,0.5662196999992375,-40.0
20,jq,f,19,r,1,(-121.76378772032352, -121.76378772032348),26,-25,14,no,m,6,m,0.648331600000347,1,8,test2,1,0.6486457999999402,-40.0
20,jq,f,19,r,1,(1.0544208940658713e-14, 172.20000000000002),23,-3,11,no,m,6,m,0.644273200000498,1,9,test2,1,0.6450001000002885,-40.0
20,jq,f,19,r,1,(-121.76378772032348, 121.76378772032349),24,7,3,no,m,6,m,0.6212046000000555,1,10,test2,1,0.6213207999999213,-40.0
20,jq,f,19,r,1,(172.20000000000002, 0.0),21,-3,11,yes,x,5,x,0.6890103999994608,1,11,test2,1,0.6891109999996843,-48.0
20,jq,f,19,r,1,(121.76378772032346, -121.76378772032352),28,-25,14,yes,x,5,x,1.7011071000006268,1,12,test2,1,1.7014108000003034,-70.0
20,jq,f,19,r,1,(121.76378772032346, -121.76378772032352),28,7,3,yes,x,5,x,0.5398241000002599,1,13,test2,1,0.539926600000399,-38.0
20,jq,f,19,r,1,(121.76378772032349, 121.76378772032349),22,-5,12,yes,x,5,x,0.9799741999995604,1,14,test2,1,0.9802941999996619,-50.0
20,jq,f,19,r,1,(172.20000000000002, 0.0),21,5,2,yes,x,5,x,0.4743393999997352,1,15,test2,1,0.4744390999994721,-40.0
20,jq,f,19,r,1,(172.20000000000002, 0.0),21,-25,14,yes,x,5,x,0.48164470000028814,1,16,test2,1,0.4820061000000351,-70.0
20,jq,f,19,r,1,(-172.20000000000002, 2.1088417881317425e-14),25,7,3,yes,x,5,x,0.4369587999999567,1,17,test2,1,0.4370554999995875,-38.0
20,jq,f,19,r,1,(121.76378772032346, -121.76378772032352),28,-7,13,yes,x,5,x,0.34258970000064437,1,18,test2,1,0.3429882999998881,-52.0
20,jq,f,19,r,1,(-172.20000000000002, 2.1088417881317425e-14),25,3,1,yes,x,5,x,0.3793316000001141,1,19,test2,1,0.37942930000008346,-42.0
20,jq,f,19,r,1,(121.76378772032346, -121.76378772032352),28,-7,13,yes,x,5,x,0.5724268000003576,1,20,test2,1,0.5725298999996085,-52.0
20,jq,f,19,r,1,(-121.76378772032352, -121.76378772032348),26,25,4,no,m,6,m,0.7453904999993028,1,21,test2,1,0.7454865999998219,-52.0
20,jq,f,19,r,1,(121.76378772032349, 121.76378772032349),22,-7,13,yes,x,5,x,0.5960329999998066,1,22,test2,1,0.5962606000002779,-52.0
20,jq,f,19,r,1,(-121.76378772032348, 121.76378772032349),24,-25,14,no,m,6,m,1.2827375999995638,1,23,test2,1,1.2829970000002504,-52.0
20,jq,f,19,r,1,(1.0544208940658713e-14, 172.20000000000002),23,-7,13,yes,x,5,x,0.5896542999998928,1,24,test2,1,0.5899863000004189,-52.0
20,jq,f,19,r,1,(1.0544208940658713e-14, 172.20000000000002),23,3,1,no,m,6,x,0.718679699999484,0,25,test2,1,0.7193196000007447,-52.0
20,jq,f,19,r,1,(172.20000000000002, 0.0),21,-25,14,no,m,6,m,0.7916124999992462,1,26,test2,1,0.7918970999999146,-52.0
20,jq,f,19,r,1,(-3.163262682197613e-14, -172.20000000000002),27,3,1,no,m,6,m,1.1307612999999037,1,27,test2,1,1.130983600000036,-52.0
20,jq,f,19,r,1,(-121.76378772032352, -121.76378772032348),26,-25,14,yes,x,5,x,0.6101161999995384,1,28,test2,1,0.6103291999997964,-70.0
20,jq,f,19,r,1,(172.20000000000002, 0.0),21,7,3,no,m,6,m,0.858109599999807,1,29,test2,1,0.8583966999995027,-70.0
20,jq,f,19,r,1,(1.0544208940658713e-14, 172.20000000000002),23,-3,11,yes,x,5,x,0.5913448999999673,1,30,test2,1,0.5915052999998807,-48.0
20,jq,f,19,r,1,(1.0544208940658713e-14, 172.20000000000002),23,5,2,no,m,6,m,0.5991692999996303,1,31,test2,1,0.5994137999996383,-48.0
20,jq,f,19,r,1,(-172.20000000000002, 2.1088417881317425e-14),25,7,3,yes,x,5,x,0.5065657999994073,1,32,test2,1,0.5067067999998471,-38.0
20,jq,f,19,r,1,(121.76378772032349, 121.76378772032349),22,5,2,no,m,6,m,0.6595255000001998,1,33,test2,1,0.6598239999993893,-38.0
20,jq,f,19,r,1,(1.0544208940658713e-14, 172.20000000000002),23,25,4,yes,x,5,x,0.6135527000005823,1,34,test2,1,0.6140545000007478,-20.0
20,jq,f,19,r,1,(1.0544208940658713e-14, 172.20000000000002),23,-7,13,no,m,6,m,0.6978042999999161,1,35,test2,1,0.6979573999997228,-20.0
20,jq,f,19,r,1,(1.0544208940658713e-14, 172.20000000000002),23,-25,14,yes,x,5,x,0.5944349000001239,1,36,test2,1,0.5945362000002206,-70.0
20,jq,f,19,r,1,(-121.76378772032348, 121.76378772032349),24,5,2,no,m,6,m,0.9101529999998093,1,37,test2,1,0.9104092000006858,-70.0
20,jq,f,19,r,1,(-172.20000000000002, 2.1088417881317425e-14),25,-5,12,yes,x,5,x,0.7241439999997965,1,38,test2,1,0.7243638999998439,-50.0
20,jq,f,19,r,1,(-3.163262682197613e-14, -172.20000000000002),27,-25,14,yes,x,5,x,0.6694559000006848,1,39,test2,1,0.6696440999994593,-70.0
20,jq,f,19,r,1,(-3.163262682197613e-14, -172.20000000000002),27,7,3,yes,x,5,x,0.7061412000002747,1,40,test2,1,0.7066070000000764,-38.0
20,jq,f,19,r,1,(-121.76378772032352, -121.76378772032348),26,-7,13,yes,x,5,x,0.5746571999998196,1,41,test2,1,0.5747794999997495,-52.0
20,jq,f,19,r,1,(121.76378772032349, 121.76378772032349),22,-7,13,yes,x,5,x,0.6290379000001849,1,42,test2,1,0.6292050000001836,-52.0
20,jq,f,19,r,1,(-121.76378772032352, -121.76378772032348),26,3,1,no,m,6,m,0.7260693999996874,1,43,test2,1,0.7261887000004208,-52.0
20,jq,f,19,r,1,(-121.76378772032352, -121.76378772032348),26,-7,13,no,m,6,x,1.3941697000000204,0,44,test2,1,1.394487599999593,-52.0
20,jq,f,19,r,1,(-172.20000000000002, 2.1088417881317425e-14),25,-7,13,yes,x,5,x,0.7773380999997244,1,45,test2,1,0.7774972999995953,-52.0
20,jq,f,19,r,1,(-172.20000000000002, 2.1088417881317425e-14),25,25,4,no,m,6,m,0.883153300000231,1,46,test2,1,0.8832514999994601,-52.0
20,jq,f,19,r,1,(-3.163262682197613e-14, -172.20000000000002),27,-3,11,yes,x,5,m,0.8978517999994438,0,47,test2,1,0.8983514999999898,-48.0
20,jq,f,19,r,1,(-172.20000000000002, 2.1088417881317425e-14),25,-7,13,yes,x,5,x,0.5736803999998301,1,48,test2,1,0.5738414999996166,-52.0
20,jq,f,19,r,1,(-3.163262682197613e-14, -172.20000000000002),27,5,2,no,m,6,m,0.69827609999993,1,49,test2,1,0.6983959999997751,-52.0
20,jq,f,19,r,1,(-3.163262682197613e-14, -172.20000000000002),27,-7,13,yes,x,5,x,0.562386399999923,1,50,test2,1,0.5627696000001379,-52.0
20,jq,f,19,r,1,(-172.20000000000002, 2.1088417881317425e-14),25,25,4,yes,x,5,x,0.4530728999998246,1,51,test2,1,0.45336410000072647,-20.0
20,jq,f,19,r,1,(-121.76378772032352, -121.76378772032348),26,-5,12,yes,x,5,x,0.6071827000005214,1,52,test2,1,0.6073033000002397,-50.0
20,jq,f,19,r,1,(1.0544208940658713e-14, 172.20000000000002),23,-3,11,yes,x,5,m,0.6837634999992588,0,53,test2,1,0.6838610000004337,-48.0
20,jq,f,19,r,1,(-172.20000000000002, 2.1088417881317425e-14),25,-3,11,no,m,6,m,0.6109156000002258,1,54,test2,1,0.6117233999993914,-48.0
20,jq,f,19,r,1,(-121.76378772032348, 121.76378772032349),24,25,4,yes,x,5,x,0.4676930999994511,1,55,test2,1,0.4685210999996343,-20.0
20,jq,f,19,r,1,(172.20000000000002, 0.0),21,7,3,yes,x,5,x,0.6210969000003388,1,56,test2,1,0.6216040999997858,-38.0
20,jq,f,19,r,1,(-3.163262682197613e-14, -172.20000000000002),27,-25,14,yes,x,5,x,0.5053542999994534,1,57,test2,1,0.5055206999995789,-70.0
20,jq,f,19,r,1,(-121.76378772032348, 121.76378772032349),24,-5,12,yes,x,5,x,0.5851369000001796,1,58,test2,1,0.5852553999993688,-50.0
20,jq,f,19,r,1,(172.20000000000002, 0.0),21,-25,14,yes,x,5,x,0.7150544999994963,1,59,test2,1,0.7151793000002726,-70.0
20,jq,f,19,r,1,(1.0544208940658713e-14, 172.20000000000002),23,-5,12,no,m,6,m,0.9877510000005714,1,60,test2,1,0.9878658000006908,-70.0
20,jq,f,19,r,1,(172.20000000000002, 0.0),21,25,4,yes,x,5,x,0.6581455999994432,1,61,test2,1,0.6585472000006121,-20.0
20,jq,f,19,r,1,(-121.76378772032352, -121.76378772032348),26,5,2,no,m,6,m,1.596648499999901,1,62,test2,1,1.5967852000003404,-20.0
20,jq,f,19,r,1,(1.0544208940658713e-14, 172.20000000000002),23,-25,14,yes,x,5,x,0.5926329000003534,1,63,test2,1,0.5930631000001085,-70.0
20,jq,f,19,r,1,(1.0544208940658713e-14, 172.20000000000002),23,-7,13,yes,x,5,x,0.8993298999994295,1,64,test2,1,0.8995475000001534,-52.0
20,jq,f,19,r,1,(-172.20000000000002, 2.1088417881317425e-14),25,-5,12,no,m,6,m,0.6557854000002408,1,65,test2,1,0.6560614999998506,-52.0
20,jq,f,19,r,1,(-3.163262682197613e-14, -172.20000000000002),27,-5,12,yes,x,5,x,0.8176860000003217,1,66,test2,1,0.8179793999997855,-50.0
20,jq,f,19,r,1,(172.20000000000002, 0.0),21,25,4,no,m,6,m,0.6284992000000784,1,67,test2,1,0.6286672999995062,-50.0
20,jq,f,19,r,1,(-3.163262682197613e-14, -172.20000000000002),27,3,1,yes,x,5,x,1.1232639999998355,1,68,test2,1,1.1237546000002112,-42.0
20,jq,f,19,r,1,(172.20000000000002, 0.0),21,-7,13,yes,x,5,x,0.8093382999995811,1,69,test2,1,0.8095756000002439,-52.0
20,jq,f,19,r,1,(-121.76378772032348, 121.76378772032349),24,5,2,yes,x,5,x,0.5414357999998174,1,70,test2,1,0.5420149999999921,-40.0
20,jq,f,19,r,1,(-172.20000000000002, 2.1088417881317425e-14),25,-25,14,yes,x,5,x,0.4423643999998603,1,71,test2,1,0.4430125999997472,-70.0
20,jq,f,19,r,1,(121.76378772032349, 121.76378772032349),22,-5,12,no,m,6,m,0.7090970999997808,1,72,test2,1,0.7091898999997284,-70.0
20,jq,f,19,r,1,(-121.76378772032348, 121.76378772032349),24,5,2,yes,x,5,x,0.530714700000317,1,73,test2,1,0.5308730000006108,-40.0
20,jq,f,19,r,1,(172.20000000000002, 0.0),21,-7,13,yes,x,5,x,0.6910334000003786,1,74,test2,1,0.691270500000428,-52.0
20,jq,f,19,r,1,(-121.76378772032352, -121.76378772032348),26,3,1,yes,x,5,m,0.8792465999995329,0,75,test2,1,0.879371899999569,-42.0
20,jq,f,19,r,1,(-172.20000000000002, 2.1088417881317425e-14),25,-3,11,yes,x,5,m,1.1894124000000375,0,76,test2,1,1.1897754000001441,-48.0
20,jq,f,19,r,1,(-121.76378772032348, 121.76378772032349),24,25,4,yes,x,5,x,0.5245739000001777,1,77,test2,1,0.5246714000004431,-20.0
20,jq,f,19,r,1,(172.20000000000002, 0.0),21,-5,12,no,m,6,x,0.7604953999998543,0,78,test2,1,0.7606697999999597,-20.0
20,jq,f,19,r,1,(-3.163262682197613e-14, -172.20000000000002),27,-5,12,yes,x,5,x,1.051547799999753,1,79,test2,1,1.051743300000453,-50.0
20,jq,f,19,r,1,(121.76378772032346, -121.76378772032352),28,3,1,no,m,6,m,1.4153535000004922,1,80,test2,1,1.4155154999998558,-50.0
20,jq,f,19,r,1,(121.76378772032346, -121.76378772032352),28,-3,11,no,m,6,m,1.2199164999992718,1,81,test2,1,1.220134700000017,-50.0
20,jq,f,19,r,1,(-121.76378772032352, -121.76378772032348),26,3,1,yes,x,5,m,0.8901525000001129,0,82,test2,1,0.8904725000002145,-42.0
20,jq,f,19,r,1,(172.20000000000002, 0.0),21,3,1,no,m,6,m,1.5173764000001029,1,83,test2,1,1.5177206999996997,-42.0
20,jq,f,19,r,1,(-172.20000000000002, 2.1088417881317425e-14),25,3,1,yes,x,5,x,0.6735444000005373,1,84,test2,1,0.673717100000431,-42.0
20,jq,f,19,r,1,(121.76378772032349, 121.76378772032349),22,-3,11,yes,x,5,x,1.193763399999625,1,85,test2,1,1.1940741999997044,-48.0
20,jq,f,19,r,1,(121.76378772032349, 121.76378772032349),22,-25,14,yes,x,5,x,0.8304629000003843,1,86,test2,1,0.830692700000327,-70.0
20,jq,f,19,r,1,(121.76378772032349, 121.76378772032349),22,-25,14,yes,x,5,x,0.5416183999996065,1,87,test2,1,0.5417172000006758,-70.0
20,jq,f,19,r,1,(-3.163262682197613e-14, -172.20000000000002),27,5,2,yes,x,5,x,0.5693968999994468,1,88,test2,1,0.5695609000003969,-40.0
20,jq,f,19,r,1,(121.76378772032346, -121.76378772032352),28,-3,11,yes,x,5,x,0.9868695000004664,1,89,test2,1,0.9872156999999788,-48.0
20,jq,f,19,r,1,(-172.20000000000002, 2.1088417881317425e-14),25,5,2,yes,x,5,x,0.6208423999996739,1,90,test2,1,0.6209555999994336,-40.0
20,jq,f,19,r,1,(-121.76378772032348, 121.76378772032349),24,-3,11,yes,x,5,x,1.0537249999997584,1,91,test2,1,1.0538377000002583,-48.0
20,jq,f,19,r,1,(172.20000000000002, 0.0),21,3,1,yes,x,5,x,1.0855439999995724,1,92,test2,1,1.0861199000000852,-42.0
20,jq,f,19,r,1,(172.20000000000002, 0.0),21,-5,12,yes,x,5,x,0.7044519999999466,1,93,test2,1,0.7046145000003889,-50.0
20,jq,f,19,r,1,(1.0544208940658713e-14, 172.20000000000002),23,5,2,yes,x,5,x,0.9227872999999818,1,94,test2,1,0.9228839000006701,-40.0
20,jq,f,19,r,1,(-121.76378772032348, 121.76378772032349),24,-3,11,no,m,6,m,1.819545599999401,1,95,test2,1,1.8196621999995841,-40.0
20,jq,f,19,r,1,(121.76378772032349, 121.76378772032349),22,3,1,yes,x,5,x,0.9001955000003363,1,96,test2,1,0.9004691000000093,-42.0
20,jq,f,19,r,1,(121.76378772032346, -121.76378772032352),28,-5,12,no,m,6,x,1.350108800000271,0,1,test1,2,1.350251599999865,-42.0
20,jq,f,19,r,1,(-3.163262682197613e-14, -172.20000000000002),27,-7,13,no,m,6,x,0.7521182999998928,0,2,test1,2,0.75227889999951,-42.0
20,jq,f,19,r,1,(-172.20000000000002, 2.1088417881317425e-14),25,25,4,yes,x,5,x,0.5052516000005198,1,3,test1,2,0.5055444999998144,-20.0
20,jq,f,19,r,1,(-3.163262682197613e-14, -172.20000000000002),27,7,3,no,m,6,x,0.8993047000003571,0,4,test1,2,0.8995249999998123,-20.0
20,jq,f,19,r,1,(172.20000000000002, 0.0),21,25,4,yes,x,5,m,0.45754280000073777,0,5,test1,2,0.4580618999998478,-20.0
20,jq,f,19,r,1,(-121.76378772032348, 121.76378772032349),24,-7,13,no,m,6,m,1.1548539999994318,1,6,test1,2,1.1549947000003158,-20.0
20,jq,f,19,r,1,(-121.76378772032352, -121.76378772032348),26,-3,11,yes,x,5,m,1.1155330000001413,0,7,test1,2,1.115904600000249,-48.0
20,jq,f,19,r,1,(121.76378772032349, 121.76378772032349),22,5,2,yes,x,5,x,0.7096949999995559,1,8,test1,2,0.7103476999991472,-40.0
20,jq,f,19,r,1,(121.76378772032346, -121.76378772032352),28,25,4,no,m,6,m,1.0250199000001885,1,9,test1,2,1.0253039000008357,-40.0
20,jq,f,19,r,1,(-172.20000000000002, 2.1088417881317425e-14),25,-3,11,yes,x,5,m,0.624954500000058,0,10,test1,2,0.6250527000001966,-48.0
20,jq,f,19,r,1,(-172.20000000000002, 2.1088417881317425e-14),25,-25,14,yes,x,5,x,0.5808748999997988,1,11,test1,2,0.580974000000424,-70.0
20,jq,f,19,r,1,(172.20000000000002, 0.0),21,-7,13,no,m,6,m,0.9167259000005288,1,12,test1,2,0.9171539999997549,-70.0
20,jq,f,19,r,1,(-3.163262682197613e-14, -172.20000000000002),27,-25,14,no,m,6,m,1.1247587000007115,1,13,test1,2,1.124860300000364,-70.0
20,jq,f,19,r,1,(-172.20000000000002, 2.1088417881317425e-14),25,-25,14,no,m,6,m,1.0152760999999373,1,14,test1,2,1.0153755000001183,-70.0
20,jq,f,19,r,1,(-121.76378772032348, 121.76378772032349),24,-5,12,no,m,6,m,0.9215248000000429,1,15,test1,2,0.9216274999998859,-70.0
20,jq,f,19,r,1,(-121.76378772032352, -121.76378772032348),26,-7,13,yes,x,5,x,0.6610062999998263,1,16,test1,2,0.6612467999993896,-52.0
20,jq,f,19,r,1,(1.0544208940658713e-14, 172.20000000000002),23,7,3,yes,x,5,x,0.7910255000006146,1,17,test1,2,0.7911542000001646,-38.0
20,jq,f,19,r,1,(121.76378772032349, 121.76378772032349),22,-5,12,yes,x,5,x,0.6960018999998283,1,18,test1,2,0.6962297000000035,-50.0
20,jq,f,19,r,1,(121.76378772032349, 121.76378772032349),22,-3,11,yes,x,5,x,0.5723076000003857,1,19,test1,2,0.5728355000001102,-48.0
20,jq,f,19,r,1,(121.76378772032349, 121.76378772032349),22,7,3,no,m,6,m,1.3010465999996086,1,20,test1,2,1.3012690000005023,-48.0
20,jq,f,19,r,1,(121.76378772032349, 121.76378772032349),22,5,2,yes,x,5,x,0.8009679999995569,1,21,test1,2,0.8011334000002535,-40.0
20,jq,f,19,r,1,(-121.76378772032352, -121.76378772032348),26,5,2,yes,x,5,x,0.6233983000001899,1,22,test1,2,0.6237959000000046,-40.0
20,jq,f,19,r,1,(-121.76378772032352, -121.76378772032348),26,-3,11,yes,x,5,x,0.6337993999995888,1,23,test1,2,0.6339787999995679,-48.0
20,jq,f,19,r,1,(-3.163262682197613e-14, -172.20000000000002),27,3,1,yes,x,5,m,0.8009203000001435,0,24,test1,2,0.8010257000005367,-42.0
20,jq,f,19,r,1,(121.76378772032346, -121.76378772032352),28,-5,12,yes,x,5,x,0.7755992000002152,1,25,test1,2,0.775731600000654,-50.0
20,jq,f,19,r,1,(121.76378772032349, 121.76378772032349),22,-25,14,no,m,6,m,1.8895719000001918,1,26,test1,2,1.8898454999998648,-50.0
20,jq,f,19,r,1,(172.20000000000002, 0.0),21,-3,11,no,m,6,m,0.8648815000005925,1,27,test1,2,0.8651079999999638,-50.0
20,jq,f,19,r,1,(121.76378772032346, -121.76378772032352),28,7,3,no,m,6,x,0.8632739000004221,0,28,test1,2,0.863499299999603,-50.0
20,jq,f,19,r,1,(-121.76378772032352, -121.76378772032348),26,-5,12,yes,x,5,x,0.598120800000288,1,29,test1,2,0.5982338000003438,-50.0
20,jq,f,19,r,1,(-121.76378772032348, 121.76378772032349),24,-7,13,yes,x,5,x,0.6412405999999464,1,30,test1,2,0.6413553000002139,-52.0
20,jq,f,19,r,1,(121.76378772032349, 121.76378772032349),22,7,3,yes,x,5,x,0.6881668000005448,1,31,test1,2,0.6883268000001408,-38.0
20,jq,f,19,r,1,(121.76378772032349, 121.76378772032349),22,25,4,no,m,6,m,0.73909520000052,1,32,test1,2,0.7397237999994104,-38.0
20,jq,f,19,r,1,(-172.20000000000002, 2.1088417881317425e-14),25,3,1,no,m,6,m,0.9191033999995852,1,33,test1,2,0.9193356999994649,-38.0
20,jq,f,19,r,1,(-121.76378772032352, -121.76378772032348),26,-25,14,yes,x,5,x,0.6295632999999725,1,34,test1,2,0.629783899999893,-70.0
20,jq,f,19,r,1,(1.0544208940658713e-14, 172.20000000000002),23,3,1,yes,x,5,m,0.6051991000003909,0,35,test1,2,0.6056197999996584,-42.0
20,jq,f,19,r,1,(-121.76378772032352, -121.76378772032348),26,-5,12,no,m,6,m,0.7345980000000054,1,36,test1,2,0.7346991999993406,-42.0
20,jq,f,19,r,1,(121.76378772032346, -121.76378772032352),28,3,1,yes,x,5,m,0.8076719999999113,0,37,test1,2,0.8078001000003496,-42.0
20,jq,f,19,r,1,(1.0544208940658713e-14, 172.20000000000002),23,7,3,no,m,6,m,0.7418810999997731,1,38,test1,2,0.7419867999997223,-42.0
20,jq,f,19,r,1,(-3.163262682197613e-14, -172.20000000000002),27,-3,11,yes,x,5,x,0.6688896000005116,1,39,test1,2,0.6689889999997831,-48.0
20,jq,f,19,r,1,(-3.163262682197613e-14, -172.20000000000002),27,25,4,yes,x,5,x,0.4937661999992997,1,40,test1,2,0.49406980000003387,-20.0
20,jq,f,19,r,1,(121.76378772032349, 121.76378772032349),22,25,4,yes,x,5,x,0.690947199999755,1,41,test1,2,0.6911368999999468,-20.0
20,jq,f,19,r,1,(-172.20000000000002, 2.1088417881317425e-14),25,5,2,no,m,6,m,0.6868440999996892,1,42,test1,2,0.6871175999995103,-20.0
20,jq,f,19,r,1,(-121.76378772032348, 121.76378772032349),24,-3,11,yes,x,5,x,1.3536431000002267,1,43,test1,2,1.353738499999963,-48.0
20,jq,f,19,r,1,(121.76378772032346, -121.76378772032352),28,-7,13,no,m,6,x,1.0257649000004676,0,44,test1,2,1.0260647999994035,-48.0
20,jq,f,19,r,1,(-121.76378772032348, 121.76378772032349),24,-25,14,yes,x,5,x,0.5113639000001058,1,45,test1,2,0.5118087999999261,-70.0
20,jq,f,19,r,1,(121.76378772032346, -121.76378772032352),28,5,2,no,m,6,m,1.4886145999998917,1,46,test1,2,1.488717500000348,-70.0
20,jq,f,19,r,1,(121.76378772032349, 121.76378772032349),22,3,1,yes,x,5,x,1.095138899999256,1,47,test1,2,1.0952416000000085,-42.0
20,jq,f,19,r,1,(-172.20000000000002, 2.1088417881317425e-14),25,-7,13,no,m,6,m,0.8370918000000529,1,48,test1,2,0.8372413000006418,-42.0
20,jq,f,19,r,1,(121.76378772032349, 121.76378772032349),22,3,1,no,m,6,m,0.6670980999997482,1,49,test1,2,0.667489100000239,-42.0
20,jq,f,19,r,1,(121.76378772032346, -121.76378772032352),28,-25,14,yes,x,5,x,0.5549823999999717,1,50,test1,2,0.5550975999994989,-70.0
20,jq,f,19,r,1,(-121.76378772032348, 121.76378772032349),24,3,1,no,m,6,m,1.1999329000000216,1,51,test1,2,1.2001121000002968,-70.0
20,jq,f,19,r,1,(121.76378772032346, -121.76378772032352),28,5,2,yes,x,5,x,0.5515713000004325,1,52,test1,2,0.5517220000001544,-40.0
20,jq,f,19,r,1,(121.76378772032346, -121.76378772032352),28,-5,12,yes,x,5,x,0.6722137999995539,1,53,test1,2,0.6723953999999139,-50.0
20,jq,f,19,r,1,(121.76378772032349, 121.76378772032349),22,25,4,yes,x,5,x,0.6001728999999614,1,54,test1,2,0.6002709000003961,-20.0
20,jq,f,19,r,1,(172.20000000000002, 0.0),21,-5,12,yes,x,5,x,0.6471897000001263,1,55,test1,2,0.6476278999998613,-50.0
20,jq,f,19,r,1,(-172.20000000000002, 2.1088417881317425e-14),25,5,2,yes,x,5,x,0.9650064999996175,1,56,test1,2,0.965373100000761,-40.0
20,jq,f,19,r,1,(121.76378772032349, 121.76378772032349),22,-3,11,no,m,6,m,1.2278489000000263,1,57,test1,2,1.227964300000167,-40.0
20,jq,f,19,r,1,(121.76378772032349, 121.76378772032349),22,-7,13,no,m,6,x,0.8582048999996914,0,58,test1,2,0.8583032000005915,-40.0
20,jq,f,19,r,1,(1.0544208940658713e-14, 172.20000000000002),23,-5,12,yes,x,5,m,1.8264456999995673,0,59,test1,2,1.8267186000002766,-50.0
20,jq,f,19,r,1,(121.76378772032346, -121.76378772032352),28,5,2,yes,x,5,x,0.6932408000002397,1,60,test1,2,0.6937164000000848,-40.0
20,jq,f,19,r,1,(-172.20000000000002, 2.1088417881317425e-14),25,7,3,no,m,6,m,0.9909050000005664,1,61,test1,2,0.991009500000473,-40.0
20,jq,f,19,r,1,(-3.163262682197613e-14, -172.20000000000002),27,-7,13,yes,x,5,x,0.6080551000004562,1,62,test1,2,0.6084312000002683,-52.0
20,jq,f,19,r,1,(1.0544208940658713e-14, 172.20000000000002),23,-25,14,no,m,6,m,0.8766118000003189,1,63,test1,2,0.8768904999997176,-52.0
20,jq,f,19,r,1,(172.20000000000002, 0.0),21,-3,11,yes,x,5,x,0.8057293000001664,1,64,test1,2,0.8059306000004653,-48.0
20,jq,f,19,r,1,(-3.163262682197613e-14, -172.20000000000002),27,-3,11,no,m,6,x,0.6432553000004191,0,65,test1,2,0.6434121000002051,-48.0
20,jq,f,19,r,1,(172.20000000000002, 0.0),21,7,3,yes,x,5,x,0.6579030000002604,1,66,test1,2,0.6580010999996375,-38.0
20,jq,f,19,r,1,(172.20000000000002, 0.0),21,3,1,yes,x,5,x,1.4140931000001729,1,67,test1,2,1.4142121000004408,-42.0
20,jq,f,19,r,1,(-121.76378772032352, -121.76378772032348),26,25,4,yes,x,5,x,0.6071068999999625,1,68,test1,2,0.6073532999998861,-20.0
20,jq,f,19,r,1,(-3.163262682197613e-14, -172.20000000000002),27,25,4,yes,x,5,x,0.516791000000012,1,69,test1,2,0.5169711999997162,-20.0
20,jq,f,19,r,1,(-172.20000000000002, 2.1088417881317425e-14),25,-5,12,yes,x,5,x,0.7378058000003875,1,70,test1,2,0.73790420000023,-50.0
20,jq,f,19,r,1,(-3.163262682197613e-14, -172.20000000000002),27,25,4,no,m,6,m,0.7269558000007237,1,71,test1,2,0.7274360000001252,-50.0
20,jq,f,19,r,1,(-121.76378772032352, -121.76378772032348),26,-3,11,no,m,6,m,0.7705197999994198,1,72,test1,2,0.7710361999997986,-50.0
20,jq,f,19,r,1,(-121.76378772032352, -121.76378772032348),26,7,3,no,m,6,x,0.7830728999997518,0,73,test1,2,0.7832410000000891,-50.0
20,jq,f,19,r,1,(1.0544208940658713e-14, 172.20000000000002),23,7,3,yes,x,5,x,0.5417955000002621,1,74,test1,2,0.5419003000006342,-38.0
20,jq,f,19,r,1,(121.76378772032346, -121.76378772032352),28,-25,14,no,m,6,m,0.6754243999994287,1,75,test1,2,0.6756675000005998,-38.0
20,jq,f,19,r,1,(121.76378772032346, -121.76378772032352),28,-3,11,yes,x,5,m,0.6836675999993531,0,76,test1,2,0.6841408999998748,-48.0
20,jq,f,19,r,1,(-121.76378772032352, -121.76378772032348),26,25,4,yes,x,5,x,0.48061109999980545,1,77,test1,2,0.4810435999997935,-20.0
20,jq,f,19,r,1,(1.0544208940658713e-14, 172.20000000000002),23,25,4,no,m,6,m,0.7111985000001368,1,78,test1,2,0.71178559999953,-20.0
20,jq,f,19,r,1,(-121.76378772032348, 121.76378772032349),24,7,3,yes,x,5,x,0.7389398000004803,1,79,test1,2,0.7390523000003668,-38.0
20,jq,f,19,r,1,(121.76378772032346, -121.76378772032352),28,3,1,yes,x,5,x,1.259527700000035,1,80,test1,2,1.259744099999807,-42.0
20,jq,f,19,r,1,(-121.76378772032348, 121.76378772032349),24,7,3,yes,x,5,x,0.5577369000002363,1,81,test1,2,0.5583023000008325,-38.0
20,jq,f,19,r,1,(-3.163262682197613e-14, -172.20000000000002),27,-5,12,no,m,6,m,0.9735655999993469,1,82,test1,2,0.9738514000000578,-38.0
20,jq,f,19,r,1,(-3.163262682197613e-14, -172.20000000000002),27,5,2,yes,x,5,x,0.8647965999998632,1,83,test1,2,0.8650311999999758,-40.0
20,jq,f,19,r,1,(121.76378772032346, -121.76378772032352),28,25,4,yes,x,5,x,0.5394279000001916,1,84,test1,2,0.5396641000006639,-20.0
20,jq,f,19,r,1,(-121.76378772032352, -121.76378772032348),26,5,2,yes,x,5,x,0.8348979000002146,1,85,test1,2,0.8350553000000218,-40.0
20,jq,f,19,r,1,(-121.76378772032352, -121.76378772032348),26,7,3,yes,x,5,x,0.5428769999998622,1,86,test1,2,0.5429771999997683,-38.0
20,jq,f,19,r,1,(172.20000000000002, 0.0),21,5,2,no,m,6,m,0.6379823000006581,1,87,test1,2,0.6383479999994961,-38.0
20,jq,f,19,r,1,(1.0544208940658713e-14, 172.20000000000002),23,3,1,yes,x,5,x,0.8220823999999993,1,88,test1,2,0.822448699999768,-42.0
20,jq,f,19,r,1,(-121.76378772032348, 121.76378772032349),24,25,4,no,m,6,m,1.3016360000001441,1,89,test1,2,1.3017718999999488,-42.0
20,jq,f,19,r,1,(-3.163262682197613e-14, -172.20000000000002),27,7,3,yes,x,5,x,0.6774426000001768,1,90,test1,2,0.677611999999499,-38.0
20,jq,f,19,r,1,(-121.76378772032348, 121.76378772032349),24,-5,12,yes,x,5,x,1.4288367999997718,1,91,test1,2,1.4295318000004045,-50.0
20,jq,f,19,r,1,(-121.76378772032348, 121.76378772032349),24,3,1,yes,x,5,m,0.914276699999391,0,92,test1,2,0.9143749999993815,-42.0
20,jq,f,19,r,1,(1.0544208940658713e-14, 172.20000000000002),23,-5,12,yes,x,5,x,0.7404962000000523,1,93,test1,2,0.7407926000005318,-50.0
20,jq,f,19,r,1,(-121.76378772032348, 121.76378772032349),24,-7,13,yes,x,5,x,0.6859722999997757,1,94,test1,2,0.6860995999995794,-52.0
20,jq,f,19,r,1,(121.76378772032346, -121.76378772032352),28,7,3,yes,x,5,x,1.0975381000007474,1,95,test1,2,1.0976965999998356,-38.0
20,jq,f,19,r,1,(1.0544208940658713e-14, 172.20000000000002),23,25,4,yes,x,5,x,0.6952327999997578,1,96,test1,2,0.6957410000004529,-20.0
20,jq,f,19,r,1,(-121.76378772032352, -121.76378772032348),26,7,3,yes,x,5,x,1.1049559000002773,1,1,test2,2,1.1050648999998884,-38.0
20,jq,f,19,r,1,(-121.76378772032348, 121.76378772032349),24,-25,14,yes,x,5,x,0.4960584000000381,1,2,test2,2,0.49638230000073236,-70.0
20,jq,f,19,r,1,(121.76378772032349, 121.76378772032349),22,7,3,yes,x,5,x,0.5538992000001599,1,3,test2,2,0.5545981000004758,-38.0
20,jq,f,19,r,1,(121.76378772032346, -121.76378772032352),28,25,4,yes,x,5,x,0.44970240000020567,1,4,test2,2,0.4498364999999467,-20.0
20,jq,f,19,r,1,(1.0544208940658713e-14, 172.20000000000002),23,5,2,yes,x,5,x,0.6283290999999736,1,5,test2,2,0.6284413000003042,-40.0
20,jq,f,19,r,1,(-121.76378772032348, 121.76378772032349),24,3,1,yes,x,5,x,0.7797500999995464,1,6,test2,2,0.7798512999997911,-42.0
20,jq,f,19,r,1,(172.20000000000002, 0.0),21,5,2,yes,x,5,x,0.5041508000003887,1,7,test2,2,0.5043793999993795,-40.0
20,jq,f,19,r,1,(-121.76378772032352, -121.76378772032348),26,-25,14,no,m,6,x,0.6191547999997056,0,8,test2,2,0.6192829000001439,-40.0
20,jq,f,19,r,1,(1.0544208940658713e-14, 172.20000000000002),23,-3,11,no,m,6,x,1.1575806999999259,0,9,test2,2,1.1578693999999814,-40.0
20,jq,f,19,r,1,(-121.76378772032348, 121.76378772032349),24,7,3,no,m,6,m,0.739150299999892,1,10,test2,2,0.7392502000002423,-40.0
20,jq,f,19,r,1,(172.20000000000002, 0.0),21,-3,11,yes,x,5,x,0.8109729999996489,1,11,test2,2,0.8116172999998525,-48.0
20,jq,f,19,r,1,(121.76378772032346, -121.76378772032352),28,-25,14,yes,x,5,x,0.6321368999997503,1,12,test2,2,0.6322395000006509,-70.0
20,jq,f,19,r,1,(121.76378772032346, -121.76378772032352),28,7,3,yes,x,5,x,1.1070841000000655,1,13,test2,2,1.1077417999995305,-38.0
20,jq,f,19,r,1,(121.76378772032349, 121.76378772032349),22,-5,12,yes,x,5,x,0.6675224000000526,1,14,test2,2,0.667857900000854,-50.0
20,jq,f,19,r,1,(172.20000000000002, 0.0),21,5,2,yes,x,5,x,0.8246759000003294,1,15,test2,2,0.8250643999999738,-40.0
20,jq,f,19,r,1,(172.20000000000002, 0.0),21,-25,14,yes,x,5,x,0.6491749999995591,1,16,test2,2,0.6494321000000127,-70.0
20,jq,f,19,r,1,(-172.20000000000002, 2.1088417881317425e-14),25,7,3,yes,x,5,x,0.5213985000000321,1,17,test2,2,0.5216261000005034,-38.0
20,jq,f,19,r,1,(121.76378772032346, -121.76378772032352),28,-7,13,yes,x,5,x,0.6577290999994148,1,18,test2,2,0.6583223999996335,-52.0
20,jq,f,19,r,1,(-172.20000000000002, 2.1088417881317425e-14),25,3,1,yes,x,5,x,0.8583665000005567,1,19,test2,2,0.8587547999995877,-42.0
20,jq,f,19,r,1,(121.76378772032346, -121.76378772032352),28,-7,13,yes,x,5,x,0.8377938000003269,1,20,test2,2,0.8380166999995708,-52.0
20,jq,f,19,r,1,(-121.76378772032352, -121.76378772032348),26,25,4,no,m,6,m,1.227494700000534,1,21,test2,2,1.2277913000007175,-52.0
20,jq,f,19,r,1,(121.76378772032349, 121.76378772032349),22,-7,13,yes,x,5,x,0.5820883999995203,1,22,test2,2,0.5823129999998855,-52.0
20,jq,f,19,r,1,(-121.76378772032348, 121.76378772032349),24,-25,14,no,m,6,m,0.977321899999879,1,23,test2,2,0.9775055999998585,-52.0
20,jq,f,19,r,1,(1.0544208940658713e-14, 172.20000000000002),23,-7,13,yes,x,5,x,0.7301588000000265,1,24,test2,2,0.7304481999999552,-52.0
20,jq,f,19,r,1,(1.0544208940658713e-14, 172.20000000000002),23,3,1,no,m,6,m,1.5649048000004768,1,25,test2,2,1.565355300000192,-52.0
20,jq,f,19,r,1,(172.20000000000002, 0.0),21,-25,14,no,m,6,m,0.8575451000006069,1,26,test2,2,0.8577543000001242,-52.0
20,jq,f,19,r,1,(-3.163262682197613e-14, -172.20000000000002),27,3,1,no,m,6,m,0.8431651999999303,1,27,test2,2,0.8433803999996599,-52.0
20,jq,f,19,r,1,(-121.76378772032352, -121.76378772032348),26,-25,14,yes,x,5,x,0.6028665999992882,1,28,test2,2,0.6032107000000906,-70.0
20,jq,f,19,r,1,(172.20000000000002, 0.0),21,7,3,no,m,6,m,0.9555671999996775,1,29,test2,2,0.9557307999994009,-70.0
20,jq,f,19,r,1,(1.0544208940658713e-14, 172.20000000000002),23,-3,11,yes,x,5,x,0.6535297999998875,1,30,test2,2,0.6536328000001959,-48.0
20,jq,f,19,r,1,(1.0544208940658713e-14, 172.20000000000002),23,5,2,no,m,6,None,None,0,31,test2,2,1.9800884999995105,-48.0
20,jq,f,19,r,1,(-172.20000000000002, 2.1088417881317425e-14),25,7,3,yes,x,5,x,0.5355362000000241,1,32,test2,2,0.5356357000000571,-38.0
20,jq,f,19,r,1,(121.76378772032349, 121.76378772032349),22,5,2,no,m,6,x,0.6348538000002009,0,33,test2,2,0.6349755999999616,-38.0
20,jq,f,19,r,1,(1.0544208940658713e-14, 172.20000000000002),23,25,4,yes,x,5,x,0.4929119000007631,1,34,test2,2,0.4931211999992229,-20.0
20,jq,f,19,r,1,(1.0544208940658713e-14, 172.20000000000002),23,-7,13,no,m,6,m,0.8171447000004264,1,35,test2,2,0.8173010999998951,-20.0
20,jq,f,19,r,1,(1.0544208940658713e-14, 172.20000000000002),23,-25,14,yes,x,5,x,0.5086091000011947,1,36,test2,2,0.5087860000003275,-70.0
20,jq,f,19,r,1,(-121.76378772032348, 121.76378772032349),24,5,2,no,m,6,m,1.3992330999990372,1,37,test2,2,1.3997167999987141,-70.0
20,jq,f,19,r,1,(-172.20000000000002, 2.1088417881317425e-14),25,-5,12,yes,x,5,x,0.7110034999986965,1,38,test2,2,0.7111170000007405,-50.0
20,jq,f,19,r,1,(-3.163262682197613e-14, -172.20000000000002),27,-25,14,yes,x,5,x,1.2564001999999164,1,39,test2,2,1.2566311999999016,-70.0
20,jq,f,19,r,1,(-3.163262682197613e-14, -172.20000000000002),27,7,3,yes,x,5,x,0.6551147999998648,1,40,test2,2,0.6552543000016158,-38.0
20,jq,f,19,r,1,(-121.76378772032352, -121.76378772032348),26,-7,13,yes,x,5,x,0.7294511999989481,1,41,test2,2,0.7295517000002292,-52.0
20,jq,f,19,r,1,(121.76378772032349, 121.76378772032349),22,-7,13,yes,x,5,x,0.9302352000013343,1,42,test2,2,0.9304118999989441,-52.0
20,jq,f,19,r,1,(-121.76378772032352, -121.76378772032348),26,3,1,no,m,6,m,0.8369507000006706,1,43,test2,2,0.8370993999997154,-52.0
20,jq,f,19,r,1,(-121.76378772032352, -121.76378772032348),26,-7,13,no,m,6,x,0.5575838999993721,0,44,test2,2,0.5577140999994299,-52.0
20,jq,f,19,r,1,(-172.20000000000002, 2.1088417881317425e-14),25,-7,13,yes,x,5,x,0.6030652000008558,1,45,test2,2,0.6031683999990491,-52.0
20,jq,f,19,r,1,(-172.20000000000002, 2.1088417881317425e-14),25,25,4,no,m,6,m,0.8874691000000894,1,46,test2,2,0.8875917000004847,-52.0
20,jq,f,19,r,1,(-3.163262682197613e-14, -172.20000000000002),27,-3,11,yes,x,5,m,1.488532600000326,0,47,test2,2,1.4888005999982852,-48.0
20,jq,f,19,r,1,(-172.20000000000002, 2.1088417881317425e-14),25,-7,13,yes,x,5,x,0.6125484999993205,1,48,test2,2,0.6131765999998606,-52.0
20,jq,f,19,r,1,(-3.163262682197613e-14, -172.20000000000002),27,5,2,no,m,6,m,0.7467716000010114,1,49,test2,2,0.7474438000008377,-52.0
20,jq,f,19,r,1,(-3.163262682197613e-14, -172.20000000000002),27,-7,13,yes,x,5,x,1.276815400000487,1,50,test2,2,1.2770411000001332,-52.0
20,jq,f,19,r,1,(-172.20000000000002, 2.1088417881317425e-14),25,25,4,yes,x,5,x,0.4519261999994342,1,51,test2,2,0.4521530000001803,-20.0
20,jq,f,19,r,1,(-121.76378772032352, -121.76378772032348),26,-5,12,yes,x,5,x,0.8887758000000758,1,52,test2,2,0.8888767000007647,-50.0
20,jq,f,19,r,1,(1.0544208940658713e-14, 172.20000000000002),23,-3,11,yes,x,5,m,0.6797778000000108,0,53,test2,2,0.6801247000003059,-48.0
20,jq,f,19,r,1,(-172.20000000000002, 2.1088417881317425e-14),25,-3,11,no,m,6,m,0.9413627000012639,1,54,test2,2,0.9415915999998106,-48.0
20,jq,f,19,r,1,(-121.76378772032348, 121.76378772032349),24,25,4,yes,x,5,x,0.5098349999989296,1,55,test2,2,0.5099499000007199,-20.0
20,jq,f,19,r,1,(172.20000000000002, 0.0),21,7,3,yes,x,5,x,0.8011664000005112,1,56,test2,2,0.8013353000005736,-38.0
20,jq,f,19,r,1,(-3.163262682197613e-14, -172.20000000000002),27,-25,14,yes,x,5,x,0.9336195000014413,1,57,test2,2,0.9339529000008042,-70.0
20,jq,f,19,r,1,(-121.76378772032348, 121.76378772032349),24,-5,12,yes,x,5,x,0.6652795000009064,1,58,test2,2,0.6653934999994817,-50.0
20,jq,f,19,r,1,(172.20000000000002, 0.0),21,-25,14,yes,x,5,x,0.5564384000008431,1,59,test2,2,0.5567411000010907,-70.0
20,jq,f,19,r,1,(1.0544208940658713e-14, 172.20000000000002),23,-5,12,no,m,6,m,0.9327623000008316,1,60,test2,2,0.9331469999997353,-70.0
20,jq,f,19,r,1,(172.20000000000002, 0.0),21,25,4,yes,x,5,x,0.6409196000004158,1,61,test2,2,0.6410525999999663,-20.0
20,jq,f,19,r,1,(-121.76378772032352, -121.76378772032348),26,5,2,no,m,6,m,1.2498696999991807,1,62,test2,2,1.250314900000376,-20.0
20,jq,f,19,r,1,(1.0544208940658713e-14, 172.20000000000002),23,-25,14,yes,x,5,x,0.5668928999984928,1,63,test2,2,0.5669960999985051,-70.0
20,jq,f,19,r,1,(1.0544208940658713e-14, 172.20000000000002),23,-7,13,yes,x,5,x,0.5815903000002436,1,64,test2,2,0.5820196999993641,-52.0
20,jq,f,19,r,1,(-172.20000000000002, 2.1088417881317425e-14),25,-5,12,no,m,6,x,0.6589077000007819,0,65,test2,2,0.6590849999993225,-52.0
20,jq,f,19,r,1,(-3.163262682197613e-14, -172.20000000000002),27,-5,12,yes,x,5,x,0.7961077999989357,1,66,test2,2,0.7962913999999728,-50.0
20,jq,f,19,r,1,(172.20000000000002, 0.0),21,25,4,no,m,6,m,0.5977856999998039,1,67,test2,2,0.597916400000031,-50.0
20,jq,f,19,r,1,(-3.163262682197613e-14, -172.20000000000002),27,3,1,yes,x,5,m,0.8450140999993891,0,68,test2,2,0.8451188999988517,-42.0
20,jq,f,19,r,1,(172.20000000000002, 0.0),21,-7,13,yes,x,5,x,0.7045128000008845,1,69,test2,2,0.7048845999997866,-52.0
20,jq,f,19,r,1,(-121.76378772032348, 121.76378772032349),24,5,2,yes,x,5,x,0.5463550999993458,1,70,test2,2,0.5464933999992354,-40.0
20,jq,f,19,r,1,(-172.20000000000002, 2.1088417881317425e-14),25,-25,14,yes,x,5,x,0.6123411999997188,1,71,test2,2,0.6124528000000282,-70.0
20,jq,f,19,r,1,(121.76378772032349, 121.76378772032349),22,-5,12,no,m,6,m,0.7826668999987305,1,72,test2,2,0.7827950999999302,-70.0
20,jq,f,19,r,1,(-121.76378772032348, 121.76378772032349),24,5,2,yes,x,5,x,0.6200969000001351,1,73,test2,2,0.6202123000002757,-40.0
20,jq,f,19,r,1,(172.20000000000002, 0.0),21,-7,13,yes,x,5,x,1.2349432000009983,1,74,test2,2,1.2352317000004405,-52.0
20,jq,f,19,r,1,(-121.76378772032352, -121.76378772032348),26,3,1,yes,x,5,x,0.9410410999989836,1,75,test2,2,0.9412281000004441,-42.0
20,jq,f,19,r,1,(-172.20000000000002, 2.1088417881317425e-14),25,-3,11,yes,x,5,x,1.2373073999988264,1,76,test2,2,1.237833999999566,-48.0
20,jq,f,19,r,1,(-121.76378772032348, 121.76378772032349),24,25,4,yes,x,5,x,0.5810557000004337,1,77,test2,2,0.5812755999995716,-20.0
20,jq,f,19,r,1,(172.20000000000002, 0.0),21,-5,12,no,m,6,m,0.7518832000005204,1,78,test2,2,0.7519843999998557,-20.0
20,jq,f,19,r,1,(-3.163262682197613e-14, -172.20000000000002),27,-5,12,yes,x,5,m,1.238631299998815,0,79,test2,2,1.239013200000045,-50.0
20,jq,f,19,r,1,(121.76378772032346, -121.76378772032352),28,3,1,no,m,6,m,1.6561356000001979,1,80,test2,2,1.656808199999432,-50.0
20,jq,f,19,r,1,(121.76378772032346, -121.76378772032352),28,-3,11,no,m,6,x,0.9022366999997757,0,81,test2,2,0.9023482000011427,-50.0
20,jq,f,19,r,1,(-121.76378772032352, -121.76378772032348),26,3,1,yes,x,5,x,0.9485380999994959,1,82,test2,2,0.9486406999985775,-42.0
20,jq,f,19,r,1,(172.20000000000002, 0.0),21,3,1,no,m,6,m,0.8340115999999398,1,83,test2,2,0.8343294999995123,-42.0
20,jq,f,19,r,1,(-172.20000000000002, 2.1088417881317425e-14),25,3,1,yes,x,5,m,0.6491939000006823,0,84,test2,2,0.6494853000003786,-42.0
20,jq,f,19,r,1,(121.76378772032349, 121.76378772032349),22,-3,11,yes,x,5,m,0.6447129000007408,0,85,test2,2,0.6449013999990711,-48.0
20,jq,f,19,r,1,(121.76378772032349, 121.76378772032349),22,-25,14,yes,x,5,x,0.5611852999991243,1,86,test2,2,0.5613501999996515,-70.0
20,jq,f,19,r,1,(121.76378772032349, 121.76378772032349),22,-25,14,yes,x,5,x,0.41570689999934984,1,87,test2,2,0.41582390000075975,-70.0
20,jq,f,19,r,1,(-3.163262682197613e-14, -172.20000000000002),27,5,2,yes,x,5,x,0.9563051000004634,1,88,test2,2,0.9564198999996734,-40.0
20,jq,f,19,r,1,(121.76378772032346, -121.76378772032352),28,-3,11,yes,x,5,m,1.033097399998951,0,89,test2,2,1.0333751999987726,-48.0
20,jq,f,19,r,1,(-172.20000000000002, 2.1088417881317425e-14),25,5,2,yes,x,5,x,0.7845448000007309,1,90,test2,2,0.7847025000010035,-40.0
20,jq,f,19,r,1,(-121.76378772032348, 121.76378772032349),24,-3,11,yes,x,5,x,0.8212805000002845,1,91,test2,2,0.821398500000214,-48.0
20,jq,f,19,r,1,(172.20000000000002, 0.0),21,3,1,yes,x,5,x,0.7593852000009065,1,92,test2,2,0.7594883000001573,-42.0
20,jq,f,19,r,1,(172.20000000000002, 0.0),21,-5,12,yes,x,5,x,0.774169799999072,1,93,test2,2,0.7745078999996622,-50.0
20,jq,f,19,r,1,(1.0544208940658713e-14, 172.20000000000002),23,5,2,yes,x,5,x,0.5773564000010083,1,94,test2,2,0.57782860000043,-40.0
20,jq,f,19,r,1,(-121.76378772032348, 121.76378772032349),24,-3,11,no,m,6,x,1.3909955999988597,0,95,test2,2,1.3912820999994437,-40.0
20,jq,f,19,r,1,(121.76378772032349, 121.76378772032349),22,3,1,yes,x,5,x,0.8417200000003504,1,96,test2,2,0.8418196000002354,-42.0
20,jq,f,19,r,1,(121.76378772032346, -121.76378772032352),28,-5,12,no,m,6,m,0.8946530999983224,1,1,test1,3,0.8947855999995227,-42.0
20,jq,f,19,r,1,(-3.163262682197613e-14, -172.20000000000002),27,-7,13,no,m,6,m,0.6159876000001532,1,2,test1,3,0.6162489999987883,-42.0
20,jq,f,19,r,1,(-172.20000000000002, 2.1088417881317425e-14),25,25,4,yes,x,5,x,0.5240948999999091,1,3,test1,3,0.5242142000006424,-20.0
20,jq,f,19,r,1,(-3.163262682197613e-14, -172.20000000000002),27,7,3,no,m,6,m,0.8690289999995002,1,4,test1,3,0.8691460999998526,-20.0
20,jq,f,19,r,1,(172.20000000000002, 0.0),21,25,4,yes,x,5,x,0.6145945999996911,1,5,test1,3,0.6146977999997034,-20.0
20,jq,f,19,r,1,(-121.76378772032348, 121.76378772032349),24,-7,13,no,m,6,m,1.257839599998988,1,6,test1,3,1.2579803000007814,-20.0
20,jq,f,19,r,1,(-121.76378772032352, -121.76378772032348),26,-3,11,yes,x,5,x,0.5662855000009586,1,7,test1,3,0.5664214999997057,-48.0
20,jq,f,19,r,1,(121.76378772032349, 121.76378772032349),22,5,2,yes,x,5,x,0.7519804000003205,1,8,test1,3,0.752199999998993,-40.0
20,jq,f,19,r,1,(121.76378772032346, -121.76378772032352),28,25,4,no,m,6,x,0.8065420999992057,0,9,test1,3,0.8072179999999207,-40.0
20,jq,f,19,r,1,(-172.20000000000002, 2.1088417881317425e-14),25,-3,11,yes,x,5,x,1.1476524000008794,1,10,test1,3,1.147757000000638,-48.0
20,jq,f,19,r,1,(-172.20000000000002, 2.1088417881317425e-14),25,-25,14,yes,x,5,x,0.7347479999989446,1,11,test1,3,0.7353787000010925,-70.0
20,jq,f,19,r,1,(172.20000000000002, 0.0),21,-7,13,no,m,6,m,0.9847209999988991,1,12,test1,3,0.9849512000000686,-70.0
20,jq,f,19,r,1,(-3.163262682197613e-14, -172.20000000000002),27,-25,14,no,m,6,x,0.7154881999995268,0,13,test1,3,0.715823200000159,-70.0
20,jq,f,19,r,1,(-172.20000000000002, 2.1088417881317425e-14),25,-25,14,no,m,6,x,1.265317999999752,0,14,test1,3,1.2654177000003983,-70.0
20,jq,f,19,r,1,(-121.76378772032348, 121.76378772032349),24,-5,12,no,m,6,m,1.2372434999997495,1,15,test1,3,1.2376139000007242,-70.0
20,jq,f,19,r,1,(-121.76378772032352, -121.76378772032348),26,-7,13,yes,x,5,x,0.6034440999992512,1,16,test1,3,0.6037457999991602,-52.0
20,jq,f,19,r,1,(1.0544208940658713e-14, 172.20000000000002),23,7,3,yes,x,5,x,0.5863878000000113,1,17,test1,3,0.5868239999999787,-38.0
20,jq,f,19,r,1,(121.76378772032349, 121.76378772032349),22,-5,12,yes,x,5,m,0.6961272999997163,0,18,test1,3,0.6963347000000795,-50.0
20,jq,f,19,r,1,(121.76378772032349, 121.76378772032349),22,-3,11,yes,x,5,x,0.9610831999998481,1,19,test1,3,0.9612140000008367,-48.0
20,jq,f,19,r,1,(121.76378772032349, 121.76378772032349),22,7,3,no,m,6,m,0.8020787999994354,1,20,test1,3,0.8023898999999801,-48.0
20,jq,f,19,r,1,(121.76378772032349, 121.76378772032349),22,5,2,yes,x,5,x,1.387597499999174,1,21,test1,3,1.38782159999937,-40.0
20,jq,f,19,r,1,(-121.76378772032352, -121.76378772032348),26,5,2,yes,x,5,x,0.6319144999997661,1,22,test1,3,0.6320397999988927,-40.0
20,jq,f,19,r,1,(-121.76378772032352, -121.76378772032348),26,-3,11,yes,x,5,x,1.0977557999995042,1,23,test1,3,1.0979721000003337,-48.0
20,jq,f,19,r,1,(-3.163262682197613e-14, -172.20000000000002),27,3,1,yes,x,5,x,1.3513476000007358,1,24,test1,3,1.3514529000003677,-42.0
20,jq,f,19,r,1,(121.76378772032346, -121.76378772032352),28,-5,12,yes,x,5,x,1.1973615000006248,1,25,test1,3,1.1976643000016338,-50.0
20,jq,f,19,r,1,(121.76378772032349, 121.76378772032349),22,-25,14,no,m,6,m,1.1439439999994647,1,26,test1,3,1.144578099998398,-50.0
20,jq,f,19,r,1,(172.20000000000002, 0.0),21,-3,11,no,m,6,x,0.7435563999988517,0,27,test1,3,0.7437964999990072,-50.0
20,jq,f,19,r,1,(121.76378772032346, -121.76378772032352),28,7,3,no,m,6,x,0.9710957999996026,0,28,test1,3,0.9713924000006955,-50.0
20,jq,f,19,r,1,(-121.76378772032352, -121.76378772032348),26,-5,12,yes,x,5,x,0.7387973000004422,1,29,test1,3,0.73896539999987,-50.0
20,jq,f,19,r,1,(-121.76378772032348, 121.76378772032349),24,-7,13,yes,x,5,x,0.6628237000004447,1,30,test1,3,0.6629471999985981,-52.0
20,jq,f,19,r,1,(121.76378772032349, 121.76378772032349),22,7,3,yes,x,5,x,0.8314848999998503,1,31,test1,3,0.8315864000014699,-38.0
20,jq,f,19,r,1,(121.76378772032349, 121.76378772032349),22,25,4,no,m,6,m,1.6804788000008557,1,32,test1,3,1.6809905000009167,-38.0
20,jq,f,19,r,1,(-172.20000000000002, 2.1088417881317425e-14),25,3,1,no,m,6,m,0.9577841000009357,1,33,test1,3,0.958129700000427,-38.0
20,jq,f,19,r,1,(-121.76378772032352, -121.76378772032348),26,-25,14,yes,x,5,x,0.5282732000014221,1,34,test1,3,0.5291331999997055,-70.0
20,jq,f,19,r,1,(1.0544208940658713e-14, 172.20000000000002),23,3,1,yes,x,5,m,0.7330798999992112,0,35,test1,3,0.7332452000009653,-42.0
20,jq,f,19,r,1,(-121.76378772032352, -121.76378772032348),26,-5,12,no,m,6,x,1.4718204000000696,0,36,test1,3,1.4719918999999209,-42.0
20,jq,f,19,r,1,(121.76378772032346, -121.76378772032352),28,3,1,yes,x,5,x,0.941850200000772,1,37,test1,3,0.9419801999993069,-42.0
20,jq,f,19,r,1,(1.0544208940658713e-14, 172.20000000000002),23,7,3,no,m,6,m,0.7284008000005997,1,38,test1,3,0.7285044999989623,-42.0
20,jq,f,19,r,1,(-3.163262682197613e-14, -172.20000000000002),27,-3,11,yes,x,5,x,1.040299000000232,1,39,test1,3,1.0403944000008778,-48.0
20,jq,f,19,r,1,(-3.163262682197613e-14, -172.20000000000002),27,25,4,yes,x,5,x,0.6559252999995806,1,40,test1,3,0.6560492000007798,-20.0
20,jq,f,19,r,1,(121.76378772032349, 121.76378772032349),22,25,4,yes,x,5,x,0.5947860999986005,1,41,test1,3,0.5948862000004738,-20.0
20,jq,f,19,r,1,(-172.20000000000002, 2.1088417881317425e-14),25,5,2,no,m,6,m,0.8326350000006641,1,42,test1,3,0.8329584000002797,-20.0
20,jq,f,19,r,1,(-121.76378772032348, 121.76378772032349),24,-3,11,yes,x,5,x,0.6647241000009672,1,43,test1,3,0.6648224000000482,-48.0
20,jq,f,19,r,1,(121.76378772032346, -121.76378772032352),28,-7,13,no,m,6,x,0.9108993000008923,0,44,test1,3,0.9112994999995863,-48.0
20,jq,f,19,r,1,(-121.76378772032348, 121.76378772032349),24,-25,14,yes,x,5,x,0.6097197999988566,1,45,test1,3,0.6098190000011527,-70.0
20,jq,f,19,r,1,(121.76378772032346, -121.76378772032352),28,5,2,no,m,6,m,1.530134000000544,1,46,test1,3,1.5302437999998801,-70.0
20,jq,f,19,r,1,(121.76378772032349, 121.76378772032349),22,3,1,yes,x,5,m,0.6247515000013664,0,47,test1,3,0.6248477999997704,-42.0
20,jq,f,19,r,1,(-172.20000000000002, 2.1088417881317425e-14),25,-7,13,no,m,6,m,0.6233723000004829,1,48,test1,3,0.6235945000007632,-42.0
20,jq,f,19,r,1,(121.76378772032349, 121.76378772032349),22,3,1,no,m,6,m,0.6244636999999784,1,49,test1,3,0.6247405000012805,-42.0
20,jq,f,19,r,1,(121.76378772032346, -121.76378772032352),28,-25,14,yes,x,5,x,0.6799087999988842,1,50,test1,3,0.6801034000000072,-70.0
20,jq,f,19,r,1,(-121.76378772032348, 121.76378772032349),24,3,1,no,m,6,m,1.701425699999163,1,51,test1,3,1.7016898000001675,-70.0
20,jq,f,19,r,1,(121.76378772032346, -121.76378772032352),28,5,2,yes,x,5,x,0.8417623000004824,1,52,test1,3,0.8420804000015778,-40.0
20,jq,f,19,r,1,(121.76378772032346, -121.76378772032352),28,-5,12,yes,x,5,x,0.7493264999993698,1,53,test1,3,0.749530600000071,-50.0
20,jq,f,19,r,1,(121.76378772032349, 121.76378772032349),22,25,4,yes,x,5,x,0.5492155000010825,1,54,test1,3,0.5498837000013737,-20.0
20,jq,f,19,r,1,(172.20000000000002, 0.0),21,-5,12,yes,x,5,x,0.6898393999999826,1,55,test1,3,0.689965099998517,-50.0
20,jq,f,19,r,1,(-172.20000000000002, 2.1088417881317425e-14),25,5,2,yes,x,5,x,0.8631480999993073,1,56,test1,3,0.8632522999996581,-40.0
20,jq,f,19,r,1,(121.76378772032349, 121.76378772032349),22,-3,11,no,m,6,m,0.9329515999997966,1,57,test1,3,0.9330559999998513,-40.0
20,jq,f,19,r,1,(121.76378772032349, 121.76378772032349),22,-7,13,no,m,6,x,0.6432236000000557,0,58,test1,3,0.6438837000005151,-40.0
20,jq,f,19,r,1,(1.0544208940658713e-14, 172.20000000000002),23,-5,12,yes,x,5,x,0.5840600000010454,1,59,test1,3,0.5842806000000564,-50.0
20,jq,f,19,r,1,(121.76378772032346, -121.76378772032352),28,5,2,yes,x,5,x,0.8120765999992727,1,60,test1,3,0.8123606000008294,-40.0
20,jq,f,19,r,1,(-172.20000000000002, 2.1088417881317425e-14),25,7,3,no,m,6,m,0.8986915000004956,1,61,test1,3,0.8987915999987308,-40.0
20,jq,f,19,r,1,(-3.163262682197613e-14, -172.20000000000002),27,-7,13,yes,x,5,x,0.6588625000003958,1,62,test1,3,0.6591645999997127,-52.0
20,jq,f,19,r,1,(1.0544208940658713e-14, 172.20000000000002),23,-25,14,no,m,6,m,0.9236614000001282,1,63,test1,3,0.9238211000010779,-52.0
20,jq,f,19,r,1,(172.20000000000002, 0.0),21,-3,11,yes,x,5,x,0.7248822999990807,1,64,test1,3,0.7250080000012531,-48.0
20,jq,f,19,r,1,(-3.163262682197613e-14, -172.20000000000002),27,-3,11,no,m,6,m,1.5015007999991212,1,65,test1,3,1.501618000000235,-48.0
20,jq,f,19,r,1,(172.20000000000002, 0.0),21,7,3,yes,x,5,x,0.7005040000003646,1,66,test1,3,0.7007460000004357,-38.0
20,jq,f,19,r,1,(172.20000000000002, 0.0),21,3,1,yes,x,5,x,0.8700996000006853,1,67,test1,3,0.8702597999999853,-42.0
20,jq,f,19,r,1,(-121.76378772032352, -121.76378772032348),26,25,4,yes,x,5,x,0.51687099999981,1,68,test1,3,0.5169693999996525,-20.0
20,jq,f,19,r,1,(-3.163262682197613e-14, -172.20000000000002),27,25,4,yes,x,5,x,0.5098280999991402,1,69,test1,3,0.510372599999755,-20.0
20,jq,f,19,r,1,(-172.20000000000002, 2.1088417881317425e-14),25,-5,12,yes,x,5,x,0.6645444000005227,1,70,test1,3,0.6646751000007498,-50.0
20,jq,f,19,r,1,(-3.163262682197613e-14, -172.20000000000002),27,25,4,no,m,6,m,1.071909099999175,1,71,test1,3,1.0722024000006058,-50.0
20,jq,f,19,r,1,(-121.76378772032352, -121.76378772032348),26,-3,11,no,m,6,m,1.3155927999996493,1,72,test1,3,1.3160428999999567,-50.0
20,jq,f,19,r,1,(-121.76378772032352, -121.76378772032348),26,7,3,no,m,6,m,0.6125606999994488,1,73,test1,3,0.6127249000001029,-50.0
20,jq,f,19,r,1,(1.0544208940658713e-14, 172.20000000000002),23,7,3,yes,x,5,x,0.5315694000000803,1,74,test1,3,0.5321306999994704,-38.0
20,jq,f,19,r,1,(121.76378772032346, -121.76378772032352),28,-25,14,no,m,6,m,0.9634125999982643,1,75,test1,3,0.9637674999994488,-38.0
20,jq,f,19,r,1,(121.76378772032346, -121.76378772032352),28,-3,11,yes,x,5,m,0.6955814999982977,0,76,test1,3,0.6957720000009431,-48.0
20,jq,f,19,r,1,(-121.76378772032352, -121.76378772032348),26,25,4,yes,x,5,x,0.5367256000008638,1,77,test1,3,0.5368543999993562,-20.0
20,jq,f,19,r,1,(1.0544208940658713e-14, 172.20000000000002),23,25,4,no,m,6,m,0.7419556999993802,1,78,test1,3,0.7423683000015444,-20.0
20,jq,f,19,r,1,(-121.76378772032348, 121.76378772032349),24,7,3,yes,x,5,x,0.6074320999996417,1,79,test1,3,0.6077432000001863,-38.0
20,jq,f,19,r,1,(121.76378772032346, -121.76378772032352),28,3,1,yes,x,5,m,0.7445105000006151,0,80,test1,3,0.7446071000013035,-42.0
20,jq,f,19,r,1,(-121.76378772032348, 121.76378772032349),24,7,3,yes,x,5,x,0.5656961999993655,1,81,test1,3,0.5659134999987145,-38.0
20,jq,f,19,r,1,(-3.163262682197613e-14, -172.20000000000002),27,-5,12,no,m,6,m,1.0457529999985127,1,82,test1,3,1.0458512000004703,-38.0
20,jq,f,19,r,1,(-3.163262682197613e-14, -172.20000000000002),27,5,2,yes,x,5,x,1.3921883000002708,1,83,test1,3,1.3923161000002438,-40.0
20,jq,f,19,r,1,(121.76378772032346, -121.76378772032352),28,25,4,yes,x,5,x,0.5922525000005407,1,84,test1,3,0.5928734999997687,-20.0
20,jq,f,19,r,1,(-121.76378772032352, -121.76378772032348),26,5,2,yes,x,5,x,0.563505799998893,1,85,test1,3,0.564010000000053,-40.0
20,jq,f,19,r,1,(-121.76378772032352, -121.76378772032348),26,7,3,yes,x,5,x,0.5776610000011715,1,86,test1,3,0.5777559999987716,-38.0
20,jq,f,19,r,1,(172.20000000000002, 0.0),21,5,2,no,m,6,x,0.8626234000003024,0,87,test1,3,0.8632204999994428,-38.0
20,jq,f,19,r,1,(1.0544208940658713e-14, 172.20000000000002),23,3,1,yes,x,5,x,1.1131361000007018,1,88,test1,3,1.1132573999984743,-42.0
20,jq,f,19,r,1,(-121.76378772032348, 121.76378772032349),24,25,4,no,m,6,x,1.0763299999998708,0,89,test1,3,1.076464900001156,-42.0
20,jq,f,19,r,1,(-3.163262682197613e-14, -172.20000000000002),27,7,3,yes,x,5,x,0.7232739999999467,1,90,test1,3,0.7234915999997611,-38.0
20,jq,f,19,r,1,(-121.76378772032348, 121.76378772032349),24,-5,12,yes,x,5,x,1.0793166000003112,1,91,test1,3,1.0795852999999624,-50.0
20,jq,f,19,r,1,(-121.76378772032348, 121.76378772032349),24,3,1,yes,x,5,x,0.7063030999997864,1,92,test1,3,0.706579600000623,-42.0
20,jq,f,19,r,1,(1.0544208940658713e-14, 172.20000000000002),23,-5,12,yes,x,5,x,0.9144338999994943,1,93,test1,3,0.9150535000007949,-50.0
20,jq,f,19,r,1,(-121.76378772032348, 121.76378772032349),24,-7,13,yes,x,5,x,0.9471831999999267,1,94,test1,3,0.947306899999603,-52.0
20,jq,f,19,r,1,(121.76378772032346, -121.76378772032352),28,7,3,yes,x,5,x,0.7302923999995983,1,95,test1,3,0.7306182000011177,-38.0
20,jq,f,19,r,1,(1.0544208940658713e-14, 172.20000000000002),23,25,4,yes,x,5,x,0.5146134000005986,1,96,test1,3,0.5147837999993499,-20.0
20,jq,f,19,r,1,(-121.76378772032352, -121.76378772032348),26,7,3,yes,x,5,x,0.8371406000005663,1,1,test2,3,0.8375172000014572,-38.0
20,jq,f,19,r,1,(-121.76378772032348, 121.76378772032349),24,-25,14,yes,x,5,x,0.47685249999994994,1,2,test2,3,0.4770868999985396,-70.0
20,jq,f,19,r,1,(121.76378772032349, 121.76378772032349),22,7,3,yes,x,5,x,0.6632805000008375,1,3,test2,3,0.6634968999987905,-38.0
20,jq,f,19,r,1,(121.76378772032346, -121.76378772032352),28,25,4,yes,x,5,x,0.528697400000965,1,4,test2,3,0.5287935999986075,-20.0
20,jq,f,19,r,1,(1.0544208940658713e-14, 172.20000000000002),23,5,2,yes,x,5,x,0.7564880000008998,1,5,test2,3,0.7567065999992337,-40.0
20,jq,f,19,r,1,(-121.76378772032348, 121.76378772032349),24,3,1,yes,x,5,x,0.7046276999990368,1,6,test2,3,0.7049239999996644,-42.0
20,jq,f,19,r,1,(172.20000000000002, 0.0),21,5,2,yes,x,5,x,0.6356639000005089,1,7,test2,3,0.6357650000009016,-40.0
20,jq,f,19,r,1,(-121.76378772032352, -121.76378772032348),26,-25,14,no,m,6,m,0.7991665999998077,1,8,test2,3,0.7994522999997571,-40.0
20,jq,f,19,r,1,(1.0544208940658713e-14, 172.20000000000002),23,-3,11,no,m,6,m,0.8377204000007623,1,9,test2,3,0.8378193999997166,-40.0
20,jq,f,19,r,1,(-121.76378772032348, 121.76378772032349),24,7,3,no,m,6,m,1.5354071000001568,1,10,test2,3,1.5355359999994107,-40.0
20,jq,f,19,r,1,(172.20000000000002, 0.0),21,-3,11,yes,x,5,x,0.8027019000001019,1,11,test2,3,0.8033703000000969,-48.0
20,jq,f,19,r,1,(121.76378772032346, -121.76378772032352),28,-25,14,yes,x,5,x,0.6367239999999583,1,12,test2,3,0.6368554000000586,-70.0
20,jq,f,19,r,1,(121.76378772032346, -121.76378772032352),28,7,3,yes,x,5,x,0.5820170999995753,1,13,test2,3,0.5822357000015472,-38.0
20,jq,f,19,r,1,(121.76378772032349, 121.76378772032349),22,-5,12,yes,x,5,x,1.0294408999998268,1,14,test2,3,1.0297468999997363,-50.0
20,jq,f,19,r,1,(172.20000000000002, 0.0),21,5,2,yes,x,5,x,0.584027499999138,1,15,test2,3,0.5846304000006057,-40.0
20,jq,f,19,r,1,(172.20000000000002, 0.0),21,-25,14,yes,x,5,x,0.6419041999997717,1,16,test2,3,0.6421412999989116,-70.0
20,jq,f,19,r,1,(-172.20000000000002, 2.1088417881317425e-14),25,7,3,yes,x,5,x,0.5307333999990078,1,17,test2,3,0.5308653000010963,-38.0
20,jq,f,19,r,1,(121.76378772032346, -121.76378772032352),28,-7,13,yes,x,5,x,0.6183031999989907,1,18,test2,3,0.6185865999996167,-52.0
20,jq,f,19,r,1,(-172.20000000000002, 2.1088417881317425e-14),25,3,1,yes,x,5,x,0.7928778000004968,1,19,test2,3,0.7929762000003393,-42.0
20,jq,f,19,r,1,(121.76378772032346, -121.76378772032352),28,-7,13,yes,x,5,x,0.6628273999995145,1,20,test2,3,0.6629303999998228,-52.0
20,jq,f,19,r,1,(-121.76378772032352, -121.76378772032348),26,25,4,no,m,6,m,0.7511978999991697,1,21,test2,3,0.7513218999993114,-52.0
20,jq,f,19,r,1,(121.76378772032349, 121.76378772032349),22,-7,13,yes,x,5,x,0.5387080000000424,1,22,test2,3,0.538977000000159,-52.0
20,jq,f,19,r,1,(-121.76378772032348, 121.76378772032349),24,-25,14,no,m,6,m,0.9890832000000955,1,23,test2,3,0.9892133000012109,-52.0
20,jq,f,19,r,1,(1.0544208940658713e-14, 172.20000000000002),23,-7,13,yes,x,5,x,0.6244919999990088,1,24,test2,3,0.6246262000004208,-52.0
20,jq,f,19,r,1,(1.0544208940658713e-14, 172.20000000000002),23,3,1,no,m,6,m,0.6418170999986614,1,25,test2,3,0.6419832999999926,-52.0
20,jq,f,19,r,1,(172.20000000000002, 0.0),21,-25,14,no,m,6,m,0.8836741000013717,1,26,test2,3,0.8839418000006845,-52.0
20,jq,f,19,r,1,(-3.163262682197613e-14, -172.20000000000002),27,3,1,no,m,6,m,0.6637730000002193,1,27,test2,3,0.6640600999999151,-52.0
20,jq,f,19,r,1,(-121.76378772032352, -121.76378772032348),26,-25,14,yes,x,5,x,0.5384244999986549,1,28,test2,3,0.5385255000001052,-70.0
20,jq,f,19,r,1,(172.20000000000002, 0.0),21,7,3,no,m,6,m,0.6903074999991077,1,29,test2,3,0.6905358000003616,-70.0
20,jq,f,19,r,1,(1.0544208940658713e-14, 172.20000000000002),23,-3,11,yes,x,5,m,0.8492862000002788,0,30,test2,3,0.8494017000011809,-48.0
20,jq,f,19,r,1,(1.0544208940658713e-14, 172.20000000000002),23,5,2,no,m,6,m,0.8997142000007443,1,31,test2,3,0.8998496999993222,-48.0
20,jq,f,19,r,1,(-172.20000000000002, 2.1088417881317425e-14),25,7,3,yes,x,5,x,0.8674124000008305,1,32,test2,3,0.8677079999997659,-38.0
20,jq,f,19,r,1,(121.76378772032349, 121.76378772032349),22,5,2,no,m,6,x,0.5450685000014346,0,33,test2,3,0.5453545999989728,-38.0
20,jq,f,19,r,1,(1.0544208940658713e-14, 172.20000000000002),23,25,4,yes,x,5,x,0.5639456000008067,1,34,test2,3,0.5640789999997651,-20.0
20,jq,f,19,r,1,(1.0544208940658713e-14, 172.20000000000002),23,-7,13,no,m,6,m,1.878922899999452,1,35,test2,3,1.8792417000004207,-20.0
20,jq,f,19,r,1,(1.0544208940658713e-14, 172.20000000000002),23,-25,14,yes,x,5,x,0.5669585999985429,1,36,test2,3,0.5670735999992758,-70.0
20,jq,f,19,r,1,(-121.76378772032348, 121.76378772032349),24,5,2,no,m,6,m,1.1663272000005236,1,37,test2,3,1.16660740000043,-70.0
20,jq,f,19,r,1,(-172.20000000000002, 2.1088417881317425e-14),25,-5,12,yes,x,5,x,0.7765794000006281,1,38,test2,3,0.7767737999984092,-50.0
20,jq,f,19,r,1,(-3.163262682197613e-14, -172.20000000000002),27,-25,14,yes,x,5,x,0.6309263000002829,1,39,test2,3,0.6315190000004804,-70.0
20,jq,f,19,r,1,(-3.163262682197613e-14, -172.20000000000002),27,7,3,yes,x,5,x,0.5414024999990943,1,40,test2,3,0.5416428999997152,-38.0
20,jq,f,19,r,1,(-121.76378772032352, -121.76378772032348),26,-7,13,yes,x,5,x,1.101973499999076,1,41,test2,3,1.1021309000007022,-52.0
20,jq,f,19,r,1,(121.76378772032349, 121.76378772032349),22,-7,13,yes,x,5,x,0.661724100000356,1,42,test2,3,0.6619606000003841,-52.0
20,jq,f,19,r,1,(-121.76378772032352, -121.76378772032348),26,3,1,no,m,6,m,0.6979188000004797,1,43,test2,3,0.6982114000002184,-52.0
20,jq,f,19,r,1,(-121.76378772032352, -121.76378772032348),26,-7,13,no,m,6,m,0.811061399999744,1,44,test2,3,0.8114506000001711,-52.0
20,jq,f,19,r,1,(-172.20000000000002, 2.1088417881317425e-14),25,-7,13,yes,x,5,x,0.5665585999995528,1,45,test2,3,0.5667001000001619,-52.0
20,jq,f,19,r,1,(-172.20000000000002, 2.1088417881317425e-14),25,25,4,no,m,6,m,0.7151499999999942,1,46,test2,3,0.715416400000322,-52.0
20,jq,f,19,r,1,(-3.163262682197613e-14, -172.20000000000002),27,-3,11,yes,x,5,m,1.0441952999990463,0,47,test2,3,1.0442968000006658,-48.0
20,jq,f,19,r,1,(-172.20000000000002, 2.1088417881317425e-14),25,-7,13,yes,x,5,x,0.569382300000143,1,48,test2,3,0.569514299999355,-52.0
20,jq,f,19,r,1,(-3.163262682197613e-14, -172.20000000000002),27,5,2,no,m,6,m,0.7838095999995858,1,49,test2,3,0.7840708999992785,-52.0
20,jq,f,19,r,1,(-3.163262682197613e-14, -172.20000000000002),27,-7,13,yes,x,5,x,0.6508785000005446,1,50,test2,3,0.6512590000002092,-52.0
20,jq,f,19,r,1,(-172.20000000000002, 2.1088417881317425e-14),25,25,4,yes,x,5,x,0.6023537000000942,1,51,test2,3,0.6024488999992172,-20.0
20,jq,f,19,r,1,(-121.76378772032352, -121.76378772032348),26,-5,12,yes,x,5,x,0.6289217000012286,1,52,test2,3,0.6292779999985214,-50.0
20,jq,f,19,r,1,(1.0544208940658713e-14, 172.20000000000002),23,-3,11,yes,x,5,x,0.9868617000011,1,53,test2,3,0.9869662000000972,-48.0
20,jq,f,19,r,1,(-172.20000000000002, 2.1088417881317425e-14),25,-3,11,no,m,6,m,0.7240490000003774,1,54,test2,3,0.7245875999997224,-48.0
20,jq,f,19,r,1,(-121.76378772032348, 121.76378772032349),24,25,4,yes,x,5,x,0.674844099999973,1,55,test2,3,0.6750590999999986,-20.0
20,jq,f,19,r,1,(172.20000000000002, 0.0),21,7,3,yes,x,5,x,0.5854785999999876,1,56,test2,3,0.5858791999999085,-38.0
20,jq,f,19,r,1,(-3.163262682197613e-14, -172.20000000000002),27,-25,14,yes,x,5,x,0.5025829000005615,1,57,test2,3,0.5027900999994017,-70.0
20,jq,f,19,r,1,(-121.76378772032348, 121.76378772032349),24,-5,12,yes,x,5,x,0.6451649999999063,1,58,test2,3,0.645264099999622,-50.0
20,jq,f,19,r,1,(172.20000000000002, 0.0),21,-25,14,yes,x,5,x,0.6968445000002248,1,59,test2,3,0.6969681999999011,-70.0
20,jq,f,19,r,1,(1.0544208940658713e-14, 172.20000000000002),23,-5,12,no,m,6,m,0.7104378000003635,1,60,test2,3,0.7106746999997995,-70.0
20,jq,f,19,r,1,(172.20000000000002, 0.0),21,25,4,yes,x,5,x,0.5032092000001285,1,61,test2,3,0.5034626000015123,-20.0
20,jq,f,19,r,1,(-121.76378772032352, -121.76378772032348),26,5,2,no,m,6,m,0.6932622999993328,1,62,test2,3,0.6935630999996647,-20.0
20,jq,f,19,r,1,(1.0544208940658713e-14, 172.20000000000002),23,-25,14,yes,x,5,x,0.4455054000009113,1,63,test2,3,0.4457001000009768,-70.0
20,jq,f,19,r,1,(1.0544208940658713e-14, 172.20000000000002),23,-7,13,yes,x,5,x,0.5463209000008646,1,64,test2,3,0.5464530999997805,-52.0
20,jq,f,19,r,1,(-172.20000000000002, 2.1088417881317425e-14),25,-5,12,no,m,6,m,0.7203965999997308,1,65,test2,3,0.720578899999964,-52.0
20,jq,f,19,r,1,(-3.163262682197613e-14, -172.20000000000002),27,-5,12,yes,x,5,x,0.5761366000006092,1,66,test2,3,0.576249400000961,-50.0
20,jq,f,19,r,1,(172.20000000000002, 0.0),21,25,4,no,m,6,m,0.6462940000001254,1,67,test2,3,0.6466211999995721,-50.0
20,jq,f,19,r,1,(-3.163262682197613e-14, -172.20000000000002),27,3,1,yes,x,5,x,0.5130783000004158,1,68,test2,3,0.5135608000000502,-42.0
20,jq,f,19,r,1,(172.20000000000002, 0.0),21,-7,13,yes,x,5,x,1.1241102999993018,1,69,test2,3,1.1242094000008365,-52.0
20,jq,f,19,r,1,(-121.76378772032348, 121.76378772032349),24,5,2,yes,x,5,x,0.6246565000001283,1,70,test2,3,0.6249195999989752,-40.0
20,jq,f,19,r,1,(-172.20000000000002, 2.1088417881317425e-14),25,-25,14,yes,x,5,x,0.43501459999970393,1,71,test2,3,0.4352495999992243,-70.0
20,jq,f,19,r,1,(121.76378772032349, 121.76378772032349),22,-5,12,no,m,6,m,0.7796761999998125,1,72,test2,3,0.7799019000012777,-70.0
20,jq,f,19,r,1,(-121.76378772032348, 121.76378772032349),24,5,2,yes,x,5,x,0.5735435000005964,1,73,test2,3,0.5736435999988316,-40.0
20,jq,f,19,r,1,(172.20000000000002, 0.0),21,-7,13,yes,x,5,x,0.7030654000009235,1,74,test2,3,0.7032610999995086,-52.0
20,jq,f,19,r,1,(-121.76378772032352, -121.76378772032348),26,3,1,yes,x,5,x,1.1827814999996917,1,75,test2,3,1.1828874000002543,-42.0
20,jq,f,19,r,1,(-172.20000000000002, 2.1088417881317425e-14),25,-3,11,yes,x,5,m,1.7411420999997063,0,76,test2,3,1.7412571999993816,-48.0
20,jq,f,19,r,1,(-121.76378772032348, 121.76378772032349),24,25,4,yes,x,5,x,0.40455260000089766,1,77,test2,3,0.40481309999995574,-20.0
20,jq,f,19,r,1,(172.20000000000002, 0.0),21,-5,12,no,m,6,m,0.6008639000010589,1,78,test2,3,0.6009716000007757,-20.0
20,jq,f,19,r,1,(-3.163262682197613e-14, -172.20000000000002),27,-5,12,yes,x,5,x,0.7416538000015862,1,79,test2,3,0.7419628999996348,-50.0
20,jq,f,19,r,1,(121.76378772032346, -121.76378772032352),28,3,1,no,m,6,m,1.310784600000261,1,80,test2,3,1.311068000000887,-50.0
20,jq,f,19,r,1,(121.76378772032346, -121.76378772032352),28,-3,11,no,m,6,m,0.6623442000000068,1,81,test2,3,0.6624488999987079,-50.0
20,jq,f,19,r,1,(-121.76378772032352, -121.76378772032348),26,3,1,yes,x,5,x,0.5882899000007455,1,82,test2,3,0.5887897000011435,-42.0
20,jq,f,19,r,1,(172.20000000000002, 0.0),21,3,1,no,m,6,m,1.7347583000009763,1,83,test2,3,1.7351227999988623,-42.0
20,jq,f,19,r,1,(-172.20000000000002, 2.1088417881317425e-14),25,3,1,yes,x,5,x,0.7670669999988604,1,84,test2,3,0.7672058999996807,-42.0
20,jq,f,19,r,1,(121.76378772032349, 121.76378772032349),22,-3,11,yes,x,5,m,0.7356013999997231,0,85,test2,3,0.7359396000010747,-48.0
20,jq,f,19,r,1,(121.76378772032349, 121.76378772032349),22,-25,14,yes,x,5,x,0.607300400000895,1,86,test2,3,0.6076263999984803,-70.0
20,jq,f,19,r,1,(121.76378772032349, 121.76378772032349),22,-25,14,yes,x,5,x,0.42495710000002873,1,87,test2,3,0.4251854000012827,-70.0
20,jq,f,19,r,1,(-3.163262682197613e-14, -172.20000000000002),27,5,2,yes,x,5,x,0.6909150000010413,1,88,test2,3,0.6910456999994494,-40.0
20,jq,f,19,r,1,(121.76378772032346, -121.76378772032352),28,-3,11,yes,x,5,m,0.8663415999999415,0,89,test2,3,0.866775399999824,-48.0
20,jq,f,19,r,1,(-172.20000000000002, 2.1088417881317425e-14),25,5,2,yes,x,5,x,0.5958802999994077,1,90,test2,3,0.596013899999889,-40.0
20,jq,f,19,r,1,(-121.76378772032348, 121.76378772032349),24,-3,11,yes,x,5,x,0.6842513000010513,1,91,test2,3,0.6844865000002756,-48.0
20,jq,f,19,r,1,(172.20000000000002, 0.0),21,3,1,yes,x,5,m,0.9389845999994577,0,92,test2,3,0.9391504999985045,-42.0
20,jq,f,19,r,1,(172.20000000000002, 0.0),21,-5,12,yes,x,5,x,0.7430051999999705,1,93,test2,3,0.743232299999363,-50.0
20,jq,f,19,r,1,(1.0544208940658713e-14, 172.20000000000002),23,5,2,yes,x,5,x,0.5063152000002447,1,94,test2,3,0.5064486999999644,-40.0
20,jq,f,19,r,1,(-121.76378772032348, 121.76378772032349),24,-3,11,no,m,6,m,0.8413037999998778,1,95,test2,3,0.841602000000421,-40.0
20,jq,f,19,r,1,(121.76378772032349, 121.76378772032349),22,3,1,yes,x,5,x,0.7055451999985962,1,96,test2,3,0.7060438000007707,-42.0
20,jq,f,19,r,1,(121.76378772032346, -121.76378772032352),28,-5,12,no,m,6,m,1.0309182999990298,1,1,test1,4,1.0311885999999504,-42.0
20,jq,f,19,r,1,(-3.163262682197613e-14, -172.20000000000002),27,-7,13,no,m,6,m,0.5411782000010135,1,2,test1,4,0.5414512999996077,-42.0
20,jq,f,19,r,1,(-172.20000000000002, 2.1088417881317425e-14),25,25,4,yes,x,5,x,0.49965850000080536,1,3,test1,4,0.5001264000002266,-20.0
20,jq,f,19,r,1,(-3.163262682197613e-14, -172.20000000000002),27,7,3,no,m,6,x,0.8394236999993154,0,4,test1,4,0.8399847000000591,-20.0
20,jq,f,19,r,1,(172.20000000000002, 0.0),21,25,4,yes,x,5,x,0.6706271999992168,1,5,test1,4,0.6707329999990179,-20.0
20,jq,f,19,r,1,(-121.76378772032348, 121.76378772032349),24,-7,13,no,m,6,m,0.5946749000013369,1,6,test1,4,0.5947746999991068,-20.0
20,jq,f,19,r,1,(-121.76378772032352, -121.76378772032348),26,-3,11,yes,x,5,m,0.682917099999031,0,7,test1,4,0.683101099999476,-48.0
20,jq,f,19,r,1,(121.76378772032349, 121.76378772032349),22,5,2,yes,x,5,x,0.7974759999997332,1,8,test1,4,0.7980955999992148,-40.0
20,jq,f,19,r,1,(121.76378772032346, -121.76378772032352),28,25,4,no,m,6,m,1.442574800001239,1,9,test1,4,1.442855299999792,-40.0
20,jq,f,19,r,1,(-172.20000000000002, 2.1088417881317425e-14),25,-3,11,yes,x,5,m,0.803081199999724,0,10,test1,4,0.8034572000015032,-48.0
20,jq,f,19,r,1,(-172.20000000000002, 2.1088417881317425e-14),25,-25,14,yes,x,5,x,0.40346519999911834,1,11,test1,4,0.40407869999944523,-70.0
20,jq,f,19,r,1,(172.20000000000002, 0.0),21,-7,13,no,m,6,m,0.7389087999999902,1,12,test1,4,0.7390197000004264,-70.0
20,jq,f,19,r,1,(-3.163262682197613e-14, -172.20000000000002),27,-25,14,no,m,6,m,0.6943663000001834,1,13,test1,4,0.6945947999993223,-70.0
20,jq,f,19,r,1,(-172.20000000000002, 2.1088417881317425e-14),25,-25,14,no,m,6,m,1.0532573000000411,1,14,test1,4,1.0537599999988743,-70.0
20,jq,f,19,r,1,(-121.76378772032348, 121.76378772032349),24,-5,12,no,m,6,m,0.6532685000001948,1,15,test1,4,0.65336969999953,-70.0
20,jq,f,19,r,1,(-121.76378772032352, -121.76378772032348),26,-7,13,yes,x,5,x,0.7389754999985598,1,16,test1,4,0.7392063000006601,-52.0
20,jq,f,19,r,1,(1.0544208940658713e-14, 172.20000000000002),23,7,3,yes,x,5,x,0.5919940999992832,1,17,test1,4,0.5922355000002426,-38.0
20,jq,f,19,r,1,(121.76378772032349, 121.76378772032349),22,-5,12,yes,x,5,x,0.7463485999996919,1,18,test1,4,0.7466382999991765,-50.0
20,jq,f,19,r,1,(121.76378772032349, 121.76378772032349),22,-3,11,yes,x,5,x,1.16362990000016,1,19,test1,4,1.1640914999989036,-48.0
20,jq,f,19,r,1,(121.76378772032349, 121.76378772032349),22,7,3,no,m,6,m,0.5457643000008829,1,20,test1,4,0.5459933999991335,-48.0
20,jq,f,19,r,1,(121.76378772032349, 121.76378772032349),22,5,2,yes,x,5,x,0.6642644000003202,1,21,test1,4,0.6643781000002491,-40.0
20,jq,f,19,r,1,(-121.76378772032352, -121.76378772032348),26,5,2,yes,x,5,x,0.5064989000002242,1,22,test1,4,0.506626000000324,-40.0
20,jq,f,19,r,1,(-121.76378772032352, -121.76378772032348),26,-3,11,yes,x,5,x,0.6356236999999965,1,23,test1,4,0.6358473000000231,-48.0
20,jq,f,19,r,1,(-3.163262682197613e-14, -172.20000000000002),27,3,1,yes,x,5,x,0.8321462000003521,1,24,test1,4,0.832355100001223,-42.0
20,jq,f,19,r,1,(121.76378772032346, -121.76378772032352),28,-5,12,yes,x,5,m,0.693959399999585,0,25,test1,4,0.6940797999995993,-50.0
20,jq,f,19,r,1,(121.76378772032349, 121.76378772032349),22,-25,14,no,m,6,x,0.7268093000002409,0,26,test1,4,0.7269102999998722,-50.0
20,jq,f,19,r,1,(172.20000000000002, 0.0),21,-3,11,no,m,6,m,0.8658393000005162,1,27,test1,4,0.8660879999988538,-50.0
20,jq,f,19,r,1,(121.76378772032346, -121.76378772032352),28,7,3,no,m,6,x,1.1443808000003628,0,28,test1,4,1.144609599999967,-50.0
20,jq,f,19,r,1,(-121.76378772032352, -121.76378772032348),26,-5,12,yes,x,5,x,0.647878400000991,1,29,test1,4,0.6481117000002996,-50.0
20,jq,f,19,r,1,(-121.76378772032348, 121.76378772032349),24,-7,13,yes,x,5,x,0.5061546999986604,1,30,test1,4,0.5067902999999205,-52.0
20,jq,f,19,r,1,(121.76378772032349, 121.76378772032349),22,7,3,yes,x,5,x,0.7764528000006976,1,31,test1,4,0.7765509000000748,-38.0
20,jq,f,19,r,1,(121.76378772032349, 121.76378772032349),22,25,4,no,m,6,m,0.888042000000496,1,32,test1,4,0.8881738000000041,-38.0
20,jq,f,19,r,1,(-172.20000000000002, 2.1088417881317425e-14),25,3,1,no,m,6,m,0.7558586000013747,1,33,test1,4,0.7563178999989759,-38.0
20,jq,f,19,r,1,(-121.76378772032352, -121.76378772032348),26,-25,14,yes,x,5,x,0.5687287000000651,1,34,test1,4,0.5688291999995272,-70.0
20,jq,f,19,r,1,(1.0544208940658713e-14, 172.20000000000002),23,3,1,yes,x,5,m,1.688925399999789,0,35,test1,4,1.6890934000002744,-42.0
20,jq,f,19,r,1,(-121.76378772032352, -121.76378772032348),26,-5,12,no,m,6,m,1.3340019000006578,1,36,test1,4,1.3342226999993727,-42.0
20,jq,f,19,r,1,(121.76378772032346, -121.76378772032352),28,3,1,yes,x,5,m,1.2599437999997463,0,37,test1,4,1.2601016999997228,-42.0
20,jq,f,19,r,1,(1.0544208940658713e-14, 172.20000000000002),23,7,3,no,m,6,m,0.7627628000009281,1,38,test1,4,0.7630157000003237,-42.0
20,jq,f,19,r,1,(-3.163262682197613e-14, -172.20000000000002),27,-3,11,yes,x,5,m,0.7612155999995593,0,39,test1,4,0.761454399998911,-48.0
20,jq,f,19,r,1,(-3.163262682197613e-14, -172.20000000000002),27,25,4,yes,x,5,x,0.7312070000007225,1,40,test1,4,0.7313094999990426,-20.0
20,jq,f,19,r,1,(121.76378772032349, 121.76378772032349),22,25,4,yes,x,5,x,0.609070000000429,1,41,test1,4,0.6092814000003273,-20.0
20,jq,f,19,r,1,(-172.20000000000002, 2.1088417881317425e-14),25,5,2,no,m,6,m,0.7775633000001108,1,42,test1,4,0.777774700000009,-20.0
20,jq,f,19,r,1,(-121.76378772032348, 121.76378772032349),24,-3,11,yes,x,5,m,0.7740018000004056,0,43,test1,4,0.7741163999999117,-48.0
20,jq,f,19,r,1,(121.76378772032346, -121.76378772032352),28,-7,13,no,m,6,x,1.235972499998752,0,44,test1,4,1.2361199999995733,-48.0
20,jq,f,19,r,1,(-121.76378772032348, 121.76378772032349),24,-25,14,yes,x,5,x,0.5623992000000726,1,45,test1,4,0.5625890999999683,-70.0
20,jq,f,19,r,1,(121.76378772032346, -121.76378772032352),28,5,2,no,m,6,m,0.9102321999998821,1,46,test1,4,0.9104632999988098,-70.0
20,jq,f,19,r,1,(121.76378772032349, 121.76378772032349),22,3,1,yes,x,5,x,0.9415361999999732,1,47,test1,4,0.9416547000000719,-42.0
20,jq,f,19,r,1,(-172.20000000000002, 2.1088417881317425e-14),25,-7,13,no,m,6,m,1.1494903000002523,1,48,test1,4,1.1497804000009637,-42.0
20,jq,f,19,r,1,(121.76378772032349, 121.76378772032349),22,3,1,no,m,6,m,0.8748639000004914,1,49,test1,4,0.8749932000009721,-42.0
20,jq,f,19,r,1,(121.76378772032346, -121.76378772032352),28,-25,14,yes,x,5,x,0.6824346000012156,1,50,test1,4,0.6825317000002542,-70.0
20,jq,f,19,r,1,(-121.76378772032348, 121.76378772032349),24,3,1,no,m,6,x,1.342982899999697,0,51,test1,4,1.3433198999991873,-70.0
20,jq,f,19,r,1,(121.76378772032346, -121.76378772032352),28,5,2,yes,x,5,x,0.7158992000004218,1,52,test1,4,0.7162160999996559,-40.0
20,jq,f,19,r,1,(121.76378772032346, -121.76378772032352),28,-5,12,yes,x,5,x,0.7298628000007739,1,53,test1,4,0.7300981000007596,-50.0
20,jq,f,19,r,1,(121.76378772032349, 121.76378772032349),22,25,4,yes,x,5,x,0.5533713000004354,1,54,test1,4,0.553680600000007,-20.0
20,jq,f,19,r,1,(172.20000000000002, 0.0),21,-5,12,yes,x,5,x,1.0169753999998647,1,55,test1,4,1.0174100999993243,-50.0
20,jq,f,19,r,1,(-172.20000000000002, 2.1088417881317425e-14),25,5,2,yes,x,5,x,1.2800573000004078,1,56,test1,4,1.2801576999991084,-40.0
20,jq,f,19,r,1,(121.76378772032349, 121.76378772032349),22,-3,11,no,m,6,m,1.1742680999996082,1,57,test1,4,1.1744835000008607,-40.0
20,jq,f,19,r,1,(121.76378772032349, 121.76378772032349),22,-7,13,no,m,6,m,0.9153435999996873,1,58,test1,4,0.9154455000007147,-40.0
20,jq,f,19,r,1,(1.0544208940658713e-14, 172.20000000000002),23,-5,12,yes,x,5,x,0.6679069000001618,1,59,test1,4,0.6681551999990916,-50.0
20,jq,f,19,r,1,(121.76378772032346, -121.76378772032352),28,5,2,yes,x,5,x,1.0339827999996487,1,60,test1,4,1.0341707000006863,-40.0
20,jq,f,19,r,1,(-172.20000000000002, 2.1088417881317425e-14),25,7,3,no,m,6,m,0.8735057000012603,1,61,test1,4,0.8738057000009576,-40.0
20,jq,f,19,r,1,(-3.163262682197613e-14, -172.20000000000002),27,-7,13,yes,x,5,x,1.004395600000862,1,62,test1,4,1.0046052999987296,-52.0
20,jq,f,19,r,1,(1.0544208940658713e-14, 172.20000000000002),23,-25,14,no,m,6,m,0.8090488000016194,1,63,test1,4,0.8094485000001441,-52.0
20,jq,f,19,r,1,(172.20000000000002, 0.0),21,-3,11,yes,x,5,x,0.6337333999999828,1,64,test1,4,0.6340200000013283,-48.0
20,jq,f,19,r,1,(-3.163262682197613e-14, -172.20000000000002),27,-3,11,no,m,6,m,1.2233381000005465,1,65,test1,4,1.2234413999995013,-48.0
20,jq,f,19,r,1,(172.20000000000002, 0.0),21,7,3,yes,x,5,x,0.570576500000243,1,66,test1,4,0.5708062000012433,-38.0
20,jq,f,19,r,1,(172.20000000000002, 0.0),21,3,1,yes,x,5,x,0.694872199999736,1,67,test1,4,0.695432599999549,-42.0
20,jq,f,19,r,1,(-121.76378772032352, -121.76378772032348),26,25,4,yes,x,5,x,0.46192169999994803,1,68,test1,4,0.46205660000123316,-20.0
20,jq,f,19,r,1,(-3.163262682197613e-14, -172.20000000000002),27,25,4,yes,x,5,x,0.6326809000001958,1,69,test1,4,0.6327834999992774,-20.0
20,jq,f,19,r,1,(-172.20000000000002, 2.1088417881317425e-14),25,-5,12,yes,x,5,x,0.5598852000002807,1,70,test1,4,0.5599844999997003,-50.0
20,jq,f,19,r,1,(-3.163262682197613e-14, -172.20000000000002),27,25,4,no,m,6,m,1.0937078000006295,1,71,test1,4,1.0938337000006868,-50.0
20,jq,f,19,r,1,(-121.76378772032352, -121.76378772032348),26,-3,11,no,m,6,m,0.8587948999993387,1,72,test1,4,0.8592716999992263,-50.0
20,jq,f,19,r,1,(-121.76378772032352, -121.76378772032348),26,7,3,no,m,6,m,0.646763099999589,1,73,test1,4,0.6470422000002145,-50.0
20,jq,f,19,r,1,(1.0544208940658713e-14, 172.20000000000002),23,7,3,yes,x,5,x,0.5682066999997915,1,74,test1,4,0.568494200000714,-38.0
20,jq,f,19,r,1,(121.76378772032346, -121.76378772032352),28,-25,14,no,m,6,m,0.6781068000000232,1,75,test1,4,0.6782210999990639,-38.0
20,jq,f,19,r,1,(121.76378772032346, -121.76378772032352),28,-3,11,yes,x,5,m,0.9499579000002996,0,76,test1,4,0.9500592999993387,-48.0
20,jq,f,19,r,1,(-121.76378772032352, -121.76378772032348),26,25,4,yes,x,5,x,0.5322912999999971,1,77,test1,4,0.5324658999998064,-20.0
20,jq,f,19,r,1,(1.0544208940658713e-14, 172.20000000000002),23,25,4,no,m,6,m,1.2674900000001799,1,78,test1,4,1.2676098000010825,-20.0
20,jq,f,19,r,1,(-121.76378772032348, 121.76378772032349),24,7,3,yes,x,5,x,0.5892134000005171,1,79,test1,4,0.589503600000171,-38.0
20,jq,f,19,r,1,(121.76378772032346, -121.76378772032352),28,3,1,yes,x,5,x,0.8783234000002267,1,80,test1,4,0.8787341999995988,-42.0
20,jq,f,19,r,1,(-121.76378772032348, 121.76378772032349),24,7,3,yes,x,5,x,0.5501101999998355,1,81,test1,4,0.5502372999999352,-38.0
20,jq,f,19,r,1,(-3.163262682197613e-14, -172.20000000000002),27,-5,12,no,m,6,m,1.1366928000006737,1,82,test1,4,1.1369652000012138,-38.0
20,jq,f,19,r,1,(-3.163262682197613e-14, -172.20000000000002),27,5,2,yes,x,5,x,1.2348128000012366,1,83,test1,4,1.2350783999991108,-40.0
20,jq,f,19,r,1,(121.76378772032346, -121.76378772032352),28,25,4,yes,x,5,x,0.7392569999992702,1,84,test1,4,0.7396530999994866,-20.0
20,jq,f,19,r,1,(-121.76378772032352, -121.76378772032348),26,5,2,yes,x,5,x,0.5095713999999134,1,85,test1,4,0.5097925000009127,-40.0
20,jq,f,19,r,1,(-121.76378772032352, -121.76378772032348),26,7,3,yes,x,5,x,0.5383474000009301,1,86,test1,4,0.5385236000001896,-38.0
20,jq,f,19,r,1,(172.20000000000002, 0.0),21,5,2,no,m,6,x,0.5483637000015733,0,87,test1,4,0.5485604999994393,-38.0
20,jq,f,19,r,1,(1.0544208940658713e-14, 172.20000000000002),23,3,1,yes,x,5,x,0.9551224000006187,1,88,test1,4,0.9552220999994461,-42.0
20,jq,f,19,r,1,(-121.76378772032348, 121.76378772032349),24,25,4,no,m,6,m,1.242816899999525,1,89,test1,4,1.2429463999997097,-42.0
20,jq,f,19,r,1,(-3.163262682197613e-14, -172.20000000000002),27,7,3,yes,x,5,x,0.5471651000007114,1,90,test1,4,0.5474475999999413,-38.0
20,jq,f,19,r,1,(-121.76378772032348, 121.76378772032349),24,-5,12,yes,x,5,x,0.8233567999996012,1,91,test1,4,0.8237871000001178,-50.0
20,jq,f,19,r,1,(-121.76378772032348, 121.76378772032349),24,3,1,yes,x,5,x,0.6913277000003291,1,92,test1,4,0.6915477000002284,-42.0
20,jq,f,19,r,1,(1.0544208940658713e-14, 172.20000000000002),23,-5,12,yes,x,5,x,0.6565310999994836,1,93,test1,4,0.6566433000007237,-50.0
20,jq,f,19,r,1,(-121.76378772032348, 121.76378772032349),24,-7,13,yes,x,5,x,0.5152916000006371,1,94,test1,4,0.5154247000009491,-52.0
20,jq,f,19,r,1,(121.76378772032346, -121.76378772032352),28,7,3,yes,x,5,x,0.5454101000013907,1,95,test1,4,0.5456493000001501,-38.0
20,jq,f,19,r,1,(1.0544208940658713e-14, 172.20000000000002),23,25,4,yes,x,5,x,0.48041530000045896,1,96,test1,4,0.48062489999938407,-20.0
20,jq,f,19,r,1,(-121.76378772032352, -121.76378772032348),26,7,3,yes,x,5,x,1.1792361999996501,1,1,test2,4,1.1796494999998686,-38.0
20,jq,f,19,r,1,(-121.76378772032348, 121.76378772032349),24,-25,14,yes,x,5,x,0.49036829999931797,1,2,test2,4,0.491000999998505,-70.0
20,jq,f,19,r,1,(121.76378772032349, 121.76378772032349),22,7,3,yes,x,5,x,0.5354495999999926,1,3,test2,4,0.5360042000011163,-38.0
20,jq,f,19,r,1,(121.76378772032346, -121.76378772032352),28,25,4,yes,x,5,x,0.3610705000010057,1,4,test2,4,0.3614536000004591,-20.0
20,jq,f,19,r,1,(1.0544208940658713e-14, 172.20000000000002),23,5,2,yes,x,5,x,0.5016501999998582,1,5,test2,4,0.5019364999989193,-40.0
20,jq,f,19,r,1,(-121.76378772032348, 121.76378772032349),24,3,1,yes,x,5,x,0.8054972999998427,1,6,test2,4,0.8061576000000059,-42.0
20,jq,f,19,r,1,(172.20000000000002, 0.0),21,5,2,yes,x,5,x,0.8756546000004164,1,7,test2,4,0.8759359000014229,-40.0
20,jq,f,19,r,1,(-121.76378772032352, -121.76378772032348),26,-25,14,no,m,6,m,0.7796285000003991,1,8,test2,4,0.7797326999989309,-40.0
20,jq,f,19,r,1,(1.0544208940658713e-14, 172.20000000000002),23,-3,11,no,m,6,m,0.7687409000009211,1,9,test2,4,0.7688671999985672,-40.0
20,jq,f,19,r,1,(-121.76378772032348, 121.76378772032349),24,7,3,no,m,6,x,1.170867900000303,0,10,test2,4,1.1711523000012676,-40.0
20,jq,f,19,r,1,(172.20000000000002, 0.0),21,-3,11,yes,x,5,m,0.970409199999267,0,11,test2,4,0.9705351000011433,-48.0
20,jq,f,19,r,1,(121.76378772032346, -121.76378772032352),28,-25,14,yes,x,5,x,0.6182763999986491,1,12,test2,4,0.6184527999994316,-70.0
20,jq,f,19,r,1,(121.76378772032346, -121.76378772032352),28,7,3,yes,x,5,x,0.4557385999996768,1,13,test2,4,0.45586829999956535,-38.0
20,jq,f,19,r,1,(121.76378772032349, 121.76378772032349),22,-5,12,yes,x,5,x,0.6188488000007055,1,14,test2,4,0.619357100000343,-50.0
20,jq,f,19,r,1,(172.20000000000002, 0.0),21,5,2,yes,x,5,x,1.1652268999987427,1,15,test2,4,1.165330099998755,-40.0
20,jq,f,19,r,1,(172.20000000000002, 0.0),21,-25,14,yes,x,5,x,0.6279488999989553,1,16,test2,4,0.628113900000244,-70.0
20,jq,f,19,r,1,(-172.20000000000002, 2.1088417881317425e-14),25,7,3,yes,x,5,x,0.5423976000001858,1,17,test2,4,0.542678200001319,-38.0
20,jq,f,19,r,1,(121.76378772032346, -121.76378772032352),28,-7,13,yes,x,5,x,0.5835812000004807,1,18,test2,4,0.5837099000000308,-52.0
20,jq,f,19,r,1,(-172.20000000000002, 2.1088417881317425e-14),25,3,1,yes,x,5,x,0.5238578999997117,1,19,test2,4,0.5239526000004844,-42.0
20,jq,f,19,r,1,(121.76378772032346, -121.76378772032352),28,-7,13,yes,x,5,x,0.47901590000037686,1,20,test2,4,0.47923350000019127,-52.0
20,jq,f,19,r,1,(-121.76378772032352, -121.76378772032348),26,25,4,no,m,6,x,0.44576710000001185,0,21,test2,4,0.44589079999968817,-52.0
20,jq,f,19,r,1,(121.76378772032349, 121.76378772032349),22,-7,13,yes,x,5,m,1.2836954000013066,0,22,test2,4,1.2838081999998394,-52.0
20,jq,f,19,r,1,(-121.76378772032348, 121.76378772032349),24,-25,14,no,m,6,m,0.7632083999997121,1,23,test2,4,0.7634988000008889,-52.0
20,jq,f,19,r,1,(1.0544208940658713e-14, 172.20000000000002),23,-7,13,yes,x,5,x,1.754267800000889,1,24,test2,4,1.7544287000000622,-52.0
20,jq,f,19,r,1,(1.0544208940658713e-14, 172.20000000000002),23,3,1,no,m,6,m,0.9634806000012759,1,25,test2,4,0.9636117999998532,-52.0
20,jq,f,19,r,1,(172.20000000000002, 0.0),21,-25,14,no,m,6,m,0.806532700000389,1,26,test2,4,0.8066933999998582,-52.0
20,jq,f,19,r,1,(-3.163262682197613e-14, -172.20000000000002),27,3,1,no,m,6,m,0.968615799998588,1,27,test2,4,0.9688146999997116,-52.0
20,jq,f,19,r,1,(-121.76378772032352, -121.76378772032348),26,-25,14,yes,x,5,x,0.6422677999998996,1,28,test2,4,0.6425036000000546,-70.0
20,jq,f,19,r,1,(172.20000000000002, 0.0),21,7,3,no,m,6,m,0.8838264999994863,1,29,test2,4,0.8841930000016873,-70.0
20,jq,f,19,r,1,(1.0544208940658713e-14, 172.20000000000002),23,-3,11,yes,x,5,m,0.7053039000002173,0,30,test2,4,0.7055936000015208,-48.0
20,jq,f,19,r,1,(1.0544208940658713e-14, 172.20000000000002),23,5,2,no,m,6,m,0.6900676999994175,1,31,test2,4,0.6901943999982905,-48.0
20,jq,f,19,r,1,(-172.20000000000002, 2.1088417881317425e-14),25,7,3,yes,x,5,x,0.733481600000232,1,32,test2,4,0.733595099998638,-38.0
20,jq,f,19,r,1,(121.76378772032349, 121.76378772032349),22,5,2,no,m,6,m,0.8418406000000687,1,33,test2,4,0.8419417000004614,-38.0
20,jq,f,19,r,1,(1.0544208940658713e-14, 172.20000000000002),23,25,4,yes,x,5,x,0.5066686999998637,1,34,test2,4,0.5069726000001538,-20.0
20,jq,f,19,r,1,(1.0544208940658713e-14, 172.20000000000002),23,-7,13,no,m,6,m,0.7857593999997334,1,35,test2,4,0.7860359000005701,-20.0
20,jq,f,19,r,1,(1.0544208940658713e-14, 172.20000000000002),23,-25,14,yes,x,5,x,0.5415334999997867,1,36,test2,4,0.5416612999997596,-70.0
20,jq,f,19,r,1,(-121.76378772032348, 121.76378772032349),24,5,2,no,m,6,m,0.7514052000005904,1,37,test2,4,0.7515266999998858,-70.0
20,jq,f,19,r,1,(-172.20000000000002, 2.1088417881317425e-14),25,-5,12,yes,x,5,x,0.5149557000004279,1,38,test2,4,0.5152739999994083,-50.0
20,jq,f,19,r,1,(-3.163262682197613e-14, -172.20000000000002),27,-25,14,yes,x,5,x,0.7223563999996259,1,39,test2,4,0.7229635999992752,-70.0
20,jq,f,19,r,1,(-3.163262682197613e-14, -172.20000000000002),27,7,3,yes,x,5,x,0.5949872999990475,1,40,test2,4,0.5952335999991192,-38.0
20,jq,f,19,r,1,(-121.76378772032352, -121.76378772032348),26,-7,13,yes,x,5,x,0.516745599999922,1,41,test2,4,0.5168467999992572,-52.0
20,jq,f,19,r,1,(121.76378772032349, 121.76378772032349),22,-7,13,yes,x,5,x,0.5855596000001242,1,42,test2,4,0.585723300000609,-52.0
20,jq,f,19,r,1,(-121.76378772032352, -121.76378772032348),26,3,1,no,m,6,m,0.70827669999926,1,43,test2,4,0.7084070000000793,-52.0
20,jq,f,19,r,1,(-121.76378772032352, -121.76378772032348),26,-7,13,no,m,6,m,0.7127576000002591,1,44,test2,4,0.7128541999991285,-52.0
20,jq,f,19,r,1,(-172.20000000000002, 2.1088417881317425e-14),25,-7,13,yes,x,5,x,0.5947164000008343,1,45,test2,4,0.5951490999996167,-52.0
20,jq,f,19,r,1,(-172.20000000000002, 2.1088417881317425e-14),25,25,4,no,m,6,m,0.9769839999989927,1,46,test2,4,0.9773155000002589,-52.0
20,jq,f,19,r,1,(-3.163262682197613e-14, -172.20000000000002),27,-3,11,yes,x,5,x,0.9799908999993932,1,47,test2,4,0.9805520999998407,-48.0
20,jq,f,19,r,1,(-172.20000000000002, 2.1088417881317425e-14),25,-7,13,yes,x,5,x,0.7021564000006038,1,48,test2,4,0.7026236000001518,-52.0
20,jq,f,19,r,1,(-3.163262682197613e-14, -172.20000000000002),27,5,2,no,m,6,m,1.424402900000132,1,49,test2,4,1.4245061000001442,-52.0
20,jq,f,19,r,1,(-3.163262682197613e-14, -172.20000000000002),27,-7,13,yes,x,5,x,0.9389819999996689,1,50,test2,4,0.9396627999994962,-52.0
20,jq,f,19,r,1,(-172.20000000000002, 2.1088417881317425e-14),25,25,4,yes,x,5,x,0.5897628000002442,1,51,test2,4,0.5898658000005526,-20.0
20,jq,f,19,r,1,(-121.76378772032352, -121.76378772032348),26,-5,12,yes,x,5,x,0.8439318999990064,1,52,test2,4,0.8443173000014212,-50.0
20,jq,f,19,r,1,(1.0544208940658713e-14, 172.20000000000002),23,-3,11,yes,x,5,m,0.6318068000000494,0,53,test2,4,0.6321351000005961,-48.0
20,jq,f,19,r,1,(-172.20000000000002, 2.1088417881317425e-14),25,-3,11,no,m,6,m,0.7959880999987945,1,54,test2,4,0.7961837999991985,-48.0
20,jq,f,19,r,1,(-121.76378772032348, 121.76378772032349),24,25,4,yes,x,5,x,0.46632450000106473,1,55,test2,4,0.46643780000158586,-20.0
20,jq,f,19,r,1,(172.20000000000002, 0.0),21,7,3,yes,x,5,x,0.5250839000000269,1,56,test2,4,0.5252939999991213,-38.0
20,jq,f,19,r,1,(-3.163262682197613e-14, -172.20000000000002),27,-25,14,yes,x,5,x,0.49874699999963923,1,57,test2,4,0.49905539999963366,-70.0
20,jq,f,19,r,1,(-121.76378772032348, 121.76378772032349),24,-5,12,yes,x,5,x,0.5602457000004506,1,58,test2,4,0.5603387999999541,-50.0
20,jq,f,19,r,1,(172.20000000000002, 0.0),21,-25,14,yes,x,5,x,0.5837251000011747,1,59,test2,4,0.5838511000001745,-70.0
20,jq,f,19,r,1,(1.0544208940658713e-14, 172.20000000000002),23,-5,12,no,m,6,m,1.3018597999998747,1,60,test2,4,1.30196099999921,-70.0
20,jq,f,19,r,1,(172.20000000000002, 0.0),21,25,4,yes,x,5,x,0.629086400000233,1,61,test2,4,0.6293273999999656,-20.0
20,jq,f,19,r,1,(-121.76378772032352, -121.76378772032348),26,5,2,no,m,6,m,0.9073438999985228,1,62,test2,4,0.9075671999999031,-20.0
20,jq,f,19,r,1,(1.0544208940658713e-14, 172.20000000000002),23,-25,14,yes,x,5,x,0.4908287000016571,1,63,test2,4,0.4913711000008334,-70.0
