subj_id,subj_name,subj_gender ,subj_age,subj_handedness,subj_runNum,tar_l_x,tar_l_y,loc_code,tar_ori,tar_code,tar_pre ,cor_response,pre_code,subj_response,RT,correct,trial_num,type,bloc_num,dur, real_tar
20,jq,f,19,r,2,(-172.20000000000002, 2.1088417881317425e-14),25,5,2,no,m,6,m,1.2166889000000083,1,1,test1,1,1.2168192000026465,0.0
20,jq,f,19,r,2,(-172.20000000000002, 2.1088417881317425e-14),25,-7,13,yes,x,5,x,0.5848665999947116,1,2,test1,1,0.5850755999999819,-52.0
20,jq,f,19,r,2,(172.20000000000002, 0.0),21,7,3,yes,x,5,x,0.5356759000060265,1,3,test1,1,0.5358649999980116,-38.0
20,jq,f,19,r,2,(1.0544208940658713e-14, 172.20000000000002),23,5,2,yes,x,5,x,0.5048280999981216,1,4,test1,1,0.5050596000000951,-40.0
20,jq,f,19,r,2,(-121.76378772032348, 121.76378772032349),24,-7,13,yes,x,5,x,0.4632984999989276,1,5,test1,1,0.46341019999817945,-52.0
20,jq,f,19,r,2,(-121.76378772032352, -121.76378772032348),26,-5,12,no,m,6,m,0.8670275000040419,1,6,test1,1,0.8672512999983155,-52.0
20,jq,f,19,r,2,(1.0544208940658713e-14, 172.20000000000002),23,-7,13,yes,x,5,x,0.4101144000014756,1,7,test1,1,0.41028129999904195,-52.0
20,jq,f,19,r,2,(1.0544208940658713e-14, 172.20000000000002),23,-5,12,yes,x,5,x,0.47369569999864325,1,8,test1,1,0.47405950000393204,-50.0
20,jq,f,19,r,2,(121.76378772032346, -121.76378772032352),28,5,2,no,m,6,m,0.7031654999955208,1,9,test1,1,0.7036613000018406,-50.0
20,jq,f,19,r,2,(-121.76378772032352, -121.76378772032348),26,-25,14,no,m,6,m,0.6807570000019041,1,10,test1,1,0.6808540999991237,-50.0
20,jq,f,19,r,2,(121.76378772032349, 121.76378772032349),22,-7,13,yes,x,5,x,0.5797727999961353,1,11,test1,1,0.5800445000058971,-52.0
20,jq,f,19,r,2,(-3.163262682197613e-14, -172.20000000000002),27,-7,13,yes,x,5,x,0.6536797000007937,1,12,test1,1,0.6537935000014841,-52.0
20,jq,f,19,r,2,(-121.76378772032352, -121.76378772032348),26,5,2,yes,x,5,x,1.0605495999989216,1,13,test1,1,1.060775799996918,-40.0
20,jq,f,19,r,2,(-3.163262682197613e-14, -172.20000000000002),27,-5,12,yes,x,5,x,0.8978500999946846,1,14,test1,1,0.8979906999957166,-50.0
20,jq,f,19,r,2,(-121.76378772032348, 121.76378772032349),24,-5,12,yes,x,5,x,0.5117897000018274,1,15,test1,1,0.5122845000005327,-50.0
20,jq,f,19,r,2,(121.76378772032349, 121.76378772032349),22,5,2,yes,x,5,x,0.6002969999972265,1,16,test1,1,0.6006491000007372,-40.0
20,jq,f,19,r,2,(-121.76378772032352, -121.76378772032348),26,-3,11,no,m,6,m,0.755940199996985,1,17,test1,1,0.75604619999649,-40.0
20,jq,f,19,r,2,(-172.20000000000002, 2.1088417881317425e-14),25,7,3,yes,x,5,x,0.5084358000021894,1,18,test1,1,0.508538399997633,-38.0
20,jq,f,19,r,2,(1.0544208940658713e-14, 172.20000000000002),23,-25,14,no,m,6,m,0.87177679999877,1,19,test1,1,0.8718946000008145,-38.0
20,jq,f,19,r,2,(1.0544208940658713e-14, 172.20000000000002),23,-5,12,yes,x,5,x,0.5413102999955299,1,20,test1,1,0.5417410000009113,-50.0
20,jq,f,19,r,2,(-3.163262682197613e-14, -172.20000000000002),27,7,3,yes,x,5,x,0.4713982000030228,1,21,test1,1,0.47162160000152653,-38.0
20,jq,f,19,r,2,(121.76378772032349, 121.76378772032349),22,-3,11,no,m,6,m,0.8342469000053825,1,22,test1,1,0.8343435999995563,-38.0
20,jq,f,19,r,2,(-121.76378772032352, -121.76378772032348),26,25,4,yes,x,5,x,0.47989879999659024,1,23,test1,1,0.48019019999628654,-20.0
20,jq,f,19,r,2,(-172.20000000000002, 2.1088417881317425e-14),25,-7,13,yes,x,5,x,0.5226608000011765,1,24,test1,1,0.5227727000019513,-52.0
20,jq,f,19,r,2,(-121.76378772032352, -121.76378772032348),26,3,1,yes,x,5,m,0.7467030000043451,0,25,test1,1,0.7468239999943762,-42.0
20,jq,f,19,r,2,(121.76378772032349, 121.76378772032349),22,5,2,yes,x,5,x,0.5271729999949457,1,26,test1,1,0.5272790000017267,-40.0
20,jq,f,19,r,2,(121.76378772032349, 121.76378772032349),22,-3,11,yes,x,5,x,1.0706717999928514,1,27,test1,1,1.0707920999993803,-48.0
20,jq,f,19,r,2,(-3.163262682197613e-14, -172.20000000000002),27,-3,11,no,m,6,m,0.7589786000025924,1,28,test1,1,0.759258599995519,-48.0
20,jq,f,19,r,2,(172.20000000000002, 0.0),21,-7,13,yes,x,5,x,0.8028635000009672,1,29,test1,1,0.8031986000059987,-52.0
20,jq,f,19,r,2,(-121.76378772032348, 121.76378772032349),24,3,1,yes,x,5,x,0.6108299999978044,1,30,test1,1,0.6109311999971396,-42.0
20,jq,f,19,r,2,(-172.20000000000002, 2.1088417881317425e-14),25,3,1,yes,x,5,m,0.8499563000004855,0,31,test1,1,0.8500811000048998,-42.0
20,jq,f,19,r,2,(-121.76378772032352, -121.76378772032348),26,7,3,yes,x,5,x,0.6326484999954118,1,32,test1,1,0.6327479999963543,-38.0
20,jq,f,19,r,2,(121.76378772032346, -121.76378772032352),28,5,2,yes,x,5,m,0.6942067999989376,0,33,test1,1,0.6943896999946446,-40.0
20,jq,f,19,r,2,(172.20000000000002, 0.0),21,-7,13,yes,x,5,m,0.4832745000021532,0,34,test1,1,0.4839311000032467,-52.0
20,jq,f,19,r,2,(-3.163262682197613e-14, -172.20000000000002),27,25,4,yes,x,5,x,0.5146033999990323,1,35,test1,1,0.5147030000007362,-20.0
20,jq,f,19,r,2,(121.76378772032346, -121.76378772032352),28,-25,14,yes,x,5,x,0.5307061000057729,1,36,test1,1,0.5309397000019089,-70.0
20,jq,f,19,r,2,(-3.163262682197613e-14, -172.20000000000002),27,7,3,no,m,6,m,0.7282004000007873,1,37,test1,1,0.728389399999287,-70.0
20,jq,f,19,r,2,(-3.163262682197613e-14, -172.20000000000002),27,5,2,no,m,6,m,0.9170666999998502,1,38,test1,1,0.9171669999996084,-70.0
20,jq,f,19,r,2,(-121.76378772032352, -121.76378772032348),26,-5,12,yes,x,5,x,0.500401100005547,1,39,test1,1,0.5009757000007085,-50.0
20,jq,f,19,r,2,(121.76378772032349, 121.76378772032349),22,25,4,yes,x,5,x,0.48934570000710664,1,40,test1,1,0.48956149999867193,-20.0
20,jq,f,19,r,2,(121.76378772032346, -121.76378772032352),28,7,3,yes,x,5,x,0.6267928000015672,1,41,test1,1,0.6270315000001574,-38.0
20,jq,f,19,r,2,(1.0544208940658713e-14, 172.20000000000002),23,-3,11,no,m,6,m,0.773057799997332,1,42,test1,1,0.7735806999990018,-38.0
20,jq,f,19,r,2,(121.76378772032349, 121.76378772032349),22,-25,14,yes,x,5,x,0.49610609999945154,1,43,test1,1,0.4966013000012026,-70.0
20,jq,f,19,r,2,(121.76378772032349, 121.76378772032349),22,5,2,no,m,6,m,0.6897315999958664,1,44,test1,1,0.6900182000026689,-70.0
20,jq,f,19,r,2,(-121.76378772032348, 121.76378772032349),24,-3,11,no,m,6,x,0.7786830999975791,0,45,test1,1,0.7790824999974575,-70.0
20,jq,f,19,r,2,(1.0544208940658713e-14, 172.20000000000002),23,5,2,no,m,6,m,0.9372270999956527,1,46,test1,1,0.9373425000012503,-70.0
20,jq,f,19,r,2,(-121.76378772032348, 121.76378772032349),24,25,4,no,m,6,m,1.1673155999960727,1,47,test1,1,1.1675211999972817,-70.0
20,jq,f,19,r,2,(121.76378772032346, -121.76378772032352),28,7,3,yes,x,5,x,0.6092061000017566,1,48,test1,1,0.6097224999975879,-38.0
20,jq,f,19,r,2,(121.76378772032349, 121.76378772032349),22,3,1,no,m,6,m,1.5044834000000264,1,49,test1,1,1.5051667000007,-38.0
20,jq,f,19,r,2,(-172.20000000000002, 2.1088417881317425e-14),25,25,4,yes,x,5,x,0.5051843000037479,1,50,test1,1,0.5054369999998016,-20.0
20,jq,f,19,r,2,(-121.76378772032352, -121.76378772032348),26,-3,11,yes,x,5,x,1.0096952999956557,1,51,test1,1,1.0109449999945355,-48.0
20,jq,f,19,r,2,(121.76378772032349, 121.76378772032349),22,-7,13,no,m,6,m,1.0232949999990524,1,52,test1,1,1.023434000002453,-48.0
20,jq,f,19,r,2,(121.76378772032346, -121.76378772032352),28,3,1,no,m,6,m,1.3063593999977456,1,53,test1,1,1.306638500005647,-48.0
20,jq,f,19,r,2,(121.76378772032346, -121.76378772032352),28,-3,11,yes,x,5,m,1.0272323000026518,0,54,test1,1,1.027363500004867,-48.0
20,jq,f,19,r,2,(-172.20000000000002, 2.1088417881317425e-14),25,-7,13,no,m,6,m,0.7873613000047044,1,55,test1,1,0.7875801000045612,-48.0
20,jq,f,19,r,2,(-172.20000000000002, 2.1088417881317425e-14),25,7,3,no,m,6,m,0.8718890000018291,1,56,test1,1,0.8719878999982029,-48.0
20,jq,f,19,r,2,(-121.76378772032348, 121.76378772032349),24,-7,13,no,m,6,m,0.6318516000028467,1,57,test1,1,0.6322145000012824,-48.0
20,jq,f,19,r,2,(-3.163262682197613e-14, -172.20000000000002),27,3,1,yes,x,5,x,0.8877081999962684,1,58,test1,1,0.8879289999968023,-42.0
20,jq,f,19,r,2,(172.20000000000002, 0.0),21,-25,14,yes,x,5,x,0.651183600006334,1,59,test1,1,0.6513562999971327,-70.0
20,jq,f,19,r,2,(-121.76378772032352, -121.76378772032348),26,-7,13,yes,x,5,x,0.651066800004628,1,60,test1,1,0.6511657999944873,-52.0
20,jq,f,19,r,2,(121.76378772032349, 121.76378772032349),22,25,4,yes,x,5,x,0.47180200000002515,1,61,test1,1,0.4719055000023218,-20.0
20,jq,f,19,r,2,(172.20000000000002, 0.0),21,-25,14,no,m,6,m,1.0227155999964452,1,62,test1,1,1.0228724000044167,-20.0
20,jq,f,19,r,2,(-121.76378772032352, -121.76378772032348),26,7,3,no,m,6,x,0.6456312000009348,0,63,test1,1,0.6461810999971931,-20.0
20,jq,f,19,r,2,(121.76378772032349, 121.76378772032349),22,25,4,no,m,6,m,0.8376903000025777,1,64,test1,1,0.8377897999962443,-20.0
20,jq,f,19,r,2,(-121.76378772032348, 121.76378772032349),24,-5,12,yes,x,5,x,0.7448987000025227,1,65,test1,1,0.7452965000047698,-50.0
20,jq,f,19,r,2,(121.76378772032346, -121.76378772032352),28,-5,12,yes,x,5,x,1.0466604999965057,1,66,test1,1,1.047022000006109,-50.0
20,jq,f,19,r,2,(172.20000000000002, 0.0),21,5,2,yes,x,5,x,0.6423519999952987,1,67,test1,1,0.6424888000037754,-40.0
20,jq,f,19,r,2,(172.20000000000002, 0.0),21,-5,12,no,m,6,m,0.7596464000016567,1,68,test1,1,0.7598063999976148,-40.0
20,jq,f,19,r,2,(-172.20000000000002, 2.1088417881317425e-14),25,-5,12,no,m,6,m,0.919255200002226,1,69,test1,1,0.9194882000010693,-40.0
20,jq,f,19,r,2,(172.20000000000002, 0.0),21,3,1,no,m,6,m,0.5760587000040687,1,70,test1,1,0.576699400000507,-40.0
20,jq,f,19,r,2,(121.76378772032349, 121.76378772032349),22,-5,12,yes,x,5,x,1.0091183999975328,1,71,test1,1,1.0093190999978106,-50.0
20,jq,f,19,r,2,(1.0544208940658713e-14, 172.20000000000002),23,7,3,yes,x,5,x,0.5117198000007193,1,72,test1,1,0.511892299997271,-38.0
20,jq,f,19,r,2,(172.20000000000002, 0.0),21,7,3,yes,x,5,x,0.5005763000008301,1,73,test1,1,0.5007735999970464,-38.0
20,jq,f,19,r,2,(121.76378772032346, -121.76378772032352),28,-7,13,yes,x,5,x,0.7194038000016008,1,74,test1,1,0.7196235000010347,-52.0
20,jq,f,19,r,2,(1.0544208940658713e-14, 172.20000000000002),23,-3,11,yes,x,5,x,0.7390438999937032,1,75,test1,1,0.7395474000004469,-48.0
20,jq,f,19,r,2,(172.20000000000002, 0.0),21,3,1,yes,x,5,x,0.46127379999961704,1,76,test1,1,0.4615711000005831,-42.0
20,jq,f,19,r,2,(-3.163262682197613e-14, -172.20000000000002),27,-5,12,no,m,6,m,1.3394068999987212,1,77,test1,1,1.3397770000010496,-42.0
20,jq,f,19,r,2,(-121.76378772032348, 121.76378772032349),24,-25,14,yes,x,5,x,0.46966729999985546,1,78,test1,1,0.4699622999978601,-70.0
20,jq,f,19,r,2,(-3.163262682197613e-14, -172.20000000000002),27,5,2,yes,x,5,x,0.6069981999971787,1,79,test1,1,0.6071131999997306,-40.0
20,jq,f,19,r,2,(-121.76378772032348, 121.76378772032349),24,-5,12,no,m,6,m,0.7863784000001033,1,80,test1,1,0.7865861999962362,-40.0
20,jq,f,19,r,2,(1.0544208940658713e-14, 172.20000000000002),23,25,4,yes,x,5,x,0.4282299000042258,1,81,test1,1,0.4284747999990941,-20.0
20,jq,f,19,r,2,(121.76378772032349, 121.76378772032349),22,-3,11,yes,x,5,x,0.8033970999968005,1,82,test1,1,0.8035287999955472,-48.0
20,jq,f,19,r,2,(172.20000000000002, 0.0),21,-25,14,yes,x,5,x,0.5123107000035816,1,83,test1,1,0.5124929000012344,-70.0
20,jq,f,19,r,2,(-121.76378772032348, 121.76378772032349),24,-7,13,yes,x,5,x,0.5663191999992705,1,84,test1,1,0.5664202999978443,-52.0
20,jq,f,19,r,2,(-3.163262682197613e-14, -172.20000000000002),27,3,1,yes,x,5,m,0.7673981000043568,0,85,test1,1,0.7677447000023676,-42.0
20,jq,f,19,r,2,(121.76378772032349, 121.76378772032349),22,-25,14,no,m,6,x,0.6523870000019087,0,86,test1,1,0.6525196000002325,-42.0
20,jq,f,19,r,2,(1.0544208940658713e-14, 172.20000000000002),23,-25,14,yes,x,5,x,0.5042715999952634,1,87,test1,1,0.5046378999977605,-70.0
20,jq,f,19,r,2,(-3.163262682197613e-14, -172.20000000000002),27,-3,11,yes,x,5,m,0.6634415999942576,0,88,test1,1,0.663744500001485,-48.0
20,jq,f,19,r,2,(-121.76378772032348, 121.76378772032349),24,25,4,yes,x,5,x,0.4825615000008838,1,89,test1,1,0.48296190000110073,-20.0
20,jq,f,19,r,2,(172.20000000000002, 0.0),21,25,4,yes,x,5,x,0.5841021000014734,1,90,test1,1,0.5842359999951441,-20.0
20,jq,f,19,r,2,(121.76378772032346, -121.76378772032352),28,-25,14,no,m,6,m,0.6947103999991668,1,91,test1,1,0.6949377999990247,-20.0
20,jq,f,19,r,2,(172.20000000000002, 0.0),21,-3,11,no,m,6,m,0.6198384999952395,1,92,test1,1,0.6200687000018661,-20.0
20,jq,f,19,r,2,(121.76378772032349, 121.76378772032349),22,-5,12,no,m,6,m,0.6646809999947436,1,93,test1,1,0.664867299994512,-20.0
20,jq,f,19,r,2,(121.76378772032349, 121.76378772032349),22,7,3,no,m,6,m,0.6074234999978216,1,94,test1,1,0.6077703000046313,-20.0
20,jq,f,19,r,2,(-3.163262682197613e-14, -172.20000000000002),27,-25,14,yes,x,5,x,0.4567014999993262,1,95,test1,1,0.4569453000003705,-70.0
20,jq,f,19,r,2,(-3.163262682197613e-14, -172.20000000000002),27,25,4,no,m,6,m,0.700484899993171,1,96,test1,1,0.7007731999983662,-70.0
20,jq,f,19,r,2,(172.20000000000002, 0.0),21,-5,12,yes,x,5,x,0.8693917999989935,1,1,test2,1,0.8695294999997714,-50.0
20,jq,f,19,r,2,(-121.76378772032352, -121.76378772032348),26,-25,14,yes,x,5,x,0.6310150999997859,1,2,test2,1,0.6312543000021833,-70.0
20,jq,f,19,r,2,(-121.76378772032352, -121.76378772032348),26,-5,12,yes,x,5,x,0.5279560999988462,1,3,test2,1,0.5280684000026667,-50.0
20,jq,f,19,r,2,(-121.76378772032352, -121.76378772032348),26,3,1,yes,x,5,x,0.8468742999975802,1,4,test2,1,0.8470841000016662,-42.0
20,jq,f,19,r,2,(121.76378772032346, -121.76378772032352),28,3,1,yes,x,5,x,1.7164236000025994,1,5,test2,1,1.7166660000002594,-42.0
20,jq,f,19,r,2,(121.76378772032346, -121.76378772032352),28,-25,14,yes,x,5,x,0.4232369000019389,1,6,test2,1,0.4235040999992634,-70.0
20,jq,f,19,r,2,(-121.76378772032348, 121.76378772032349),24,25,4,yes,x,5,x,0.4056115999992471,1,7,test2,1,0.40570970000408124,-20.0
20,jq,f,19,r,2,(-172.20000000000002, 2.1088417881317425e-14),25,5,2,yes,x,5,x,0.5898796000037692,1,8,test2,1,0.5899769000025117,-40.0
20,jq,f,19,r,2,(1.0544208940658713e-14, 172.20000000000002),23,3,1,yes,x,5,x,0.853575400004047,1,9,test2,1,0.8537083999981405,-42.0
20,jq,f,19,r,2,(121.76378772032346, -121.76378772032352),28,25,4,yes,x,5,x,0.5829747000025236,1,10,test2,1,0.5830977000005078,-20.0
20,jq,f,19,r,2,(-121.76378772032348, 121.76378772032349),24,5,2,yes,x,5,x,0.5209463999999571,1,11,test2,1,0.5212565000038012,-40.0
20,jq,f,19,r,2,(1.0544208940658713e-14, 172.20000000000002),23,5,2,yes,x,5,x,0.542877399995632,1,12,test2,1,0.5433878999974695,-40.0
20,jq,f,19,r,2,(-3.163262682197613e-14, -172.20000000000002),27,-7,13,no,m,6,x,0.9822521000023698,0,13,test2,1,0.9824103999999352,-40.0
20,jq,f,19,r,2,(121.76378772032346, -121.76378772032352),28,-7,13,no,m,6,m,1.1929344000018318,1,14,test2,1,1.193198000000848,-40.0
20,jq,f,19,r,2,(-172.20000000000002, 2.1088417881317425e-14),25,-25,14,yes,x,5,x,0.54550559999916,1,15,test2,1,0.5459054000020842,-70.0
20,jq,f,19,r,2,(-172.20000000000002, 2.1088417881317425e-14),25,3,1,no,m,6,m,0.7868460999961826,1,16,test2,1,0.7869776000006823,-70.0
20,jq,f,19,r,2,(1.0544208940658713e-14, 172.20000000000002),23,-5,12,no,m,6,m,0.7114302999980282,1,17,test2,1,0.7115330999949947,-70.0
20,jq,f,19,r,2,(172.20000000000002, 0.0),21,5,2,yes,x,5,x,0.5421296999993501,1,18,test2,1,0.542292099999031,-40.0
20,jq,f,19,r,2,(-172.20000000000002, 2.1088417881317425e-14),25,-3,11,yes,x,5,x,1.0994817000027979,1,19,test2,1,1.099579800000356,-48.0
20,jq,f,19,r,2,(172.20000000000002, 0.0),21,25,4,no,m,6,m,0.8705329000003985,1,20,test2,1,0.8707710000016959,-48.0
20,jq,f,19,r,2,(121.76378772032346, -121.76378772032352),28,25,4,no,m,6,m,0.803407999999763,1,21,test2,1,0.8037748999995529,-48.0
20,jq,f,19,r,2,(-121.76378772032348, 121.76378772032349),24,3,1,yes,x,5,x,0.7383839999965858,1,22,test2,1,0.7384987999976147,-42.0
20,jq,f,19,r,2,(-3.163262682197613e-14, -172.20000000000002),27,-25,14,yes,x,5,x,0.5781592999992426,1,23,test2,1,0.5782896000018809,-70.0
20,jq,f,19,r,2,(-121.76378772032348, 121.76378772032349),24,-3,11,yes,x,5,x,1.1586460999969859,1,24,test2,1,1.1587675999981002,-48.0
20,jq,f,19,r,2,(121.76378772032349, 121.76378772032349),22,-5,12,yes,x,5,x,0.5840509999979986,1,25,test2,1,0.5841688000000431,-50.0
20,jq,f,19,r,2,(1.0544208940658713e-14, 172.20000000000002),23,7,3,yes,x,5,x,0.5443018000005395,1,26,test2,1,0.5443999999988591,-38.0
20,jq,f,19,r,2,(-121.76378772032348, 121.76378772032349),24,5,2,yes,x,5,x,0.46368510000320384,1,27,test2,1,0.4637866999983089,-40.0
20,jq,f,19,r,2,(-121.76378772032348, 121.76378772032349),24,7,3,yes,x,5,x,0.6015791000027093,1,28,test2,1,0.601810200001637,-38.0
20,jq,f,19,r,2,(-172.20000000000002, 2.1088417881317425e-14),25,5,2,yes,x,5,x,0.6043645000027027,1,29,test2,1,0.6044955000033951,-40.0
20,jq,f,19,r,2,(121.76378772032346, -121.76378772032352),28,-5,12,no,m,6,m,0.8035177999990992,1,30,test2,1,0.8037772999959998,-40.0
20,jq,f,19,r,2,(-172.20000000000002, 2.1088417881317425e-14),25,-3,11,no,m,6,x,0.48605939999833936,0,31,test2,1,0.4861765999958152,-40.0
20,jq,f,19,r,2,(1.0544208940658713e-14, 172.20000000000002),23,-7,13,no,m,6,m,1.336602600000333,1,32,test2,1,1.3367313999988255,-40.0
20,jq,f,19,r,2,(-172.20000000000002, 2.1088417881317425e-14),25,-25,14,yes,x,5,x,0.49752620000072056,1,33,test2,1,0.497748000001593,-70.0
20,jq,f,19,r,2,(1.0544208940658713e-14, 172.20000000000002),23,25,4,no,m,6,m,0.9151639999981853,1,34,test2,1,0.9153112999993027,-70.0
20,jq,f,19,r,2,(172.20000000000002, 0.0),21,5,2,no,m,6,x,0.6990972999992664,0,35,test2,1,0.6993004999967525,-70.0
20,jq,f,19,r,2,(121.76378772032346, -121.76378772032352),28,-7,13,yes,x,5,x,0.652931600001466,1,36,test2,1,0.6531342000016593,-52.0
20,jq,f,19,r,2,(-121.76378772032348, 121.76378772032349),24,-3,11,yes,x,5,m,1.5792473000037717,0,37,test2,1,1.579881400000886,-48.0
20,jq,f,19,r,2,(172.20000000000002, 0.0),21,3,1,yes,x,5,x,0.6960831000033068,1,38,test2,1,0.6962542999972356,-42.0
20,jq,f,19,r,2,(121.76378772032346, -121.76378772032352),28,7,3,no,m,6,m,0.7185064000004786,1,39,test2,1,0.7186329000032856,-42.0
20,jq,f,19,r,2,(-3.163262682197613e-14, -172.20000000000002),27,7,3,yes,x,5,x,0.8277280000038445,1,40,test2,1,0.8281352999983937,-38.0
20,jq,f,19,r,2,(-3.163262682197613e-14, -172.20000000000002),27,3,1,no,m,6,m,0.7358624000044074,1,41,test2,1,0.7359646999975666,-38.0
20,jq,f,19,r,2,(121.76378772032346, -121.76378772032352),28,-5,12,yes,x,5,x,0.844293000001926,1,42,test2,1,0.8445381999990786,-50.0
20,jq,f,19,r,2,(-121.76378772032348, 121.76378772032349),24,-25,14,yes,x,5,x,0.4764121000043815,1,43,test2,1,0.4766287999955239,-70.0
20,jq,f,19,r,2,(121.76378772032346, -121.76378772032352),28,5,2,yes,x,5,x,0.5543773999961559,1,44,test2,1,0.5545366999940597,-40.0
20,jq,f,19,r,2,(-121.76378772032352, -121.76378772032348),26,25,4,no,m,6,m,0.7661108999964199,1,45,test2,1,0.7662229999987176,-40.0
20,jq,f,19,r,2,(-3.163262682197613e-14, -172.20000000000002),27,-25,14,no,m,6,m,0.7665194000001065,1,46,test2,1,0.7667284999988624,-40.0
20,jq,f,19,r,2,(1.0544208940658713e-14, 172.20000000000002),23,25,4,yes,x,5,x,0.48338269999658223,1,47,test2,1,0.4835151999941445,-20.0
20,jq,f,19,r,2,(-3.163262682197613e-14, -172.20000000000002),27,-7,13,yes,x,5,x,0.5020564000005834,1,48,test2,1,0.5022227999943425,-52.0
20,jq,f,19,r,2,(-121.76378772032352, -121.76378772032348),26,3,1,no,m,6,m,0.6858634000018355,1,49,test2,1,0.6859946999975364,-52.0
20,jq,f,19,r,2,(-172.20000000000002, 2.1088417881317425e-14),25,7,3,yes,x,5,x,0.5256790000057663,1,50,test2,1,0.5259088000020711,-38.0
20,jq,f,19,r,2,(172.20000000000002, 0.0),21,-5,12,yes,x,5,x,0.6212385999970138,1,51,test2,1,0.6214584999979706,-50.0
20,jq,f,19,r,2,(1.0544208940658713e-14, 172.20000000000002),23,-7,13,yes,x,5,x,0.5603179999961867,1,52,test2,1,0.5605441000006977,-52.0
20,jq,f,19,r,2,(121.76378772032346, -121.76378772032352),28,3,1,yes,x,5,x,0.6015810000026249,1,53,test2,1,0.60168479999993,-42.0
20,jq,f,19,r,2,(-121.76378772032352, -121.76378772032348),26,7,3,yes,x,5,x,0.5802888000034727,1,54,test2,1,0.5805002999986755,-38.0
20,jq,f,19,r,2,(1.0544208940658713e-14, 172.20000000000002),23,3,1,yes,x,5,x,0.5972938999984763,1,55,test2,1,0.5974997000012081,-42.0
20,jq,f,19,r,2,(121.76378772032349, 121.76378772032349),22,7,3,yes,x,5,x,0.45948549999593524,1,56,test2,1,0.4597033000027295,-38.0
20,jq,f,19,r,2,(-172.20000000000002, 2.1088417881317425e-14),25,-5,12,yes,x,5,x,0.6485186999998405,1,57,test2,1,0.6486221999948611,-50.0
20,jq,f,19,r,2,(-172.20000000000002, 2.1088417881317425e-14),25,-25,14,no,m,6,m,1.0878226999993785,1,58,test2,1,1.0880406000069343,-50.0
20,jq,f,19,r,2,(1.0544208940658713e-14, 172.20000000000002),23,-25,14,yes,x,5,x,0.46379739999974845,1,59,test2,1,0.4641207000022405,-70.0
20,jq,f,19,r,2,(-172.20000000000002, 2.1088417881317425e-14),25,-3,11,yes,x,5,x,0.46059539999987464,1,60,test2,1,0.46089889999711886,-48.0
20,jq,f,19,r,2,(-3.163262682197613e-14, -172.20000000000002),27,-3,11,yes,x,5,x,0.9186151999965659,1,61,test2,1,0.9188159000041196,-48.0
20,jq,f,19,r,2,(-121.76378772032352, -121.76378772032348),26,25,4,yes,x,5,m,0.5047954999972717,0,62,test2,1,0.5049168000041391,-20.0
20,jq,f,19,r,2,(-121.76378772032352, -121.76378772032348),26,-25,14,yes,x,5,x,0.4062523999964469,1,63,test2,1,0.40639509999891743,-70.0
20,jq,f,19,r,2,(121.76378772032349, 121.76378772032349),22,3,1,yes,x,5,x,0.7646099999983562,1,64,test2,1,0.7647072999970987,-42.0
20,jq,f,19,r,2,(-121.76378772032348, 121.76378772032349),24,5,2,no,m,6,m,0.9455078000028152,1,65,test2,1,0.9456408000041847,-42.0
20,jq,f,19,r,2,(172.20000000000002, 0.0),21,-3,11,yes,x,5,x,0.82514309999533,1,66,test2,1,0.8252455000038026,-48.0
20,jq,f,19,r,2,(-121.76378772032348, 121.76378772032349),24,-25,14,no,m,6,m,1.1258031999968807,1,67,test2,1,1.1259679999930086,-48.0
20,jq,f,19,r,2,(-3.163262682197613e-14, -172.20000000000002),27,5,2,yes,x,5,x,0.4943504999973811,1,68,test2,1,0.49466129999927944,-40.0
20,jq,f,19,r,2,(-121.76378772032348, 121.76378772032349),24,7,3,no,m,6,m,0.9348539999991772,1,69,test2,1,0.9350153999985196,-40.0
20,jq,f,19,r,2,(172.20000000000002, 0.0),21,7,3,no,m,6,x,0.675257100003364,0,70,test2,1,0.6760816000023624,-40.0
20,jq,f,19,r,2,(-121.76378772032348, 121.76378772032349),24,7,3,yes,x,5,x,0.8670998999950825,1,71,test2,1,0.8673901000001933,-38.0
20,jq,f,19,r,2,(121.76378772032349, 121.76378772032349),22,3,1,yes,x,5,x,1.1353693999990355,1,72,test2,1,1.135603099995933,-42.0
20,jq,f,19,r,2,(-172.20000000000002, 2.1088417881317425e-14),25,25,4,yes,x,5,x,0.5551568000009866,1,73,test2,1,0.5554072000013548,-20.0
20,jq,f,19,r,2,(121.76378772032346, -121.76378772032352),28,25,4,yes,x,5,x,0.5143612999963807,1,74,test2,1,0.5144758000024012,-20.0
20,jq,f,19,r,2,(-121.76378772032352, -121.76378772032348),26,-7,13,no,m,6,m,1.2764329999990878,1,75,test2,1,1.276550699993095,-20.0
20,jq,f,19,r,2,(-121.76378772032352, -121.76378772032348),26,-7,13,yes,x,5,x,0.5485598000013852,1,76,test2,1,0.5490911999950185,-52.0
20,jq,f,19,r,2,(-121.76378772032352, -121.76378772032348),26,-3,11,yes,x,5,x,0.8606498000008287,1,77,test2,1,0.8608921999984886,-48.0
20,jq,f,19,r,2,(-121.76378772032348, 121.76378772032349),24,3,1,no,m,6,m,0.8533170999944559,1,78,test2,1,0.8534903999970993,-48.0
20,jq,f,19,r,2,(121.76378772032349, 121.76378772032349),22,7,3,yes,x,5,x,0.6825686000011046,1,79,test2,1,0.6828120999998646,-38.0
20,jq,f,19,r,2,(-3.163262682197613e-14, -172.20000000000002),27,-5,12,yes,x,5,x,0.7463951000027009,1,80,test2,1,0.7471599000054994,-50.0
20,jq,f,19,r,2,(1.0544208940658713e-14, 172.20000000000002),23,-3,11,yes,x,5,x,0.7945955999966827,1,81,test2,1,0.7946940000038012,-48.0
20,jq,f,19,r,2,(-172.20000000000002, 2.1088417881317425e-14),25,25,4,no,m,6,m,0.8722228000042378,1,82,test2,1,0.8726177999997162,-48.0
20,jq,f,19,r,2,(1.0544208940658713e-14, 172.20000000000002),23,7,3,no,m,6,x,0.8341255999985151,0,83,test2,1,0.834308500001498,-48.0
20,jq,f,19,r,2,(121.76378772032349, 121.76378772032349),22,-25,14,yes,x,5,x,0.5710106000042288,1,84,test2,1,0.5711407999988296,-70.0
20,jq,f,19,r,2,(1.0544208940658713e-14, 172.20000000000002),23,3,1,no,m,6,m,1.9205985000007786,1,85,test2,1,1.9207534000015585,-70.0
20,jq,f,19,r,2,(-172.20000000000002, 2.1088417881317425e-14),25,3,1,yes,x,5,m,0.8925747999965097,0,86,test2,1,0.892743900003552,-42.0
20,jq,f,19,r,2,(-121.76378772032352, -121.76378772032348),26,5,2,yes,x,5,x,0.5388182999959099,1,87,test2,1,0.5389400999993086,-40.0
20,jq,f,19,r,2,(121.76378772032346, -121.76378772032352),28,-3,11,no,m,6,m,1.3012447000000975,1,88,test2,1,1.3015094000002136,-40.0
20,jq,f,19,r,2,(121.76378772032346, -121.76378772032352),28,-3,11,yes,x,5,m,1.1304117000036058,0,89,test2,1,1.1305097000004025,-48.0
20,jq,f,19,r,2,(-121.76378772032352, -121.76378772032348),26,5,2,no,m,6,m,0.7644572999997763,1,90,test2,1,0.764702499996929,-48.0
20,jq,f,19,r,2,(121.76378772032349, 121.76378772032349),22,-7,13,yes,x,5,x,0.65123339999991,1,91,test2,1,0.6515318999954616,-52.0
20,jq,f,19,r,2,(-3.163262682197613e-14, -172.20000000000002),27,25,4,yes,x,5,x,0.5556275000053574,1,92,test2,1,0.556246000000101,-20.0
20,jq,f,19,r,2,(-172.20000000000002, 2.1088417881317425e-14),25,-5,12,yes,x,5,x,0.5068363999962457,1,93,test2,1,0.5069373999940581,-50.0
20,jq,f,19,r,2,(172.20000000000002, 0.0),21,-3,11,yes,x,5,m,0.9653586999993422,0,94,test2,1,0.9654786000028253,-48.0
20,jq,f,19,r,2,(172.20000000000002, 0.0),21,25,4,yes,x,5,x,0.5780012999966857,1,95,test2,1,0.578236300003482,-20.0
20,jq,f,19,r,2,(172.20000000000002, 0.0),21,-7,13,no,m,6,m,1.3534995000009076,1,96,test2,1,1.3537275999988196,-20.0
20,jq,f,19,r,2,(-172.20000000000002, 2.1088417881317425e-14),25,5,2,no,m,6,m,0.7878428999974858,1,1,test1,2,0.7882212000040454,-20.0
20,jq,f,19,r,2,(-172.20000000000002, 2.1088417881317425e-14),25,-7,13,yes,x,5,x,0.829818800004432,1,2,test1,2,0.8300579000060679,-52.0
20,jq,f,19,r,2,(172.20000000000002, 0.0),21,7,3,yes,x,5,x,0.5521987000029185,1,3,test1,2,0.5522968000004767,-38.0
20,jq,f,19,r,2,(1.0544208940658713e-14, 172.20000000000002),23,5,2,yes,x,5,x,0.5353450999973575,1,4,test1,2,0.5357574000008754,-40.0
20,jq,f,19,r,2,(-121.76378772032348, 121.76378772032349),24,-7,13,yes,x,5,x,0.42550499999924796,1,5,test1,2,0.4259139000059804,-52.0
20,jq,f,19,r,2,(-121.76378772032352, -121.76378772032348),26,-5,12,no,m,6,x,0.6740283000035561,0,6,test1,2,0.6747007999947527,-52.0
20,jq,f,19,r,2,(1.0544208940658713e-14, 172.20000000000002),23,-7,13,yes,x,5,x,0.5535920999973314,1,7,test1,2,0.5537522999948123,-52.0
20,jq,f,19,r,2,(1.0544208940658713e-14, 172.20000000000002),23,-5,12,yes,x,5,x,0.5911342999970657,1,8,test1,2,0.5912339999995311,-50.0
20,jq,f,19,r,2,(121.76378772032346, -121.76378772032352),28,5,2,no,m,6,m,1.1062132000006386,1,9,test1,2,1.1064582000035443,-50.0
20,jq,f,19,r,2,(-121.76378772032352, -121.76378772032348),26,-25,14,no,m,6,m,0.782388899999205,1,10,test1,2,0.7825071000042954,-50.0
20,jq,f,19,r,2,(121.76378772032349, 121.76378772032349),22,-7,13,yes,x,5,x,0.6152966000008746,1,11,test1,2,0.6156187999949907,-52.0
20,jq,f,19,r,2,(-3.163262682197613e-14, -172.20000000000002),27,-7,13,yes,x,5,x,0.560651500003587,1,12,test1,2,0.5608767000012449,-52.0
20,jq,f,19,r,2,(-121.76378772032352, -121.76378772032348),26,5,2,yes,x,5,x,0.4348422999973991,1,13,test1,2,0.4349436000047717,-40.0
20,jq,f,19,r,2,(-3.163262682197613e-14, -172.20000000000002),27,-5,12,yes,x,5,x,0.6553961999961757,1,14,test1,2,0.6556678999986616,-50.0
20,jq,f,19,r,2,(-121.76378772032348, 121.76378772032349),24,-5,12,yes,x,5,x,0.5777405999979237,1,15,test1,2,0.5780945000005886,-50.0
20,jq,f,19,r,2,(121.76378772032349, 121.76378772032349),22,5,2,yes,x,5,x,0.7001248000015039,1,16,test1,2,0.7002242999951704,-40.0
20,jq,f,19,r,2,(-121.76378772032352, -121.76378772032348),26,-3,11,no,m,6,m,1.0752933000039775,1,17,test1,2,1.0756091000002925,-40.0
20,jq,f,19,r,2,(-172.20000000000002, 2.1088417881317425e-14),25,7,3,yes,x,5,x,0.6341408000007505,1,18,test1,2,0.6345321999979205,-38.0
20,jq,f,19,r,2,(1.0544208940658713e-14, 172.20000000000002),23,-25,14,no,m,6,m,1.0250010000017937,1,19,test1,2,1.0252228000026662,-38.0
20,jq,f,19,r,2,(1.0544208940658713e-14, 172.20000000000002),23,-5,12,yes,x,5,x,0.5345997999975225,1,20,test1,2,0.5347872999991523,-50.0
20,jq,f,19,r,2,(-3.163262682197613e-14, -172.20000000000002),27,7,3,yes,x,5,x,0.5626311999949394,1,21,test1,2,0.5627891000040108,-38.0
20,jq,f,19,r,2,(121.76378772032349, 121.76378772032349),22,-3,11,no,m,6,m,0.6802253000059864,1,22,test1,2,0.6803558000028715,-38.0
20,jq,f,19,r,2,(-121.76378772032352, -121.76378772032348),26,25,4,yes,x,5,x,0.4644056000033743,1,23,test1,2,0.4646617999969749,-20.0
20,jq,f,19,r,2,(-172.20000000000002, 2.1088417881317425e-14),25,-7,13,yes,x,5,x,0.45291789999464527,1,24,test1,2,0.4531028999990667,-52.0
20,jq,f,19,r,2,(-121.76378772032352, -121.76378772032348),26,3,1,yes,x,5,x,0.9851024000017787,1,25,test1,2,0.9852358999996795,-42.0
20,jq,f,19,r,2,(121.76378772032349, 121.76378772032349),22,5,2,yes,x,5,x,0.7251274000009289,1,26,test1,2,0.7256858999971882,-40.0
20,jq,f,19,r,2,(121.76378772032349, 121.76378772032349),22,-3,11,yes,x,5,x,0.5191579999955138,1,27,test1,2,0.5192941999994218,-48.0
20,jq,f,19,r,2,(-3.163262682197613e-14, -172.20000000000002),27,-3,11,no,m,6,x,0.571140000000014,0,28,test1,2,0.5713596000059624,-48.0
20,jq,f,19,r,2,(172.20000000000002, 0.0),21,-7,13,yes,x,5,x,0.5647272999995039,1,29,test1,2,0.565003899995645,-52.0
20,jq,f,19,r,2,(-121.76378772032348, 121.76378772032349),24,3,1,yes,x,5,x,0.6023325999994995,1,30,test1,2,0.6026024999955553,-42.0
20,jq,f,19,r,2,(-172.20000000000002, 2.1088417881317425e-14),25,3,1,yes,x,5,x,1.0468887000024552,1,31,test1,2,1.0472700999962399,-42.0
20,jq,f,19,r,2,(-121.76378772032352, -121.76378772032348),26,7,3,yes,x,5,x,0.6915707000007387,1,32,test1,2,0.6916894000023603,-38.0
20,jq,f,19,r,2,(121.76378772032346, -121.76378772032352),28,5,2,yes,x,5,x,0.6200631999963662,1,33,test1,2,0.6201645999972243,-40.0
20,jq,f,19,r,2,(172.20000000000002, 0.0),21,-7,13,yes,x,5,x,0.612167799998133,1,34,test1,2,0.6122973000019556,-52.0
20,jq,f,19,r,2,(-3.163262682197613e-14, -172.20000000000002),27,25,4,yes,x,5,x,0.4070427999977255,1,35,test1,2,0.4072281000044313,-20.0
20,jq,f,19,r,2,(121.76378772032346, -121.76378772032352),28,-25,14,yes,x,5,x,0.50623330000235,1,36,test1,2,0.5063320000044769,-70.0
20,jq,f,19,r,2,(-3.163262682197613e-14, -172.20000000000002),27,7,3,no,m,6,m,0.5810204000008525,1,37,test1,2,0.5818503999980749,-70.0
20,jq,f,19,r,2,(-3.163262682197613e-14, -172.20000000000002),27,5,2,no,m,6,m,0.6542961999948602,1,38,test1,2,0.6544278000001214,-70.0
20,jq,f,19,r,2,(-121.76378772032352, -121.76378772032348),26,-5,12,yes,x,5,x,0.8212039999998524,1,39,test1,2,0.8218339000013657,-50.0
20,jq,f,19,r,2,(121.76378772032349, 121.76378772032349),22,25,4,yes,x,5,x,0.6054445999980089,1,40,test1,2,0.6055458999981056,-20.0
20,jq,f,19,r,2,(121.76378772032346, -121.76378772032352),28,7,3,yes,x,5,x,0.5302407999988645,1,41,test1,2,0.5307197000001906,-38.0
20,jq,f,19,r,2,(1.0544208940658713e-14, 172.20000000000002),23,-3,11,no,m,6,m,0.6801375999930315,1,42,test1,2,0.6802600000009988,-38.0
20,jq,f,19,r,2,(121.76378772032349, 121.76378772032349),22,-25,14,yes,x,5,x,0.44949829999677604,1,43,test1,2,0.4496255000049132,-70.0
20,jq,f,19,r,2,(121.76378772032349, 121.76378772032349),22,5,2,no,m,6,m,0.7259046999970451,1,44,test1,2,0.7260501000055228,-70.0
20,jq,f,19,r,2,(-121.76378772032348, 121.76378772032349),24,-3,11,no,m,6,m,0.7299844000008306,1,45,test1,2,0.7300830000021961,-70.0
20,jq,f,19,r,2,(1.0544208940658713e-14, 172.20000000000002),23,5,2,no,m,6,m,0.860294399994018,1,46,test1,2,0.8607314999972004,-70.0
20,jq,f,19,r,2,(-121.76378772032348, 121.76378772032349),24,25,4,no,m,6,m,1.0708710000035353,1,47,test1,2,1.07110079999984,-70.0
20,jq,f,19,r,2,(121.76378772032346, -121.76378772032352),28,7,3,yes,x,5,x,0.6603956999970251,1,48,test1,2,0.6605272999950103,-38.0
20,jq,f,19,r,2,(121.76378772032349, 121.76378772032349),22,3,1,no,m,6,m,0.6404126999987056,1,49,test1,2,0.6405117999966023,-38.0
20,jq,f,19,r,2,(-172.20000000000002, 2.1088417881317425e-14),25,25,4,yes,x,5,x,0.4339581999956863,1,50,test1,2,0.434265999996569,-20.0
20,jq,f,19,r,2,(-121.76378772032352, -121.76378772032348),26,-3,11,yes,x,5,m,0.6998075000010431,0,51,test1,2,0.6999366999953054,-48.0
20,jq,f,19,r,2,(121.76378772032349, 121.76378772032349),22,-7,13,no,m,6,x,0.9700110999983735,0,52,test1,2,0.9701295999984723,-48.0
20,jq,f,19,r,2,(121.76378772032346, -121.76378772032352),28,3,1,no,m,6,m,0.6999329999962356,1,53,test1,2,0.7003425000002608,-48.0
20,jq,f,19,r,2,(121.76378772032346, -121.76378772032352),28,-3,11,yes,x,5,x,1.058345500001451,1,54,test1,2,1.0587297999954899,-48.0
20,jq,f,19,r,2,(-172.20000000000002, 2.1088417881317425e-14),25,-7,13,no,m,6,m,1.0416151999961585,1,55,test1,2,1.0417194000037853,-48.0
20,jq,f,19,r,2,(-172.20000000000002, 2.1088417881317425e-14),25,7,3,no,m,6,m,0.5721536999990349,1,56,test1,2,0.5723093999986304,-48.0
20,jq,f,19,r,2,(-121.76378772032348, 121.76378772032349),24,-7,13,no,m,6,m,0.629617300000973,1,57,test1,2,0.6299531999975443,-48.0
20,jq,f,19,r,2,(-3.163262682197613e-14, -172.20000000000002),27,3,1,yes,x,5,x,0.9832910000041011,1,58,test1,2,0.9836592999999993,-42.0
20,jq,f,19,r,2,(172.20000000000002, 0.0),21,-25,14,yes,x,5,x,0.4935165999995661,1,59,test1,2,0.49362050000490854,-70.0
20,jq,f,19,r,2,(-121.76378772032352, -121.76378772032348),26,-7,13,yes,x,5,x,0.4744338000018615,1,60,test1,2,0.47487749999709195,-52.0
20,jq,f,19,r,2,(121.76378772032349, 121.76378772032349),22,25,4,yes,x,5,x,0.5204886999999871,1,61,test1,2,0.5207250999956159,-20.0
20,jq,f,19,r,2,(172.20000000000002, 0.0),21,-25,14,no,m,6,m,1.2764440999962972,1,62,test1,2,1.2765455000044312,-20.0
20,jq,f,19,r,2,(-121.76378772032352, -121.76378772032348),26,7,3,no,m,6,m,0.6254277000043658,1,63,test1,2,0.6257512000011047,-20.0
20,jq,f,19,r,2,(121.76378772032349, 121.76378772032349),22,25,4,no,m,6,m,0.70135979999759,1,64,test1,2,0.7015804999973625,-20.0
20,jq,f,19,r,2,(-121.76378772032348, 121.76378772032349),24,-5,12,yes,x,5,x,0.7654333000027691,1,65,test1,2,0.7657966999977361,-50.0
20,jq,f,19,r,2,(121.76378772032346, -121.76378772032352),28,-5,12,yes,x,5,x,1.7399727000010898,1,66,test1,2,1.740197499995702,-50.0
20,jq,f,19,r,2,(172.20000000000002, 0.0),21,5,2,yes,x,5,x,0.6233594000004814,1,67,test1,2,0.6235856999992393,-40.0
20,jq,f,19,r,2,(172.20000000000002, 0.0),21,-5,12,no,m,6,m,1.3240150999990874,1,68,test1,2,1.3241406000015559,-40.0
20,jq,f,19,r,2,(-172.20000000000002, 2.1088417881317425e-14),25,-5,12,no,m,6,m,0.7314643999998225,1,69,test1,2,0.7315801000004285,-40.0
20,jq,f,19,r,2,(172.20000000000002, 0.0),21,3,1,no,m,6,m,0.6661835000049905,1,70,test1,2,0.6664612000022316,-40.0
20,jq,f,19,r,2,(121.76378772032349, 121.76378772032349),22,-5,12,yes,x,5,x,0.7293283999970299,1,71,test1,2,0.7298930999968434,-50.0
20,jq,f,19,r,2,(1.0544208940658713e-14, 172.20000000000002),23,7,3,yes,x,5,x,0.8702078999995138,1,72,test1,2,0.8703357999984291,-38.0
20,jq,f,19,r,2,(172.20000000000002, 0.0),21,7,3,yes,x,5,x,0.5175792999943951,1,73,test1,2,0.5178048000016133,-38.0
20,jq,f,19,r,2,(121.76378772032346, -121.76378772032352),28,-7,13,yes,x,5,x,0.847496600006707,1,74,test1,2,0.8475947000042652,-52.0
20,jq,f,19,r,2,(1.0544208940658713e-14, 172.20000000000002),23,-3,11,yes,x,5,x,1.1146010000011302,1,75,test1,2,1.1148118000055547,-48.0
20,jq,f,19,r,2,(172.20000000000002, 0.0),21,3,1,yes,x,5,x,1.6768840000004275,1,76,test1,2,1.6770895999943605,-42.0
20,jq,f,19,r,2,(-3.163262682197613e-14, -172.20000000000002),27,-5,12,no,m,6,m,1.3253784999978961,1,77,test1,2,1.3255858000047738,-42.0
20,jq,f,19,r,2,(-121.76378772032348, 121.76378772032349),24,-25,14,yes,x,5,x,0.4898232999985339,1,78,test1,2,0.49006720000033965,-70.0
20,jq,f,19,r,2,(-3.163262682197613e-14, -172.20000000000002),27,5,2,yes,x,5,x,0.646188799997617,1,79,test1,2,0.6463096000006772,-40.0
20,jq,f,19,r,2,(-121.76378772032348, 121.76378772032349),24,-5,12,no,m,6,m,0.9160021999996388,1,80,test1,2,0.9162249000000884,-40.0
20,jq,f,19,r,2,(1.0544208940658713e-14, 172.20000000000002),23,25,4,yes,x,5,x,0.5964716000016779,1,81,test1,2,0.5966059999991558,-20.0
20,jq,f,19,r,2,(121.76378772032349, 121.76378772032349),22,-3,11,yes,x,5,x,0.8362953999967431,1,82,test1,2,0.8365231999996467,-48.0
20,jq,f,19,r,2,(172.20000000000002, 0.0),21,-25,14,yes,x,5,x,0.5903638000017963,1,83,test1,2,0.5906036000014865,-70.0
20,jq,f,19,r,2,(-121.76378772032348, 121.76378772032349),24,-7,13,yes,x,5,x,0.465806899999734,1,84,test1,2,0.4664621000047191,-52.0
20,jq,f,19,r,2,(-3.163262682197613e-14, -172.20000000000002),27,3,1,yes,x,5,x,0.8220070000024862,1,85,test1,2,0.8221096000052057,-42.0
20,jq,f,19,r,2,(121.76378772032349, 121.76378772032349),22,-25,14,no,m,6,m,0.7787242999984301,1,86,test1,2,0.7791308000014396,-42.0
20,jq,f,19,r,2,(1.0544208940658713e-14, 172.20000000000002),23,-25,14,yes,x,5,x,0.4507123000003048,1,87,test1,2,0.4508127999943099,-70.0
20,jq,f,19,r,2,(-3.163262682197613e-14, -172.20000000000002),27,-3,11,yes,x,5,x,0.6952211000025272,1,88,test1,2,0.6954619999960414,-48.0
20,jq,f,19,r,2,(-121.76378772032348, 121.76378772032349),24,25,4,yes,x,5,x,0.5169808999999077,1,89,test1,2,0.5173720000020694,-20.0
20,jq,f,19,r,2,(172.20000000000002, 0.0),21,25,4,yes,x,5,x,0.5465457000027527,1,90,test1,2,0.5466623000029358,-20.0
20,jq,f,19,r,2,(121.76378772032346, -121.76378772032352),28,-25,14,no,m,6,m,0.7092659999980242,1,91,test1,2,0.7094355999943218,-20.0
20,jq,f,19,r,2,(172.20000000000002, 0.0),21,-3,11,no,m,6,x,1.0149388999998337,0,92,test1,2,1.015103800003999,-20.0
20,jq,f,19,r,2,(121.76378772032349, 121.76378772032349),22,-5,12,no,m,6,m,1.5347083000015118,1,93,test1,2,1.5349506999991718,-20.0
20,jq,f,19,r,2,(121.76378772032349, 121.76378772032349),22,7,3,no,m,6,m,0.8428478999994695,1,94,test1,2,0.8430783999938285,-20.0
20,jq,f,19,r,2,(-3.163262682197613e-14, -172.20000000000002),27,-25,14,yes,x,5,x,0.7057443000012427,1,95,test1,2,0.7058672999992268,-70.0
20,jq,f,19,r,2,(-3.163262682197613e-14, -172.20000000000002),27,25,4,no,m,6,m,1.535178199999791,1,96,test1,2,1.5352791999976034,-70.0
20,jq,f,19,r,2,(172.20000000000002, 0.0),21,-5,12,yes,x,5,x,0.7262188000022434,1,1,test2,2,0.7263216999999713,-50.0
20,jq,f,19,r,2,(-121.76378772032352, -121.76378772032348),26,-25,14,yes,x,5,x,0.41045909999957075,1,2,test2,2,0.4108496000044397,-70.0
20,jq,f,19,r,2,(-121.76378772032352, -121.76378772032348),26,-5,12,yes,x,5,x,0.6239731999958167,1,3,test2,2,0.624136999998882,-50.0
20,jq,f,19,r,2,(-121.76378772032352, -121.76378772032348),26,3,1,yes,x,5,m,1.4309418999982881,0,4,test2,2,1.4311954000004334,-42.0
20,jq,f,19,r,2,(121.76378772032346, -121.76378772032352),28,3,1,yes,x,5,x,1.209768399996392,1,5,test2,2,1.2098705000025802,-42.0
20,jq,f,19,r,2,(121.76378772032346, -121.76378772032352),28,-25,14,yes,x,5,x,0.49490979999973206,1,6,test2,2,0.4954141999987769,-70.0
20,jq,f,19,r,2,(-121.76378772032348, 121.76378772032349),24,25,4,yes,x,5,x,0.6364133999959449,1,7,test2,2,0.6368519999959972,-20.0
20,jq,f,19,r,2,(-172.20000000000002, 2.1088417881317425e-14),25,5,2,yes,x,5,x,1.1079993000021204,1,8,test2,2,1.1080957999947714,-40.0
20,jq,f,19,r,2,(1.0544208940658713e-14, 172.20000000000002),23,3,1,yes,x,5,x,0.9279755999959889,1,9,test2,2,0.9282507000025362,-42.0
20,jq,f,19,r,2,(121.76378772032346, -121.76378772032352),28,25,4,yes,x,5,x,0.533551600005012,1,10,test2,2,0.5336793000024045,-20.0
20,jq,f,19,r,2,(-121.76378772032348, 121.76378772032349),24,5,2,yes,x,5,x,0.5848009999972419,1,11,test2,2,0.5849595999970916,-40.0
20,jq,f,19,r,2,(1.0544208940658713e-14, 172.20000000000002),23,5,2,yes,x,5,x,0.5561725000006845,1,12,test2,2,0.5564965000012307,-40.0
20,jq,f,19,r,2,(-3.163262682197613e-14, -172.20000000000002),27,-7,13,no,m,6,x,0.4879051000025356,0,13,test2,2,0.48827190000156406,-40.0
20,jq,f,19,r,2,(121.76378772032346, -121.76378772032352),28,-7,13,no,m,6,m,1.8264992000040365,1,14,test2,2,1.8265996000045561,-40.0
20,jq,f,19,r,2,(-172.20000000000002, 2.1088417881317425e-14),25,-25,14,yes,x,5,x,0.4134371999971336,1,15,test2,2,0.41368230000080075,-70.0
20,jq,f,19,r,2,(-172.20000000000002, 2.1088417881317425e-14),25,3,1,no,m,6,m,1.2799277000012808,1,16,test2,2,1.2801814999984344,-70.0
20,jq,f,19,r,2,(1.0544208940658713e-14, 172.20000000000002),23,-5,12,no,m,6,m,0.9254724999991595,1,17,test2,2,0.9256775999965612,-70.0
20,jq,f,19,r,2,(172.20000000000002, 0.0),21,5,2,yes,x,5,x,0.6456479000044055,1,18,test2,2,0.6458711000013864,-40.0
20,jq,f,19,r,2,(-172.20000000000002, 2.1088417881317425e-14),25,-3,11,yes,x,5,m,1.7391464000029373,0,19,test2,2,1.7392768999998225,-48.0
20,jq,f,19,r,2,(172.20000000000002, 0.0),21,25,4,no,m,6,x,0.5520684000002802,0,20,test2,2,0.5528878000041004,-48.0
20,jq,f,19,r,2,(121.76378772032346, -121.76378772032352),28,25,4,no,m,6,m,1.3379797999950824,1,21,test2,2,1.338120100001106,-48.0
20,jq,f,19,r,2,(-121.76378772032348, 121.76378772032349),24,3,1,yes,x,5,x,0.659914399999252,1,22,test2,2,0.6603379999942263,-42.0
20,jq,f,19,r,2,(-3.163262682197613e-14, -172.20000000000002),27,-25,14,yes,x,5,x,0.5935349999999744,1,23,test2,2,0.5936331000048085,-70.0
20,jq,f,19,r,2,(-121.76378772032348, 121.76378772032349),24,-3,11,yes,x,5,x,0.9236811000009766,1,24,test2,2,0.9238664000004064,-48.0
20,jq,f,19,r,2,(121.76378772032349, 121.76378772032349),22,-5,12,yes,x,5,x,0.7620540000061737,1,25,test2,2,0.7623010999959661,-50.0
20,jq,f,19,r,2,(1.0544208940658713e-14, 172.20000000000002),23,7,3,yes,x,5,x,0.5183344000033685,1,26,test2,2,0.5185683000017889,-38.0
20,jq,f,19,r,2,(-121.76378772032348, 121.76378772032349),24,5,2,yes,x,5,x,0.6708234000034281,1,27,test2,2,0.6709370000025956,-40.0
20,jq,f,19,r,2,(-121.76378772032348, 121.76378772032349),24,7,3,yes,x,5,x,0.6450353999971412,1,28,test2,2,0.6451869000011357,-38.0
20,jq,f,19,r,2,(-172.20000000000002, 2.1088417881317425e-14),25,5,2,yes,x,5,x,0.6972053999998025,1,29,test2,2,0.6975307999964571,-40.0
20,jq,f,19,r,2,(121.76378772032346, -121.76378772032352),28,-5,12,no,m,6,m,0.6909104000005755,1,30,test2,2,0.6911327999987407,-40.0
20,jq,f,19,r,2,(-172.20000000000002, 2.1088417881317425e-14),25,-3,11,no,m,6,m,1.588422900000296,1,31,test2,2,1.5885233000008157,-40.0
20,jq,f,19,r,2,(1.0544208940658713e-14, 172.20000000000002),23,-7,13,no,m,6,m,0.7263988000049721,1,32,test2,2,0.7266270999971312,-40.0
20,jq,f,19,r,2,(-172.20000000000002, 2.1088417881317425e-14),25,-25,14,yes,x,5,x,0.47388929999578977,1,33,test2,2,0.47405630000139354,-70.0
20,jq,f,19,r,2,(1.0544208940658713e-14, 172.20000000000002),23,25,4,no,m,6,m,0.7135087999995449,1,34,test2,2,0.713653400001931,-70.0
20,jq,f,19,r,2,(172.20000000000002, 0.0),21,5,2,no,m,6,m,0.7583169000063208,1,35,test2,2,0.7584388999966905,-70.0
20,jq,f,19,r,2,(121.76378772032346, -121.76378772032352),28,-7,13,yes,x,5,x,0.6657561000029091,1,36,test2,2,0.6659941999969305,-52.0
20,jq,f,19,r,2,(-121.76378772032348, 121.76378772032349),24,-3,11,yes,x,5,m,0.8502020999949309,0,37,test2,2,0.8503523999970639,-48.0
20,jq,f,19,r,2,(172.20000000000002, 0.0),21,3,1,yes,x,5,x,0.847125699998287,1,38,test2,2,0.8472412999981316,-42.0
20,jq,f,19,r,2,(121.76378772032346, -121.76378772032352),28,7,3,no,m,6,m,0.8247092999954475,1,39,test2,2,0.8249066999997012,-42.0
20,jq,f,19,r,2,(-3.163262682197613e-14, -172.20000000000002),27,7,3,yes,x,5,x,0.6698077999972156,1,40,test2,2,0.6699394000024768,-38.0
20,jq,f,19,r,2,(-3.163262682197613e-14, -172.20000000000002),27,3,1,no,m,6,m,0.9033932000020286,1,41,test2,2,0.9035081999973045,-38.0
20,jq,f,19,r,2,(121.76378772032346, -121.76378772032352),28,-5,12,yes,x,5,x,1.1490585999999894,1,42,test2,2,1.1491651000033016,-50.0
20,jq,f,19,r,2,(-121.76378772032348, 121.76378772032349),24,-25,14,yes,x,5,x,0.6360932000025059,1,43,test2,2,0.6363270000001648,-70.0
20,jq,f,19,r,2,(121.76378772032346, -121.76378772032352),28,5,2,yes,x,5,x,0.9646930000017164,1,44,test2,2,0.96480000000156,-40.0
20,jq,f,19,r,2,(-121.76378772032352, -121.76378772032348),26,25,4,no,m,6,m,1.233998399999109,1,45,test2,2,1.2340986000053817,-40.0
20,jq,f,19,r,2,(-3.163262682197613e-14, -172.20000000000002),27,-25,14,no,m,6,x,0.6841561000037473,0,46,test2,2,0.6842838000011398,-40.0
20,jq,f,19,r,2,(1.0544208940658713e-14, 172.20000000000002),23,25,4,yes,x,5,x,1.5056226000015158,1,47,test2,2,1.5057295999940834,-20.0
20,jq,f,19,r,2,(-3.163262682197613e-14, -172.20000000000002),27,-7,13,yes,x,5,x,0.7105913999985205,1,48,test2,2,0.7109823999999207,-52.0
20,jq,f,19,r,2,(-121.76378772032352, -121.76378772032348),26,3,1,no,m,6,None,None,0,49,test2,2,1.9801550000047428,-52.0
20,jq,f,19,r,2,(-172.20000000000002, 2.1088417881317425e-14),25,7,3,yes,x,5,x,0.7060310000015306,1,50,test2,2,0.7063229999985197,-38.0
20,jq,f,19,r,2,(172.20000000000002, 0.0),21,-5,12,yes,x,5,x,0.5840280999982497,1,51,test2,2,0.5841325000001234,-50.0
20,jq,f,19,r,2,(1.0544208940658713e-14, 172.20000000000002),23,-7,13,yes,x,5,x,0.45661500000278465,1,52,test2,2,0.45673579999856884,-52.0
20,jq,f,19,r,2,(121.76378772032346, -121.76378772032352),28,3,1,yes,x,5,x,0.5331303000057233,1,53,test2,2,0.5334526000006008,-42.0
20,jq,f,19,r,2,(-121.76378772032352, -121.76378772032348),26,7,3,yes,x,5,x,0.46533739999722457,1,54,test2,2,0.4655759999950533,-38.0
20,jq,f,19,r,2,(1.0544208940658713e-14, 172.20000000000002),23,3,1,yes,x,5,x,1.0023896000056993,1,55,test2,2,1.0026691999955801,-42.0
20,jq,f,19,r,2,(121.76378772032349, 121.76378772032349),22,7,3,yes,x,5,x,0.5377547000025515,1,56,test2,2,0.5379214999993565,-38.0
20,jq,f,19,r,2,(-172.20000000000002, 2.1088417881317425e-14),25,-5,12,yes,x,5,x,0.6983142000026419,1,57,test2,2,0.6984770000053686,-50.0
20,jq,f,19,r,2,(-172.20000000000002, 2.1088417881317425e-14),25,-25,14,no,m,6,m,1.2916480999992928,1,58,test2,2,1.291767800001253,-50.0
20,jq,f,19,r,2,(1.0544208940658713e-14, 172.20000000000002),23,-25,14,yes,x,5,x,0.43198880000272766,1,59,test2,2,0.43208070000400767,-70.0
20,jq,f,19,r,2,(-172.20000000000002, 2.1088417881317425e-14),25,-3,11,yes,x,5,x,1.0256697000004351,1,60,test2,2,1.0258360999941942,-48.0
20,jq,f,19,r,2,(-3.163262682197613e-14, -172.20000000000002),27,-3,11,yes,x,5,x,0.6515432000014698,1,61,test2,2,0.6517803000024287,-48.0
20,jq,f,19,r,2,(-121.76378772032352, -121.76378772032348),26,25,4,yes,x,5,x,0.36986890000116546,1,62,test2,2,0.37000350000016624,-20.0
20,jq,f,19,r,2,(-121.76378772032352, -121.76378772032348),26,-25,14,yes,x,5,x,0.528249599999981,1,63,test2,2,0.5284811000019545,-70.0
20,jq,f,19,r,2,(121.76378772032349, 121.76378772032349),22,3,1,yes,x,5,m,0.883619300002465,0,64,test2,2,0.8839074999996228,-42.0
20,jq,f,19,r,2,(-121.76378772032348, 121.76378772032349),24,5,2,no,m,6,x,0.8863415000014356,0,65,test2,2,0.8864415999996709,-42.0
20,jq,f,19,r,2,(172.20000000000002, 0.0),21,-3,11,yes,x,5,x,1.1347956999961752,1,66,test2,2,1.1351470999943558,-48.0
20,jq,f,19,r,2,(-121.76378772032348, 121.76378772032349),24,-25,14,no,m,6,m,0.8943213000020478,1,67,test2,2,0.8944172999981674,-48.0
20,jq,f,19,r,2,(-3.163262682197613e-14, -172.20000000000002),27,5,2,yes,x,5,x,0.5562274000039906,1,68,test2,2,0.5563517999980832,-40.0
20,jq,f,19,r,2,(-121.76378772032348, 121.76378772032349),24,7,3,no,m,6,m,0.7799874999982421,1,69,test2,2,0.7800882999945316,-40.0
20,jq,f,19,r,2,(172.20000000000002, 0.0),21,7,3,no,m,6,m,1.0132047000006423,1,70,test2,2,1.0133605000009993,-40.0
20,jq,f,19,r,2,(-121.76378772032348, 121.76378772032349),24,7,3,yes,x,5,x,0.5230435999983456,1,71,test2,2,0.523370300004899,-38.0
20,jq,f,19,r,2,(121.76378772032349, 121.76378772032349),22,3,1,yes,x,5,x,1.2049380999960704,1,72,test2,2,1.20537389999663,-42.0
20,jq,f,19,r,2,(-172.20000000000002, 2.1088417881317425e-14),25,25,4,yes,x,5,x,0.5122340000016266,1,73,test2,2,0.5125114999973448,-20.0
20,jq,f,19,r,2,(121.76378772032346, -121.76378772032352),28,25,4,yes,x,5,x,0.6471882999976515,1,74,test2,2,0.6473553999967407,-20.0
20,jq,f,19,r,2,(-121.76378772032352, -121.76378772032348),26,-7,13,no,m,6,m,1.0262846000041463,1,75,test2,2,1.0265077000003657,-20.0
20,jq,f,19,r,2,(-121.76378772032352, -121.76378772032348),26,-7,13,yes,x,5,x,0.5535218000004534,1,76,test2,2,0.553631899994798,-52.0
20,jq,f,19,r,2,(-121.76378772032352, -121.76378772032348),26,-3,11,yes,x,5,x,0.9982312000065576,1,77,test2,2,0.998499900000752,-48.0
20,jq,f,19,r,2,(-121.76378772032348, 121.76378772032349),24,3,1,no,m,6,m,1.1336655999984941,1,78,test2,2,1.1339932999981102,-48.0
20,jq,f,19,r,2,(121.76378772032349, 121.76378772032349),22,7,3,yes,x,5,x,1.1197240999972564,1,79,test2,2,1.1202969000005396,-38.0
20,jq,f,19,r,2,(-3.163262682197613e-14, -172.20000000000002),27,-5,12,yes,x,5,x,1.313743600003363,1,80,test2,2,1.313962599997467,-50.0
20,jq,f,19,r,2,(1.0544208940658713e-14, 172.20000000000002),23,-3,11,yes,x,5,m,1.450611200001731,0,81,test2,2,1.4508249999998952,-48.0
20,jq,f,19,r,2,(-172.20000000000002, 2.1088417881317425e-14),25,25,4,no,m,6,m,0.8332007999997586,1,82,test2,2,0.8339479999995092,-48.0
20,jq,f,19,r,2,(1.0544208940658713e-14, 172.20000000000002),23,7,3,no,m,6,m,0.889398599996639,1,83,test2,2,0.8897579000040423,-48.0
20,jq,f,19,r,2,(121.76378772032349, 121.76378772032349),22,-25,14,yes,x,5,x,0.41743119999591727,1,84,test2,2,0.41752940000151284,-70.0
20,jq,f,19,r,2,(1.0544208940658713e-14, 172.20000000000002),23,3,1,no,m,6,m,1.2622759000005317,1,85,test2,2,1.2630750000025728,-70.0
20,jq,f,19,r,2,(-172.20000000000002, 2.1088417881317425e-14),25,3,1,yes,x,5,m,0.9116999000034411,0,86,test2,2,0.9120251999993343,-42.0
20,jq,f,19,r,2,(-121.76378772032352, -121.76378772032348),26,5,2,yes,x,5,x,0.6738728999989689,1,87,test2,2,0.6740405000018654,-40.0
20,jq,f,19,r,2,(121.76378772032346, -121.76378772032352),28,-3,11,no,m,6,m,1.1687818999998854,1,88,test2,2,1.1690065000002505,-40.0
20,jq,f,19,r,2,(121.76378772032346, -121.76378772032352),28,-3,11,yes,x,5,x,0.6516612999985227,1,89,test2,2,0.6520735000012792,-48.0
20,jq,f,19,r,2,(-121.76378772032352, -121.76378772032348),26,5,2,no,m,6,m,0.7251906000019517,1,90,test2,2,0.7254667000015615,-48.0
20,jq,f,19,r,2,(121.76378772032349, 121.76378772032349),22,-7,13,yes,x,5,x,0.6192825000034645,1,91,test2,2,0.6194118999992497,-52.0
20,jq,f,19,r,2,(-3.163262682197613e-14, -172.20000000000002),27,25,4,yes,x,5,x,0.5118758999960846,1,92,test2,2,0.5120098000043072,-20.0
20,jq,f,19,r,2,(-172.20000000000002, 2.1088417881317425e-14),25,-5,12,yes,x,5,x,0.710459300004004,1,93,test2,2,0.7105572999935248,-50.0
20,jq,f,19,r,2,(172.20000000000002, 0.0),21,-3,11,yes,x,5,x,0.7811509999955888,1,94,test2,2,0.781285699995351,-48.0
20,jq,f,19,r,2,(172.20000000000002, 0.0),21,25,4,yes,x,5,x,0.6952699000030407,1,95,test2,2,0.6953721999961999,-20.0
20,jq,f,19,r,2,(172.20000000000002, 0.0),21,-7,13,no,m,6,m,0.9675428999980795,1,96,test2,2,0.9676793999969959,-20.0
20,jq,f,19,r,2,(-172.20000000000002, 2.1088417881317425e-14),25,5,2,no,m,6,m,1.1247953999991296,1,1,test1,3,1.1253885000041919,-20.0
20,jq,f,19,r,2,(-172.20000000000002, 2.1088417881317425e-14),25,-7,13,yes,x,5,x,0.5529649000018253,1,2,test1,3,0.5530627999978606,-52.0
20,jq,f,19,r,2,(172.20000000000002, 0.0),21,7,3,yes,x,5,x,0.564510699994571,1,3,test1,3,0.5646077999990666,-38.0
20,jq,f,19,r,2,(1.0544208940658713e-14, 172.20000000000002),23,5,2,yes,x,5,x,0.5640778999950271,1,4,test1,3,0.564192700003332,-40.0
20,jq,f,19,r,2,(-121.76378772032348, 121.76378772032349),24,-7,13,yes,x,5,x,0.5498284999994212,1,5,test1,3,0.5499411999990116,-52.0
20,jq,f,19,r,2,(-121.76378772032352, -121.76378772032348),26,-5,12,no,m,6,x,1.1468243000053917,0,6,test1,3,1.1479341999947792,-52.0
20,jq,f,19,r,2,(1.0544208940658713e-14, 172.20000000000002),23,-7,13,yes,x,5,x,1.1461819000032847,1,7,test1,3,1.1466062999970745,-52.0
20,jq,f,19,r,2,(1.0544208940658713e-14, 172.20000000000002),23,-5,12,yes,x,5,x,0.5380329999970854,1,8,test1,3,0.5382011999972747,-50.0
20,jq,f,19,r,2,(121.76378772032346, -121.76378772032352),28,5,2,no,m,6,m,0.7204527000067174,1,9,test1,3,0.7206003999963286,-50.0
20,jq,f,19,r,2,(-121.76378772032352, -121.76378772032348),26,-25,14,no,m,6,m,0.6722108000030858,1,10,test1,3,0.6723475000035251,-50.0
20,jq,f,19,r,2,(121.76378772032349, 121.76378772032349),22,-7,13,yes,x,5,x,0.7040981000027386,1,11,test1,3,0.7041982000009739,-52.0
20,jq,f,19,r,2,(-3.163262682197613e-14, -172.20000000000002),27,-7,13,yes,x,5,x,0.6556402999995044,1,12,test1,3,0.6558626000041841,-52.0
20,jq,f,19,r,2,(-121.76378772032352, -121.76378772032348),26,5,2,yes,x,5,x,0.6093497000038042,1,13,test1,3,0.6097583000009763,-40.0
20,jq,f,19,r,2,(-3.163262682197613e-14, -172.20000000000002),27,-5,12,yes,x,5,x,0.5829005000050529,1,14,test1,3,0.5835251000025892,-50.0
20,jq,f,19,r,2,(-121.76378772032348, 121.76378772032349),24,-5,12,yes,x,5,x,0.6000770999962697,1,15,test1,3,0.6001774999967893,-50.0
20,jq,f,19,r,2,(121.76378772032349, 121.76378772032349),22,5,2,yes,x,5,x,0.5699781999937841,1,16,test1,3,0.5701189000028535,-40.0
20,jq,f,19,r,2,(-121.76378772032352, -121.76378772032348),26,-3,11,no,m,6,m,0.7619686999969417,1,17,test1,3,0.7621642000012798,-40.0
20,jq,f,19,r,2,(-172.20000000000002, 2.1088417881317425e-14),25,7,3,yes,x,5,x,0.48635709999507526,1,18,test1,3,0.4867022000034922,-38.0
20,jq,f,19,r,2,(1.0544208940658713e-14, 172.20000000000002),23,-25,14,no,m,6,x,0.7340953000020818,0,19,test1,3,0.7342146000009961,-38.0
20,jq,f,19,r,2,(1.0544208940658713e-14, 172.20000000000002),23,-5,12,yes,x,5,x,0.6740034999966156,1,20,test1,3,0.6741679000042495,-50.0
20,jq,f,19,r,2,(-3.163262682197613e-14, -172.20000000000002),27,7,3,yes,x,5,x,0.7053562000000966,1,21,test1,3,0.705533699998341,-38.0
20,jq,f,19,r,2,(121.76378772032349, 121.76378772032349),22,-3,11,no,m,6,m,0.8859538000033353,1,22,test1,3,0.886285600005067,-38.0
20,jq,f,19,r,2,(-121.76378772032352, -121.76378772032348),26,25,4,yes,x,5,x,0.41299740000249585,1,23,test1,3,0.4131264000025112,-20.0
20,jq,f,19,r,2,(-172.20000000000002, 2.1088417881317425e-14),25,-7,13,yes,x,5,x,0.507575599993288,1,24,test1,3,0.5079401999973925,-52.0
20,jq,f,19,r,2,(-121.76378772032352, -121.76378772032348),26,3,1,yes,x,5,x,0.512288300000364,1,25,test1,3,0.5124195999960648,-42.0
20,jq,f,19,r,2,(121.76378772032349, 121.76378772032349),22,5,2,yes,x,5,x,0.5841642999948817,1,26,test1,3,0.5845446999956039,-40.0
20,jq,f,19,r,2,(121.76378772032349, 121.76378772032349),22,-3,11,yes,x,5,m,1.0749931000027573,0,27,test1,3,1.0752030000003288,-48.0
20,jq,f,19,r,2,(-3.163262682197613e-14, -172.20000000000002),27,-3,11,no,m,6,m,0.8952588000029209,1,28,test1,3,0.8955436999967787,-48.0
20,jq,f,19,r,2,(172.20000000000002, 0.0),21,-7,13,yes,x,5,x,0.5624540999997407,1,29,test1,3,0.5625517000007676,-52.0
20,jq,f,19,r,2,(-121.76378772032348, 121.76378772032349),24,3,1,yes,x,5,x,1.0221130999998422,1,30,test1,3,1.0222082999971462,-42.0
20,jq,f,19,r,2,(-172.20000000000002, 2.1088417881317425e-14),25,3,1,yes,x,5,x,0.6265134999994189,1,31,test1,3,0.6270308000021032,-42.0
20,jq,f,19,r,2,(-121.76378772032352, -121.76378772032348),26,7,3,yes,x,5,x,0.6956052000023192,1,32,test1,3,0.6957217000017408,-38.0
20,jq,f,19,r,2,(121.76378772032346, -121.76378772032352),28,5,2,yes,x,5,x,0.7818055000025197,1,33,test1,3,0.7821467999965535,-40.0
20,jq,f,19,r,2,(172.20000000000002, 0.0),21,-7,13,yes,x,5,x,0.6414122999995016,1,34,test1,3,0.6416389000005438,-52.0
20,jq,f,19,r,2,(-3.163262682197613e-14, -172.20000000000002),27,25,4,yes,x,5,x,0.44675550000101794,1,35,test1,3,0.4468579999957001,-20.0
20,jq,f,19,r,2,(121.76378772032346, -121.76378772032352),28,-25,14,yes,x,5,x,0.5250605000037467,1,36,test1,3,0.5253819000063231,-70.0
20,jq,f,19,r,2,(-3.163262682197613e-14, -172.20000000000002),27,7,3,no,m,6,m,1.2223687999940012,1,37,test1,3,1.2225846000001184,-70.0
20,jq,f,19,r,2,(-3.163262682197613e-14, -172.20000000000002),27,5,2,no,m,6,m,1.870161899998493,1,38,test1,3,1.8703807999991113,-70.0
20,jq,f,19,r,2,(-121.76378772032352, -121.76378772032348),26,-5,12,yes,x,5,x,0.4819548000014038,1,39,test1,3,0.4822649000052479,-50.0
20,jq,f,19,r,2,(121.76378772032349, 121.76378772032349),22,25,4,yes,x,5,x,0.5414650999955484,1,40,test1,3,0.5416258000041125,-20.0
20,jq,f,19,r,2,(121.76378772032346, -121.76378772032352),28,7,3,yes,x,5,x,0.5596856999982265,1,41,test1,3,0.559843600000022,-38.0
20,jq,f,19,r,2,(1.0544208940658713e-14, 172.20000000000002),23,-3,11,no,m,6,m,0.9863170999960857,1,42,test1,3,0.9866001000045799,-38.0
20,jq,f,19,r,2,(121.76378772032349, 121.76378772032349),22,-25,14,yes,x,5,x,0.49538299999403534,1,43,test1,3,0.49548020000656834,-70.0
20,jq,f,19,r,2,(121.76378772032349, 121.76378772032349),22,5,2,no,m,6,m,0.6337499000001117,1,44,test1,3,0.6338498000041,-70.0
20,jq,f,19,r,2,(-121.76378772032348, 121.76378772032349),24,-3,11,no,m,6,m,0.9594929000013508,1,45,test1,3,0.9597874000028241,-70.0
20,jq,f,19,r,2,(1.0544208940658713e-14, 172.20000000000002),23,5,2,no,m,6,m,0.8682812000042759,1,46,test1,3,0.8688999999940279,-70.0
20,jq,f,19,r,2,(-121.76378772032348, 121.76378772032349),24,25,4,no,m,6,m,0.6258767999970587,1,47,test1,3,0.6260161000027438,-70.0
20,jq,f,19,r,2,(121.76378772032346, -121.76378772032352),28,7,3,yes,x,5,x,0.667786599995452,1,48,test1,3,0.6682072000039625,-38.0
20,jq,f,19,r,2,(121.76378772032349, 121.76378772032349),22,3,1,no,m,6,m,0.6755378000016208,1,49,test1,3,0.6757711999962339,-38.0
20,jq,f,19,r,2,(-172.20000000000002, 2.1088417881317425e-14),25,25,4,yes,x,5,x,0.42159710000123596,1,50,test1,3,0.4219894999987446,-20.0
20,jq,f,19,r,2,(-121.76378772032352, -121.76378772032348),26,-3,11,yes,x,5,m,0.7819994000019506,0,51,test1,3,0.7821292000007816,-48.0
20,jq,f,19,r,2,(121.76378772032349, 121.76378772032349),22,-7,13,no,m,6,x,0.48653680000279564,0,52,test1,3,0.4866351000018767,-48.0
20,jq,f,19,r,2,(121.76378772032346, -121.76378772032352),28,3,1,no,m,6,m,1.0182216999965021,1,53,test1,3,1.018565899998066,-48.0
20,jq,f,19,r,2,(121.76378772032346, -121.76378772032352),28,-3,11,yes,x,5,m,0.788386599997466,0,54,test1,3,0.7884854000003543,-48.0
20,jq,f,19,r,2,(-172.20000000000002, 2.1088417881317425e-14),25,-7,13,no,m,6,m,0.6964359999983571,1,55,test1,3,0.6965368000019225,-48.0
20,jq,f,19,r,2,(-172.20000000000002, 2.1088417881317425e-14),25,7,3,no,m,6,m,0.5568230999997468,1,56,test1,3,0.5569237000017893,-48.0
20,jq,f,19,r,2,(-121.76378772032348, 121.76378772032349),24,-7,13,no,m,6,m,0.505202599997574,1,57,test1,3,0.5052972000048612,-48.0
20,jq,f,19,r,2,(-3.163262682197613e-14, -172.20000000000002),27,3,1,yes,x,5,x,1.1301689999963855,1,58,test1,3,1.130270900001051,-42.0
20,jq,f,19,r,2,(172.20000000000002, 0.0),21,-25,14,yes,x,5,x,0.6532016999990446,1,59,test1,3,0.6535865999976522,-70.0
20,jq,f,19,r,2,(-121.76378772032352, -121.76378772032348),26,-7,13,yes,x,5,x,0.7223220000014408,1,60,test1,3,0.7226096000013058,-52.0
20,jq,f,19,r,2,(121.76378772032349, 121.76378772032349),22,25,4,yes,x,5,x,0.6008806000027107,1,61,test1,3,0.6009831999981543,-20.0
20,jq,f,19,r,2,(172.20000000000002, 0.0),21,-25,14,no,m,6,m,0.8444372000012663,1,62,test1,3,0.84459689999494,-20.0
20,jq,f,19,r,2,(-121.76378772032352, -121.76378772032348),26,7,3,no,m,6,m,0.6946967999974731,1,63,test1,3,0.6949254999999539,-20.0
20,jq,f,19,r,2,(121.76378772032349, 121.76378772032349),22,25,4,no,m,6,m,0.5934718999997131,1,64,test1,3,0.5936931000032928,-20.0
20,jq,f,19,r,2,(-121.76378772032348, 121.76378772032349),24,-5,12,yes,x,5,x,0.5881987999964622,1,65,test1,3,0.5883000000030734,-50.0
20,jq,f,19,r,2,(121.76378772032346, -121.76378772032352),28,-5,12,yes,x,5,x,0.721051599997736,1,66,test1,3,0.7214622000028612,-50.0
20,jq,f,19,r,2,(172.20000000000002, 0.0),21,5,2,yes,x,5,x,0.9212771999955294,1,67,test1,3,0.9216954999938025,-40.0
20,jq,f,19,r,2,(172.20000000000002, 0.0),21,-5,12,no,m,6,m,0.8599053999932948,1,68,test1,3,0.8601532000029692,-40.0
20,jq,f,19,r,2,(-172.20000000000002, 2.1088417881317425e-14),25,-5,12,no,m,6,x,1.2982745000044815,0,69,test1,3,1.2984036999987438,-40.0
20,jq,f,19,r,2,(172.20000000000002, 0.0),21,3,1,no,m,6,m,0.9854926000043633,1,70,test1,3,0.9857162999978755,-40.0
20,jq,f,19,r,2,(121.76378772032349, 121.76378772032349),22,-5,12,yes,x,5,x,0.6714501999958884,1,71,test1,3,0.6716528999968432,-50.0
20,jq,f,19,r,2,(1.0544208940658713e-14, 172.20000000000002),23,7,3,yes,x,5,x,0.698904600001697,1,72,test1,3,0.6991331000026548,-38.0
20,jq,f,19,r,2,(172.20000000000002, 0.0),21,7,3,yes,x,5,x,0.530028900000616,1,73,test1,3,0.5304380999950808,-38.0
20,jq,f,19,r,2,(121.76378772032346, -121.76378772032352),28,-7,13,yes,x,5,x,0.5554925000033109,1,74,test1,3,0.5557311000011396,-52.0
20,jq,f,19,r,2,(1.0544208940658713e-14, 172.20000000000002),23,-3,11,yes,x,5,x,0.8215426999959163,1,75,test1,3,0.8216393999973661,-48.0
20,jq,f,19,r,2,(172.20000000000002, 0.0),21,3,1,yes,x,5,x,0.8139852000022074,1,76,test1,3,0.814116000001377,-42.0
20,jq,f,19,r,2,(-3.163262682197613e-14, -172.20000000000002),27,-5,12,no,m,6,x,0.9322583000030136,0,77,test1,3,0.9323715999998967,-42.0
20,jq,f,19,r,2,(-121.76378772032348, 121.76378772032349),24,-25,14,yes,x,5,x,0.4453228000056697,1,78,test1,3,0.44555270000273595,-70.0
20,jq,f,19,r,2,(-3.163262682197613e-14, -172.20000000000002),27,5,2,yes,x,5,x,0.6622213000009651,1,79,test1,3,0.6624558999974397,-40.0
20,jq,f,19,r,2,(-121.76378772032348, 121.76378772032349),24,-5,12,no,m,6,m,0.6109477999998489,1,80,test1,3,0.6112346000008984,-40.0
20,jq,f,19,r,2,(1.0544208940658713e-14, 172.20000000000002),23,25,4,yes,x,5,x,0.43494740000460297,1,81,test1,3,0.4352158000037889,-20.0
20,jq,f,19,r,2,(121.76378772032349, 121.76378772032349),22,-3,11,yes,x,5,x,0.948198300000513,1,82,test1,3,0.9483049999980722,-48.0
20,jq,f,19,r,2,(172.20000000000002, 0.0),21,-25,14,yes,x,5,x,0.5300245999969775,1,83,test1,3,0.5304898000031244,-70.0
20,jq,f,19,r,2,(-121.76378772032348, 121.76378772032349),24,-7,13,yes,x,5,x,0.5207473000045866,1,84,test1,3,0.5208590000038384,-52.0
20,jq,f,19,r,2,(-3.163262682197613e-14, -172.20000000000002),27,3,1,yes,x,5,m,0.7223788000046625,0,85,test1,3,0.7224932999961311,-42.0
20,jq,f,19,r,2,(121.76378772032349, 121.76378772032349),22,-25,14,no,m,6,x,0.9385045000017271,0,86,test1,3,0.9386758999971789,-42.0
20,jq,f,19,r,2,(1.0544208940658713e-14, 172.20000000000002),23,-25,14,yes,x,5,x,0.48197760000039125,1,87,test1,3,0.48218700000143144,-70.0
20,jq,f,19,r,2,(-3.163262682197613e-14, -172.20000000000002),27,-3,11,yes,x,5,x,1.0728787000043667,1,88,test1,3,1.0730938000051538,-48.0
20,jq,f,19,r,2,(-121.76378772032348, 121.76378772032349),24,25,4,yes,x,5,x,0.4530376000038814,1,89,test1,3,0.45333649999520276,-20.0
20,jq,f,19,r,2,(172.20000000000002, 0.0),21,25,4,yes,x,5,x,0.9669386999958078,1,90,test1,3,0.9672943999976269,-20.0
20,jq,f,19,r,2,(121.76378772032346, -121.76378772032352),28,-25,14,no,m,6,m,0.7199379000012414,1,91,test1,3,0.7200361000068369,-20.0
20,jq,f,19,r,2,(172.20000000000002, 0.0),21,-3,11,no,m,6,m,0.5508291000005556,1,92,test1,3,0.5514419000028283,-20.0
20,jq,f,19,r,2,(121.76378772032349, 121.76378772032349),22,-5,12,no,m,6,m,0.6398208999962662,1,93,test1,3,0.6400241000010283,-20.0
20,jq,f,19,r,2,(121.76378772032349, 121.76378772032349),22,7,3,no,m,6,m,0.5604682000048342,1,94,test1,3,0.560815899996669,-20.0
20,jq,f,19,r,2,(-3.163262682197613e-14, -172.20000000000002),27,-25,14,yes,x,5,x,0.47827069999766536,1,95,test1,3,0.47837040000013076,-70.0
20,jq,f,19,r,2,(-3.163262682197613e-14, -172.20000000000002),27,25,4,no,m,6,m,0.6537412000034237,1,96,test1,3,0.6538919000013266,-70.0
20,jq,f,19,r,2,(172.20000000000002, 0.0),21,-5,12,yes,x,5,x,0.7002343999993172,1,1,test2,3,0.7003392999977223,-50.0
20,jq,f,19,r,2,(-121.76378772032352, -121.76378772032348),26,-25,14,yes,x,5,x,0.6450407000011182,1,2,test2,3,0.6452250000002095,-70.0
20,jq,f,19,r,2,(-121.76378772032352, -121.76378772032348),26,-5,12,yes,x,5,x,0.6133654000004753,1,3,test2,3,0.6135837999972864,-50.0
20,jq,f,19,r,2,(-121.76378772032352, -121.76378772032348),26,3,1,yes,x,5,x,0.6531408000009833,1,4,test2,3,0.6537406999996165,-42.0
20,jq,f,19,r,2,(121.76378772032346, -121.76378772032352),28,3,1,yes,x,5,x,0.5597730000008596,1,5,test2,3,0.5599997999961488,-42.0
20,jq,f,19,r,2,(121.76378772032346, -121.76378772032352),28,-25,14,yes,x,5,x,0.44786979999480536,1,6,test2,3,0.44810080000024755,-70.0
20,jq,f,19,r,2,(-121.76378772032348, 121.76378772032349),24,25,4,yes,x,5,x,0.45507679999718675,1,7,test2,3,0.45537259999400703,-20.0
20,jq,f,19,r,2,(-172.20000000000002, 2.1088417881317425e-14),25,5,2,yes,x,5,x,0.5662314000001061,1,8,test2,3,0.5663639999984298,-40.0
20,jq,f,19,r,2,(1.0544208940658713e-14, 172.20000000000002),23,3,1,yes,x,5,x,0.5417855999985477,1,9,test2,3,0.5421795000002021,-42.0
20,jq,f,19,r,2,(121.76378772032346, -121.76378772032352),28,25,4,yes,x,5,x,0.5515977000031853,1,10,test2,3,0.55246790000092,-20.0
20,jq,f,19,r,2,(-121.76378772032348, 121.76378772032349),24,5,2,yes,x,5,x,0.3336702000015066,1,11,test2,3,0.3337713000000804,-40.0
20,jq,f,19,r,2,(1.0544208940658713e-14, 172.20000000000002),23,5,2,yes,x,5,x,0.4436552999977721,1,12,test2,3,0.44375489999947604,-40.0
20,jq,f,19,r,2,(-3.163262682197613e-14, -172.20000000000002),27,-7,13,no,m,6,m,1.470517200003087,1,13,test2,3,1.4708509999982198,-40.0
20,jq,f,19,r,2,(121.76378772032346, -121.76378772032352),28,-7,13,no,m,6,x,0.5855529000036768,0,14,test2,3,0.5859048999991501,-40.0
20,jq,f,19,r,2,(-172.20000000000002, 2.1088417881317425e-14),25,-25,14,yes,x,5,x,0.4059737999996287,1,15,test2,3,0.40635370000381954,-70.0
20,jq,f,19,r,2,(-172.20000000000002, 2.1088417881317425e-14),25,3,1,no,m,6,m,0.8062821999992593,1,16,test2,3,0.8063824999990175,-70.0
20,jq,f,19,r,2,(1.0544208940658713e-14, 172.20000000000002),23,-5,12,no,m,6,m,1.3470312999997986,1,17,test2,3,1.3472096999976202,-70.0
20,jq,f,19,r,2,(172.20000000000002, 0.0),21,5,2,yes,x,5,x,0.5669777000002796,1,18,test2,3,0.5673408000002382,-40.0
20,jq,f,19,r,2,(-172.20000000000002, 2.1088417881317425e-14),25,-3,11,yes,x,5,x,1.0689325999992434,1,19,test2,3,1.069044699994265,-48.0
20,jq,f,19,r,2,(172.20000000000002, 0.0),21,25,4,no,m,6,m,1.3536677000010968,1,20,test2,3,1.353787599997304,-48.0
20,jq,f,19,r,2,(121.76378772032346, -121.76378772032352),28,25,4,no,m,6,m,1.3181001000048127,1,21,test2,3,1.31830710000213,-48.0
20,jq,f,19,r,2,(-121.76378772032348, 121.76378772032349),24,3,1,yes,x,5,x,0.614638200000627,1,22,test2,3,0.614765799997258,-42.0
20,jq,f,19,r,2,(-3.163262682197613e-14, -172.20000000000002),27,-25,14,yes,x,5,x,1.127512499995646,1,23,test2,3,1.1278190999946673,-70.0
20,jq,f,19,r,2,(-121.76378772032348, 121.76378772032349),24,-3,11,yes,x,5,x,0.8504317000042647,1,24,test2,3,0.8508488000006764,-48.0
20,jq,f,19,r,2,(121.76378772032349, 121.76378772032349),22,-5,12,yes,x,5,x,0.6943297999969218,1,25,test2,3,0.6944290999963414,-50.0
20,jq,f,19,r,2,(1.0544208940658713e-14, 172.20000000000002),23,7,3,yes,x,5,x,0.5371543999935966,1,26,test2,3,0.5372540000025765,-38.0
20,jq,f,19,r,2,(-121.76378772032348, 121.76378772032349),24,5,2,yes,x,5,x,0.4838367999982438,1,27,test2,3,0.4842726999995648,-40.0
20,jq,f,19,r,2,(-121.76378772032348, 121.76378772032349),24,7,3,yes,x,5,x,0.47819239999807905,1,28,test2,3,0.47841759999573696,-38.0
20,jq,f,19,r,2,(-172.20000000000002, 2.1088417881317425e-14),25,5,2,yes,x,5,x,0.49264180000318447,1,29,test2,3,0.49287019999610493,-40.0
20,jq,f,19,r,2,(121.76378772032346, -121.76378772032352),28,-5,12,no,m,6,x,0.6420943999983137,0,30,test2,3,0.6424392999979318,-40.0
20,jq,f,19,r,2,(-172.20000000000002, 2.1088417881317425e-14),25,-3,11,no,m,6,m,1.4407567999951425,1,31,test2,3,1.4409867000067607,-40.0
20,jq,f,19,r,2,(1.0544208940658713e-14, 172.20000000000002),23,-7,13,no,m,6,m,0.822943099999975,1,32,test2,3,0.823178899998311,-40.0
20,jq,f,19,r,2,(-172.20000000000002, 2.1088417881317425e-14),25,-25,14,yes,x,5,x,0.5886324000020977,1,33,test2,3,0.5888664000012795,-70.0
20,jq,f,19,r,2,(1.0544208940658713e-14, 172.20000000000002),23,25,4,no,m,6,m,0.8380214999997406,1,34,test2,3,0.8381515000000945,-70.0
20,jq,f,19,r,2,(172.20000000000002, 0.0),21,5,2,no,m,6,m,1.1880218000005698,1,35,test2,3,1.1881473999965237,-70.0
20,jq,f,19,r,2,(121.76378772032346, -121.76378772032352),28,-7,13,yes,x,5,m,0.8600690000021132,0,36,test2,3,0.860480399998778,-52.0
20,jq,f,19,r,2,(-121.76378772032348, 121.76378772032349),24,-3,11,yes,x,5,x,0.6238258999946993,1,37,test2,3,0.6239278000066406,-48.0
20,jq,f,19,r,2,(172.20000000000002, 0.0),21,3,1,yes,x,5,x,1.402738100005081,1,38,test2,3,1.4032030000016675,-42.0
20,jq,f,19,r,2,(121.76378772032346, -121.76378772032352),28,7,3,no,m,6,m,0.8304881999938516,1,39,test2,3,0.8307136000003084,-42.0
20,jq,f,19,r,2,(-3.163262682197613e-14, -172.20000000000002),27,7,3,yes,x,5,x,0.4771517999979551,1,40,test2,3,0.4772545000014361,-38.0
20,jq,f,19,r,2,(-3.163262682197613e-14, -172.20000000000002),27,3,1,no,m,6,x,0.7416675999993458,0,41,test2,3,0.7419721000042045,-38.0
20,jq,f,19,r,2,(121.76378772032346, -121.76378772032352),28,-5,12,yes,x,5,x,0.5675330000012764,1,42,test2,3,0.5676991000000271,-50.0
20,jq,f,19,r,2,(-121.76378772032348, 121.76378772032349),24,-25,14,yes,x,5,x,0.4463051999991876,1,43,test2,3,0.44640899999649264,-70.0
20,jq,f,19,r,2,(121.76378772032346, -121.76378772032352),28,5,2,yes,x,5,x,0.6938420000005863,1,44,test2,3,0.6940724999949452,-40.0
20,jq,f,19,r,2,(-121.76378772032352, -121.76378772032348),26,25,4,no,m,6,m,0.9129252999991877,1,45,test2,3,0.9131571000034455,-40.0
20,jq,f,19,r,2,(-3.163262682197613e-14, -172.20000000000002),27,-25,14,no,m,6,x,1.181381299997156,0,46,test2,3,1.1815118999948027,-40.0
20,jq,f,19,r,2,(1.0544208940658713e-14, 172.20000000000002),23,25,4,yes,x,5,x,0.5800180000005639,1,47,test2,3,0.5802977999992436,-20.0
20,jq,f,19,r,2,(-3.163262682197613e-14, -172.20000000000002),27,-7,13,yes,x,5,x,0.7030589999994845,1,48,test2,3,0.7035061999995378,-52.0
20,jq,f,19,r,2,(-121.76378772032352, -121.76378772032348),26,3,1,no,m,6,m,0.7911231000034604,1,49,test2,3,0.7913688999979058,-52.0
20,jq,f,19,r,2,(-172.20000000000002, 2.1088417881317425e-14),25,7,3,yes,x,5,x,0.5706037000054494,1,50,test2,3,0.5709373000063351,-38.0
20,jq,f,19,r,2,(172.20000000000002, 0.0),21,-5,12,yes,x,5,x,0.6682393000010052,1,51,test2,3,0.6686054000019794,-50.0
20,jq,f,19,r,2,(1.0544208940658713e-14, 172.20000000000002),23,-7,13,yes,x,5,x,0.48160509999434,1,52,test2,3,0.481837599996652,-52.0
20,jq,f,19,r,2,(121.76378772032346, -121.76378772032352),28,3,1,yes,x,5,x,0.7335018000012496,1,53,test2,3,0.7336327000011806,-42.0
20,jq,f,19,r,2,(-121.76378772032352, -121.76378772032348),26,7,3,yes,x,5,x,0.5878466000067419,1,54,test2,3,0.5880124999966938,-38.0
20,jq,f,19,r,2,(1.0544208940658713e-14, 172.20000000000002),23,3,1,yes,x,5,x,1.148137800002587,1,55,test2,3,1.148250200007169,-42.0
20,jq,f,19,r,2,(121.76378772032349, 121.76378772032349),22,7,3,yes,x,5,x,0.5073579999952926,1,56,test2,3,0.5080794000023161,-38.0
20,jq,f,19,r,2,(-172.20000000000002, 2.1088417881317425e-14),25,-5,12,yes,x,5,x,0.5935580000004848,1,57,test2,3,0.5936588000040501,-50.0
20,jq,f,19,r,2,(-172.20000000000002, 2.1088417881317425e-14),25,-25,14,no,m,6,m,0.6415618000028189,1,58,test2,3,0.6417200000068988,-50.0
20,jq,f,19,r,2,(1.0544208940658713e-14, 172.20000000000002),23,-25,14,yes,x,5,x,0.43123659999400843,1,59,test2,3,0.43169900000066264,-70.0
20,jq,f,19,r,2,(-172.20000000000002, 2.1088417881317425e-14),25,-3,11,yes,x,5,m,1.0034845999980462,0,60,test2,3,1.0036132000022917,-48.0
20,jq,f,19,r,2,(-3.163262682197613e-14, -172.20000000000002),27,-3,11,yes,x,5,x,1.2578279000008479,1,61,test2,3,1.2581023999955505,-48.0
20,jq,f,19,r,2,(-121.76378772032352, -121.76378772032348),26,25,4,yes,x,5,x,0.5391969999982393,1,62,test2,3,0.5393360000016401,-20.0
20,jq,f,19,r,2,(-121.76378772032352, -121.76378772032348),26,-25,14,yes,x,5,x,0.4934724000049755,1,63,test2,3,0.49368730000423966,-70.0
20,jq,f,19,r,2,(121.76378772032349, 121.76378772032349),22,3,1,yes,x,5,x,1.0721639999974286,1,64,test2,3,1.0722672999982024,-42.0
20,jq,f,19,r,2,(-121.76378772032348, 121.76378772032349),24,5,2,no,m,6,m,0.7158647000032943,1,65,test2,3,0.7161814999999478,-42.0
20,jq,f,19,r,2,(172.20000000000002, 0.0),21,-3,11,yes,x,5,m,1.438949199997296,0,66,test2,3,1.4390940000012051,-48.0
20,jq,f,19,r,2,(-121.76378772032348, 121.76378772032349),24,-25,14,no,m,6,m,0.7610241000002134,1,67,test2,3,0.7615721999973175,-48.0
20,jq,f,19,r,2,(-3.163262682197613e-14, -172.20000000000002),27,5,2,yes,x,5,x,0.5041051000007428,1,68,test2,3,0.5047464000017499,-40.0
20,jq,f,19,r,2,(-121.76378772032348, 121.76378772032349),24,7,3,no,m,6,m,0.8657632000031299,1,69,test2,3,0.8659906999964733,-40.0
20,jq,f,19,r,2,(172.20000000000002, 0.0),21,7,3,no,m,6,m,0.7443830000047456,1,70,test2,3,0.7445756000015535,-40.0
20,jq,f,19,r,2,(-121.76378772032348, 121.76378772032349),24,7,3,yes,x,5,x,0.5166648000013083,1,71,test2,3,0.516793199996755,-38.0
20,jq,f,19,r,2,(121.76378772032349, 121.76378772032349),22,3,1,yes,x,5,m,0.9057844999988447,0,72,test2,3,0.90606509999634,-42.0
20,jq,f,19,r,2,(-172.20000000000002, 2.1088417881317425e-14),25,25,4,yes,x,5,x,0.3703730999986874,1,73,test2,3,0.3704760999971768,-20.0
20,jq,f,19,r,2,(121.76378772032346, -121.76378772032352),28,25,4,yes,x,5,x,1.1322648000059417,1,74,test2,3,1.1326543000031961,-20.0
20,jq,f,19,r,2,(-121.76378772032352, -121.76378772032348),26,-7,13,no,m,6,m,0.6887501000019256,1,75,test2,3,0.6888632000045618,-20.0
20,jq,f,19,r,2,(-121.76378772032352, -121.76378772032348),26,-7,13,yes,x,5,x,0.49262670000462094,1,76,test2,3,0.49293340000440367,-52.0
20,jq,f,19,r,2,(-121.76378772032352, -121.76378772032348),26,-3,11,yes,x,5,x,0.7819862000033027,1,77,test2,3,0.7821439999970607,-48.0
20,jq,f,19,r,2,(-121.76378772032348, 121.76378772032349),24,3,1,no,m,6,m,0.8082808000035584,1,78,test2,3,0.8092178999941098,-48.0
20,jq,f,19,r,2,(121.76378772032349, 121.76378772032349),22,7,3,yes,x,5,x,0.6468640000020969,1,79,test2,3,0.6469952999977977,-38.0
20,jq,f,19,r,2,(-3.163262682197613e-14, -172.20000000000002),27,-5,12,yes,x,5,x,1.0056131000019377,1,80,test2,3,1.0057425999984844,-50.0
20,jq,f,19,r,2,(1.0544208940658713e-14, 172.20000000000002),23,-3,11,yes,x,5,m,0.6763791000048514,0,81,test2,3,0.6766112000041176,-48.0
20,jq,f,19,r,2,(-172.20000000000002, 2.1088417881317425e-14),25,25,4,no,m,6,x,0.6065412999960245,0,82,test2,3,0.6066516999999294,-48.0
20,jq,f,19,r,2,(1.0544208940658713e-14, 172.20000000000002),23,7,3,no,m,6,m,0.7232414000027347,1,83,test2,3,0.7233684999955585,-48.0
20,jq,f,19,r,2,(121.76378772032349, 121.76378772032349),22,-25,14,yes,x,5,x,0.6574684000006528,1,84,test2,3,0.6576996000003419,-70.0
20,jq,f,19,r,2,(1.0544208940658713e-14, 172.20000000000002),23,3,1,no,m,6,m,0.5743099000028451,1,85,test2,3,0.5747738999998546,-70.0
20,jq,f,19,r,2,(-172.20000000000002, 2.1088417881317425e-14),25,3,1,yes,x,5,x,0.8760742000013124,1,86,test2,3,0.8765190000049188,-42.0
20,jq,f,19,r,2,(-121.76378772032352, -121.76378772032348),26,5,2,yes,x,5,x,0.5807409999979427,1,87,test2,3,0.5810943000033149,-40.0
20,jq,f,19,r,2,(121.76378772032346, -121.76378772032352),28,-3,11,no,m,6,m,1.0063949000032153,1,88,test2,3,1.0064953000037349,-40.0
20,jq,f,19,r,2,(121.76378772032346, -121.76378772032352),28,-3,11,yes,x,5,m,0.7615202000015415,0,89,test2,3,0.7618650000003981,-48.0
20,jq,f,19,r,2,(-121.76378772032352, -121.76378772032348),26,5,2,no,m,6,m,0.64886259999912,1,90,test2,3,0.6490541999955894,-48.0
20,jq,f,19,r,2,(121.76378772032349, 121.76378772032349),22,-7,13,yes,x,5,x,0.6272670999969705,1,91,test2,3,0.6275597999992897,-52.0
20,jq,f,19,r,2,(-3.163262682197613e-14, -172.20000000000002),27,25,4,yes,x,5,x,0.5755350999970688,1,92,test2,3,0.5757605000035255,-20.0
20,jq,f,19,r,2,(-172.20000000000002, 2.1088417881317425e-14),25,-5,12,yes,x,5,x,0.6165992000023834,1,93,test2,3,0.616733299997577,-50.0
20,jq,f,19,r,2,(172.20000000000002, 0.0),21,-3,11,yes,x,5,x,0.7753247000000556,1,94,test2,3,0.7754239999994752,-48.0
20,jq,f,19,r,2,(172.20000000000002, 0.0),21,25,4,yes,x,5,x,0.5626133999976446,1,95,test2,3,0.5630163999958313,-20.0
20,jq,f,19,r,2,(172.20000000000002, 0.0),21,-7,13,no,m,6,m,0.7830157999997027,1,96,test2,3,0.7833927999963635,-20.0
20,jq,f,19,r,2,(-172.20000000000002, 2.1088417881317425e-14),25,5,2,no,m,6,m,1.4018587000027765,1,1,test1,4,1.4021649999995134,-20.0
20,jq,f,19,r,2,(-172.20000000000002, 2.1088417881317425e-14),25,-7,13,yes,x,5,x,0.5023142999998527,1,2,test1,4,0.5026288000008208,-52.0
20,jq,f,19,r,2,(172.20000000000002, 0.0),21,7,3,yes,x,5,x,0.5600869999980205,1,3,test1,4,0.5601906000010786,-38.0
20,jq,f,19,r,2,(1.0544208940658713e-14, 172.20000000000002),23,5,2,yes,x,5,x,0.521730699998443,1,4,test1,4,0.521967599997879,-40.0
20,jq,f,19,r,2,(-121.76378772032348, 121.76378772032349),24,-7,13,yes,x,5,x,0.5797400999945239,1,5,test1,4,0.5799684000012348,-52.0
20,jq,f,19,r,2,(-121.76378772032352, -121.76378772032348),26,-5,12,no,m,6,x,0.5747784999985015,0,6,test1,4,0.5749518000011449,-52.0
20,jq,f,19,r,2,(1.0544208940658713e-14, 172.20000000000002),23,-7,13,yes,x,5,x,0.5333151000013459,1,7,test1,4,0.5337163000003784,-52.0
20,jq,f,19,r,2,(1.0544208940658713e-14, 172.20000000000002),23,-5,12,yes,x,5,x,0.5535352000006242,1,8,test1,4,0.553633000003174,-50.0
20,jq,f,19,r,2,(121.76378772032346, -121.76378772032352),28,5,2,no,m,6,m,0.7776362000004156,1,9,test1,4,0.7780664000019897,-50.0
20,jq,f,19,r,2,(-121.76378772032352, -121.76378772032348),26,-25,14,no,m,6,m,1.3765935999981593,1,10,test1,4,1.3767719999959809,-50.0
20,jq,f,19,r,2,(121.76378772032349, 121.76378772032349),22,-7,13,yes,x,5,x,0.6739316000021063,1,11,test1,4,0.6742176000043401,-52.0
20,jq,f,19,r,2,(-3.163262682197613e-14, -172.20000000000002),27,-7,13,yes,x,5,x,0.7686284999945201,1,12,test1,4,0.7687918000010541,-52.0
20,jq,f,19,r,2,(-121.76378772032352, -121.76378772032348),26,5,2,yes,x,5,x,1.1041285000028438,1,13,test1,4,1.104292299998633,-40.0
20,jq,f,19,r,2,(-3.163262682197613e-14, -172.20000000000002),27,-5,12,yes,x,5,x,0.7398888000025181,1,14,test1,4,0.7403668000042671,-50.0
20,jq,f,19,r,2,(-121.76378772032348, 121.76378772032349),24,-5,12,yes,x,5,x,0.7992365000027348,1,15,test1,4,0.7993416999961482,-50.0
20,jq,f,19,r,2,(121.76378772032349, 121.76378772032349),22,5,2,yes,x,5,x,0.7845410000008997,1,16,test1,4,0.7847588999939035,-40.0
20,jq,f,19,r,2,(-121.76378772032352, -121.76378772032348),26,-3,11,no,m,6,m,1.0076028000039514,1,17,test1,4,1.0079232999996748,-40.0
20,jq,f,19,r,2,(-172.20000000000002, 2.1088417881317425e-14),25,7,3,yes,x,5,x,0.6256147000021883,1,18,test1,4,0.6259597999960533,-38.0
20,jq,f,19,r,2,(1.0544208940658713e-14, 172.20000000000002),23,-25,14,no,m,6,m,1.483363899998949,1,19,test1,4,1.4835482999988017,-38.0
20,jq,f,19,r,2,(1.0544208940658713e-14, 172.20000000000002),23,-5,12,yes,x,5,x,1.05305010000302,1,20,test1,4,1.053177500005404,-50.0
20,jq,f,19,r,2,(-3.163262682197613e-14, -172.20000000000002),27,7,3,yes,x,5,x,0.5851182999977027,1,21,test1,4,0.5852818000057596,-38.0
20,jq,f,19,r,2,(121.76378772032349, 121.76378772032349),22,-3,11,no,m,6,x,1.1048195000039414,0,22,test1,4,1.1049789000026067,-38.0
20,jq,f,19,r,2,(-121.76378772032352, -121.76378772032348),26,25,4,yes,x,5,x,0.47293119999812916,1,23,test1,4,0.4732893000036711,-20.0
20,jq,f,19,r,2,(-172.20000000000002, 2.1088417881317425e-14),25,-7,13,yes,x,5,x,1.5835158999980194,1,24,test1,4,1.5836440999992192,-52.0
20,jq,f,19,r,2,(-121.76378772032352, -121.76378772032348),26,3,1,yes,x,5,x,1.3967886000027647,1,25,test1,4,1.3969712999969488,-42.0
20,jq,f,19,r,2,(121.76378772032349, 121.76378772032349),22,5,2,yes,x,5,x,0.7774202000000514,1,26,test1,4,0.7776612999950885,-40.0
20,jq,f,19,r,2,(121.76378772032349, 121.76378772032349),22,-3,11,yes,x,5,x,0.7845549000048777,1,27,test1,4,0.7846691000013379,-48.0
20,jq,f,19,r,2,(-3.163262682197613e-14, -172.20000000000002),27,-3,11,no,m,6,m,1.2992790999996942,1,28,test1,4,1.2993799000032595,-48.0
20,jq,f,19,r,2,(172.20000000000002, 0.0),21,-7,13,yes,x,5,x,0.5911427000028198,1,29,test1,4,0.5917550000012852,-52.0
20,jq,f,19,r,2,(-121.76378772032348, 121.76378772032349),24,3,1,yes,x,5,m,1.1618113000004087,0,30,test1,4,1.1622663000016473,-42.0
20,jq,f,19,r,2,(-172.20000000000002, 2.1088417881317425e-14),25,3,1,yes,x,5,x,1.2147595999995247,1,31,test1,4,1.2149714000042877,-42.0
20,jq,f,19,r,2,(-121.76378772032352, -121.76378772032348),26,7,3,yes,x,5,x,1.112007600000652,1,32,test1,4,1.1122200999961933,-38.0
20,jq,f,19,r,2,(121.76378772032346, -121.76378772032352),28,5,2,yes,x,5,x,0.5922388000035426,1,33,test1,4,0.5924490999968839,-40.0
20,jq,f,19,r,2,(172.20000000000002, 0.0),21,-7,13,yes,x,5,x,0.5334573000000091,1,34,test1,4,0.5335579999955371,-52.0
20,jq,f,19,r,2,(-3.163262682197613e-14, -172.20000000000002),27,25,4,yes,x,5,x,0.6345325000002049,1,35,test1,4,0.6348148999968544,-20.0
20,jq,f,19,r,2,(121.76378772032346, -121.76378772032352),28,-25,14,yes,x,5,x,0.7717511999944691,1,36,test1,4,0.7718747000035364,-70.0
20,jq,f,19,r,2,(-3.163262682197613e-14, -172.20000000000002),27,7,3,no,m,6,m,0.7364750999986427,1,37,test1,4,0.736631399995531,-70.0
20,jq,f,19,r,2,(-3.163262682197613e-14, -172.20000000000002),27,5,2,no,m,6,m,1.1106386999963433,1,38,test1,4,1.1107628000027034,-70.0
20,jq,f,19,r,2,(-121.76378772032352, -121.76378772032348),26,-5,12,yes,x,5,x,0.7049221999986912,1,39,test1,4,0.7053371000001789,-50.0
20,jq,f,19,r,2,(121.76378772032349, 121.76378772032349),22,25,4,yes,x,5,x,0.5984780999933719,1,40,test1,4,0.598722100003215,-20.0
20,jq,f,19,r,2,(121.76378772032346, -121.76378772032352),28,7,3,yes,x,5,x,0.47088670000084676,1,41,test1,4,0.4710112000029767,-38.0
20,jq,f,19,r,2,(1.0544208940658713e-14, 172.20000000000002),23,-3,11,no,m,6,m,1.258073400000285,1,42,test1,4,1.258186700004444,-38.0
20,jq,f,19,r,2,(121.76378772032349, 121.76378772032349),22,-25,14,yes,x,5,x,0.527415700002166,1,43,test1,4,0.5275582999965991,-70.0
20,jq,f,19,r,2,(121.76378772032349, 121.76378772032349),22,5,2,no,m,6,m,1.269159600000421,1,44,test1,4,1.2697711000000709,-70.0
20,jq,f,19,r,2,(-121.76378772032348, 121.76378772032349),24,-3,11,no,m,6,m,1.4134439999979804,1,45,test1,4,1.4135890999968979,-70.0
20,jq,f,19,r,2,(1.0544208940658713e-14, 172.20000000000002),23,5,2,no,m,6,m,1.33222879999812,1,46,test1,4,1.3326474000059534,-70.0
20,jq,f,19,r,2,(-121.76378772032348, 121.76378772032349),24,25,4,no,m,6,m,1.0013641999976244,1,47,test1,4,1.0014632000020356,-70.0
20,jq,f,19,r,2,(121.76378772032346, -121.76378772032352),28,7,3,yes,x,5,x,1.535782899998594,1,48,test1,4,1.5358844000002136,-38.0
20,jq,f,19,r,2,(121.76378772032349, 121.76378772032349),22,3,1,no,m,6,m,0.9802029999991646,1,49,test1,4,0.9803881000043475,-38.0
20,jq,f,19,r,2,(-172.20000000000002, 2.1088417881317425e-14),25,25,4,yes,x,5,x,0.5631947000001674,1,50,test1,4,0.5633296000014525,-20.0
20,jq,f,19,r,2,(-121.76378772032352, -121.76378772032348),26,-3,11,yes,x,5,m,0.7036436999987927,0,51,test1,4,0.7039190000068629,-48.0
20,jq,f,19,r,2,(121.76378772032349, 121.76378772032349),22,-7,13,no,m,6,m,0.6185256000026129,1,52,test1,4,0.6186567999975523,-48.0
20,jq,f,19,r,2,(121.76378772032346, -121.76378772032352),28,3,1,no,m,6,m,0.6971690999998827,1,53,test1,4,0.6976245999976527,-48.0
20,jq,f,19,r,2,(121.76378772032346, -121.76378772032352),28,-3,11,yes,x,5,x,0.9319348999997601,1,54,test1,4,0.9320802000002004,-48.0
20,jq,f,19,r,2,(-172.20000000000002, 2.1088417881317425e-14),25,-7,13,no,m,6,m,1.3606593000004068,1,55,test1,4,1.360798399997293,-48.0
20,jq,f,19,r,2,(-172.20000000000002, 2.1088417881317425e-14),25,7,3,no,m,6,m,0.6309408000015537,1,56,test1,4,0.6310712000049534,-48.0
20,jq,f,19,r,2,(-121.76378772032348, 121.76378772032349),24,-7,13,no,m,6,m,1.0574448000043049,1,57,test1,4,1.0575463000059244,-48.0
20,jq,f,19,r,2,(-3.163262682197613e-14, -172.20000000000002),27,3,1,yes,x,5,m,0.7955282999973861,0,58,test1,4,0.7959749000001466,-42.0
20,jq,f,19,r,2,(172.20000000000002, 0.0),21,-25,14,yes,x,5,x,0.5447275999977137,1,59,test1,4,0.544950700001209,-70.0
20,jq,f,19,r,2,(-121.76378772032352, -121.76378772032348),26,-7,13,yes,x,5,x,0.662548299995251,1,60,test1,4,0.6632935000016005,-52.0
20,jq,f,19,r,2,(121.76378772032349, 121.76378772032349),22,25,4,yes,x,5,x,0.5294267999997828,1,61,test1,4,0.5295426000011503,-20.0
20,jq,f,19,r,2,(172.20000000000002, 0.0),21,-25,14,no,m,6,m,0.7256390000038664,1,62,test1,4,0.7257511999996495,-20.0
20,jq,f,19,r,2,(-121.76378772032352, -121.76378772032348),26,7,3,no,m,6,m,0.6507956999994349,1,63,test1,4,0.6510859999980312,-20.0
20,jq,f,19,r,2,(121.76378772032349, 121.76378772032349),22,25,4,no,m,6,m,0.5907235000049695,1,64,test1,4,0.5908271000007517,-20.0
20,jq,f,19,r,2,(-121.76378772032348, 121.76378772032349),24,-5,12,yes,x,5,x,0.5564702000046964,1,65,test1,4,0.5573856000046362,-50.0
20,jq,f,19,r,2,(121.76378772032346, -121.76378772032352),28,-5,12,yes,x,5,x,0.8254496000008658,1,66,test1,4,0.8257907000006526,-50.0
20,jq,f,19,r,2,(172.20000000000002, 0.0),21,5,2,yes,x,5,m,0.889078200001677,0,67,test1,4,0.8895676999964053,-40.0
20,jq,f,19,r,2,(172.20000000000002, 0.0),21,-5,12,no,m,6,m,1.2113529999987804,1,68,test1,4,1.2115671999999904,-40.0
20,jq,f,19,r,2,(-172.20000000000002, 2.1088417881317425e-14),25,-5,12,no,m,6,m,1.2116677000012714,1,69,test1,4,1.211905799995293,-40.0
20,jq,f,19,r,2,(172.20000000000002, 0.0),21,3,1,no,m,6,m,0.6950311000036891,1,70,test1,4,0.6952017000003252,-40.0
20,jq,f,19,r,2,(121.76378772032349, 121.76378772032349),22,-5,12,yes,x,5,x,0.9054173999975319,1,71,test1,4,0.905691800006025,-50.0
20,jq,f,19,r,2,(1.0544208940658713e-14, 172.20000000000002),23,7,3,yes,x,5,x,0.7152829999977257,1,72,test1,4,0.7153832000039984,-38.0
20,jq,f,19,r,2,(172.20000000000002, 0.0),21,7,3,yes,x,5,x,1.6826807999968878,1,73,test1,4,1.6827816000004532,-38.0
20,jq,f,19,r,2,(121.76378772032346, -121.76378772032352),28,-7,13,yes,x,5,x,1.5991339000029257,1,74,test1,4,1.5994823000000906,-52.0
20,jq,f,19,r,2,(1.0544208940658713e-14, 172.20000000000002),23,-3,11,yes,x,5,m,1.339749299993855,0,75,test1,4,1.3400235999943106,-48.0
20,jq,f,19,r,2,(172.20000000000002, 0.0),21,3,1,yes,x,5,m,1.833671599997615,0,76,test1,4,1.8342268999986118,-42.0
20,jq,f,19,r,2,(-3.163262682197613e-14, -172.20000000000002),27,-5,12,no,m,6,x,0.5169069000039599,0,77,test1,4,0.5172284000000218,-42.0
20,jq,f,19,r,2,(-121.76378772032348, 121.76378772032349),24,-25,14,yes,x,5,x,0.4961951000004774,1,78,test1,4,0.49634789999981876,-70.0
20,jq,f,19,r,2,(-3.163262682197613e-14, -172.20000000000002),27,5,2,yes,x,5,x,1.0519935000047553,1,79,test1,4,1.0522218999976758,-40.0
20,jq,f,19,r,2,(-121.76378772032348, 121.76378772032349),24,-5,12,no,m,6,m,1.0179285000049276,1,80,test1,4,1.0181549999979325,-40.0
20,jq,f,19,r,2,(1.0544208940658713e-14, 172.20000000000002),23,25,4,yes,x,5,x,0.4806635999993887,1,81,test1,4,0.48087800000212155,-20.0
20,jq,f,19,r,2,(121.76378772032349, 121.76378772032349),22,-3,11,yes,x,5,x,1.0301745999968261,1,82,test1,4,1.0307476999951177,-48.0
20,jq,f,19,r,2,(172.20000000000002, 0.0),21,-25,14,yes,x,5,x,0.5240647999962675,1,83,test1,4,0.5242321999976411,-70.0
20,jq,f,19,r,2,(-121.76378772032348, 121.76378772032349),24,-7,13,yes,x,5,x,0.6813391000032425,1,84,test1,4,0.6816519999993034,-52.0
20,jq,f,19,r,2,(-3.163262682197613e-14, -172.20000000000002),27,3,1,yes,x,5,m,0.7416576000032364,0,85,test1,4,0.7418743000016548,-42.0
20,jq,f,19,r,2,(121.76378772032349, 121.76378772032349),22,-25,14,no,m,6,m,0.7941124999997555,1,86,test1,4,0.794280100002652,-42.0
20,jq,f,19,r,2,(1.0544208940658713e-14, 172.20000000000002),23,-25,14,yes,x,5,x,0.4784309000024223,1,87,test1,4,0.47871139999915613,-70.0
20,jq,f,19,r,2,(-3.163262682197613e-14, -172.20000000000002),27,-3,11,yes,x,5,m,0.7520680999950855,0,88,test1,4,0.7521708000058425,-48.0
20,jq,f,19,r,2,(-121.76378772032348, 121.76378772032349),24,25,4,yes,x,5,x,0.45284349999565165,1,89,test1,4,0.4531965999995009,-20.0
20,jq,f,19,r,2,(172.20000000000002, 0.0),21,25,4,yes,x,5,x,0.7752624999993714,1,90,test1,4,0.7754853999940678,-20.0
20,jq,f,19,r,2,(121.76378772032346, -121.76378772032352),28,-25,14,no,m,6,m,1.0319741000057547,1,91,test1,4,1.0321690000055241,-20.0
20,jq,f,19,r,2,(172.20000000000002, 0.0),21,-3,11,no,m,6,m,0.9435936000008951,1,92,test1,4,0.9437089999992168,-20.0
20,jq,f,19,r,2,(121.76378772032349, 121.76378772032349),22,-5,12,no,m,6,m,1.3471405000018422,1,93,test1,4,1.3472552000021096,-20.0
20,jq,f,19,r,2,(121.76378772032349, 121.76378772032349),22,7,3,no,m,6,m,0.9509633999987273,1,94,test1,4,0.9512197000003653,-20.0
20,jq,f,19,r,2,(-3.163262682197613e-14, -172.20000000000002),27,-25,14,yes,x,5,x,0.6274310999942827,1,95,test1,4,0.6276070999956573,-70.0
20,jq,f,19,r,2,(-3.163262682197613e-14, -172.20000000000002),27,25,4,no,m,6,m,1.102590099995723,1,96,test1,4,1.1027767999985372,-70.0
20,jq,f,19,r,2,(172.20000000000002, 0.0),21,-5,12,yes,x,5,x,0.782260399995721,1,1,test2,4,0.7824430000036955,-50.0
20,jq,f,19,r,2,(-121.76378772032352, -121.76378772032348),26,-25,14,yes,x,5,x,0.42285919999994803,1,2,test2,4,0.42302919999929145,-70.0
20,jq,f,19,r,2,(-121.76378772032352, -121.76378772032348),26,-5,12,yes,x,5,x,0.5090123000045423,1,3,test2,4,0.5091116000039619,-50.0
20,jq,f,19,r,2,(-121.76378772032352, -121.76378772032348),26,3,1,yes,x,5,x,0.7314418000023579,1,4,test2,4,0.7315581999937422,-42.0
20,jq,f,19,r,2,(121.76378772032346, -121.76378772032352),28,3,1,yes,x,5,x,1.1907140999974217,1,5,test2,4,1.1908422999986215,-42.0
20,jq,f,19,r,2,(121.76378772032346, -121.76378772032352),28,-25,14,yes,x,5,x,0.5846667000005255,1,6,test2,4,0.5847838999980013,-70.0
20,jq,f,19,r,2,(-121.76378772032348, 121.76378772032349),24,25,4,yes,x,5,x,0.4478785000028438,1,7,test2,4,0.44800340000074357,-20.0
20,jq,f,19,r,2,(-172.20000000000002, 2.1088417881317425e-14),25,5,2,yes,x,5,x,0.8166586000006646,1,8,test2,4,0.8167761000004248,-40.0
20,jq,f,19,r,2,(1.0544208940658713e-14, 172.20000000000002),23,3,1,yes,x,5,x,0.9738276999996742,1,9,test2,4,0.9739269999990938,-42.0
20,jq,f,19,r,2,(121.76378772032346, -121.76378772032352),28,25,4,yes,x,5,x,0.6493116999990889,1,10,test2,4,0.6497000999952434,-20.0
20,jq,f,19,r,2,(-121.76378772032348, 121.76378772032349),24,5,2,yes,x,5,x,0.5657496999992873,1,11,test2,4,0.5658505000028526,-40.0
20,jq,f,19,r,2,(1.0544208940658713e-14, 172.20000000000002),23,5,2,yes,x,5,x,0.6269401999961701,1,12,test2,4,0.6272953000006964,-40.0
20,jq,f,19,r,2,(-3.163262682197613e-14, -172.20000000000002),27,-7,13,no,m,6,m,0.7277438000019174,1,13,test2,4,0.7278600999998162,-40.0
20,jq,f,19,r,2,(121.76378772032346, -121.76378772032352),28,-7,13,no,m,6,m,0.803197100001853,1,14,test2,4,0.803310600000259,-40.0
20,jq,f,19,r,2,(-172.20000000000002, 2.1088417881317425e-14),25,-25,14,yes,x,5,x,0.5774029999956838,1,15,test2,4,0.5777015000057872,-70.0
20,jq,f,19,r,2,(-172.20000000000002, 2.1088417881317425e-14),25,3,1,no,m,6,m,0.7267979000025662,1,16,test2,4,0.726896600004693,-70.0
20,jq,f,19,r,2,(1.0544208940658713e-14, 172.20000000000002),23,-5,12,no,m,6,x,1.1114502000054927,0,17,test2,4,1.111825799998769,-70.0
20,jq,f,19,r,2,(172.20000000000002, 0.0),21,5,2,yes,x,5,x,0.6253719000014826,1,18,test2,4,0.6257553999967058,-40.0
20,jq,f,19,r,2,(-172.20000000000002, 2.1088417881317425e-14),25,-3,11,yes,x,5,None,None,0,19,test2,4,1.980103699999745,-48.0
20,jq,f,19,r,2,(172.20000000000002, 0.0),21,25,4,no,m,6,m,1.1588263000012375,1,20,test2,4,1.1591079999998328,-48.0
20,jq,f,19,r,2,(121.76378772032346, -121.76378772032352),28,25,4,no,m,6,m,0.8495187000007718,1,21,test2,4,0.8497033999956329,-48.0
20,jq,f,19,r,2,(-121.76378772032348, 121.76378772032349),24,3,1,yes,x,5,x,0.6094908000013675,1,22,test2,4,0.609699400003592,-42.0
20,jq,f,19,r,2,(-3.163262682197613e-14, -172.20000000000002),27,-25,14,yes,x,5,x,0.6758957000056398,1,23,test2,4,0.6760548000020208,-70.0
20,jq,f,19,r,2,(-121.76378772032348, 121.76378772032349),24,-3,11,yes,x,5,x,0.7591287000032025,1,24,test2,4,0.7593468000050052,-48.0
20,jq,f,19,r,2,(121.76378772032349, 121.76378772032349),22,-5,12,yes,x,5,x,0.9162071000027936,1,25,test2,4,0.9165703999969992,-50.0
20,jq,f,19,r,2,(1.0544208940658713e-14, 172.20000000000002),23,7,3,yes,x,5,x,0.5356719000046724,1,26,test2,4,0.535835099995893,-38.0
20,jq,f,19,r,2,(-121.76378772032348, 121.76378772032349),24,5,2,yes,x,5,x,0.5922604000006686,1,27,test2,4,0.5924317999961204,-40.0
20,jq,f,19,r,2,(-121.76378772032348, 121.76378772032349),24,7,3,yes,x,5,x,0.5607821000012336,1,28,test2,4,0.5610124000013457,-38.0
20,jq,f,19,r,2,(-172.20000000000002, 2.1088417881317425e-14),25,5,2,yes,x,5,x,0.5374072000049637,1,29,test2,4,0.5376160000014352,-40.0
20,jq,f,19,r,2,(121.76378772032346, -121.76378772032352),28,-5,12,no,m,6,m,0.67637349999859,1,30,test2,4,0.6766370000041206,-40.0
20,jq,f,19,r,2,(-172.20000000000002, 2.1088417881317425e-14),25,-3,11,no,m,6,m,0.8696917000052053,1,31,test2,4,0.869828700000653,-40.0
20,jq,f,19,r,2,(1.0544208940658713e-14, 172.20000000000002),23,-7,13,no,m,6,x,0.6084426999950665,0,32,test2,4,0.6085394999972777,-40.0
20,jq,f,19,r,2,(-172.20000000000002, 2.1088417881317425e-14),25,-25,14,yes,x,5,x,0.48315890000230866,1,33,test2,4,0.4834449999980279,-70.0
20,jq,f,19,r,2,(1.0544208940658713e-14, 172.20000000000002),23,25,4,no,m,6,m,1.172192799996992,1,34,test2,4,1.1723016999967513,-70.0
20,jq,f,19,r,2,(172.20000000000002, 0.0),21,5,2,no,m,6,m,0.7264808999971137,1,35,test2,4,0.7266440000021248,-70.0
20,jq,f,19,r,2,(121.76378772032346, -121.76378772032352),28,-7,13,yes,x,5,x,0.41188330000295537,1,36,test2,4,0.4122902000017348,-52.0
20,jq,f,19,r,2,(-121.76378772032348, 121.76378772032349),24,-3,11,yes,x,5,x,1.0177898999972967,1,37,test2,4,1.0179381999987527,-48.0
20,jq,f,19,r,2,(172.20000000000002, 0.0),21,3,1,yes,x,5,x,0.7665417999960482,1,38,test2,4,0.7668670999992173,-42.0
20,jq,f,19,r,2,(121.76378772032346, -121.76378772032352),28,7,3,no,m,6,m,0.7593551000027219,1,39,test2,4,0.7594707000025664,-42.0
20,jq,f,19,r,2,(-3.163262682197613e-14, -172.20000000000002),27,7,3,yes,x,5,x,0.6511529999988852,1,40,test2,4,0.6512554000000819,-38.0
20,jq,f,19,r,2,(-3.163262682197613e-14, -172.20000000000002),27,3,1,no,m,6,m,0.9008812000029138,1,41,test2,4,0.9016527999992832,-38.0
20,jq,f,19,r,2,(121.76378772032346, -121.76378772032352),28,-5,12,yes,x,5,x,0.7006295999963186,1,42,test2,4,0.7009578000070178,-50.0
20,jq,f,19,r,2,(-121.76378772032348, 121.76378772032349),24,-25,14,yes,x,5,x,0.5067739000005531,1,43,test2,4,0.5074193999971612,-70.0
20,jq,f,19,r,2,(121.76378772032346, -121.76378772032352),28,5,2,yes,x,5,x,0.6375939999998081,1,44,test2,4,0.6377514999985578,-40.0
20,jq,f,19,r,2,(-121.76378772032352, -121.76378772032348),26,25,4,no,m,6,m,1.062675200002559,1,45,test2,4,1.0627734000008786,-40.0
20,jq,f,19,r,2,(-3.163262682197613e-14, -172.20000000000002),27,-25,14,no,m,6,m,1.0574470999999903,1,46,test2,4,1.0575797999990755,-40.0
20,jq,f,19,r,2,(1.0544208940658713e-14, 172.20000000000002),23,25,4,yes,x,5,x,0.4525186000028043,1,47,test2,4,0.4526294999959646,-20.0
20,jq,f,19,r,2,(-3.163262682197613e-14, -172.20000000000002),27,-7,13,yes,x,5,x,0.6120412000018405,1,48,test2,4,0.612141799996607,-52.0
20,jq,f,19,r,2,(-121.76378772032352, -121.76378772032348),26,3,1,no,m,6,m,0.755856900002982,1,49,test2,4,0.7560152000005473,-52.0
20,jq,f,19,r,2,(-172.20000000000002, 2.1088417881317425e-14),25,7,3,yes,x,5,x,0.489830600003188,1,50,test2,4,0.49018310000246856,-38.0
20,jq,f,19,r,2,(172.20000000000002, 0.0),21,-5,12,yes,x,5,x,0.6299691000021994,1,51,test2,4,0.6305678999997326,-50.0
20,jq,f,19,r,2,(1.0544208940658713e-14, 172.20000000000002),23,-7,13,yes,x,5,x,0.4233239999957732,1,52,test2,4,0.42359880000003614,-52.0
20,jq,f,19,r,2,(121.76378772032346, -121.76378772032352),28,3,1,yes,x,5,x,0.774416400003247,1,53,test2,4,0.7747849000006681,-42.0
20,jq,f,19,r,2,(-121.76378772032352, -121.76378772032348),26,7,3,yes,x,5,x,0.480164300002798,1,54,test2,4,0.48044859999936307,-38.0
20,jq,f,19,r,2,(1.0544208940658713e-14, 172.20000000000002),23,3,1,yes,x,5,x,0.6456493000005139,1,55,test2,4,0.6458043999955407,-42.0
20,jq,f,19,r,2,(121.76378772032349, 121.76378772032349),22,7,3,yes,x,5,x,0.6404487999971025,1,56,test2,4,0.64059790000465,-38.0
20,jq,f,19,r,2,(-172.20000000000002, 2.1088417881317425e-14),25,-5,12,yes,x,5,x,0.5735347000008915,1,57,test2,4,0.5739490000050864,-50.0
20,jq,f,19,r,2,(-172.20000000000002, 2.1088417881317425e-14),25,-25,14,no,m,6,m,1.2818690000058268,1,58,test2,4,1.2821027000027243,-50.0
20,jq,f,19,r,2,(1.0544208940658713e-14, 172.20000000000002),23,-25,14,yes,x,5,x,0.4600912999958382,1,59,test2,4,0.4602203000031295,-70.0
20,jq,f,19,r,2,(-172.20000000000002, 2.1088417881317425e-14),25,-3,11,yes,x,5,m,1.16822559999855,0,60,test2,4,1.1683447000032174,-48.0
20,jq,f,19,r,2,(-3.163262682197613e-14, -172.20000000000002),27,-3,11,yes,x,5,m,0.7245017999957781,0,61,test2,4,0.7250714000037988,-48.0
20,jq,f,19,r,2,(-121.76378772032352, -121.76378772032348),26,25,4,yes,x,5,x,0.49380679999740096,1,62,test2,4,0.49392079999961425,-20.0
20,jq,f,19,r,2,(-121.76378772032352, -121.76378772032348),26,-25,14,yes,x,5,x,0.4330762999961735,1,63,test2,4,0.4332069000010961,-70.0
20,jq,f,19,r,2,(121.76378772032349, 121.76378772032349),22,3,1,yes,x,5,x,1.6039294000001973,1,64,test2,4,1.604065500003344,-42.0
20,jq,f,19,r,2,(-121.76378772032348, 121.76378772032349),24,5,2,no,m,6,m,1.036104200000409,1,65,test2,4,1.0363982999988366,-42.0
20,jq,f,19,r,2,(172.20000000000002, 0.0),21,-3,11,yes,x,5,x,1.57274409999809,1,66,test2,4,1.5731033000047319,-48.0
20,jq,f,19,r,2,(-121.76378772032348, 121.76378772032349),24,-25,14,no,m,6,m,0.7214225999996415,1,67,test2,4,0.7217462000044179,-48.0
20,jq,f,19,r,2,(-3.163262682197613e-14, -172.20000000000002),27,5,2,yes,x,5,x,0.7911348000052385,1,68,test2,4,0.7912348000027123,-40.0
20,jq,f,19,r,2,(-121.76378772032348, 121.76378772032349),24,7,3,no,m,6,m,1.405267800000729,1,69,test2,4,1.4057106000036583,-40.0
20,jq,f,19,r,2,(172.20000000000002, 0.0),21,7,3,no,m,6,m,0.6294591999976547,1,70,test2,4,0.6295888999957242,-40.0
20,jq,f,19,r,2,(-121.76378772032348, 121.76378772032349),24,7,3,yes,x,5,x,0.6686650000046939,1,71,test2,4,0.6687682000047062,-38.0
20,jq,f,19,r,2,(121.76378772032349, 121.76378772032349),22,3,1,yes,x,5,x,1.3753355000008014,1,72,test2,4,1.375439000003098,-42.0
20,jq,f,19,r,2,(-172.20000000000002, 2.1088417881317425e-14),25,25,4,yes,x,5,x,0.6727612999966368,1,73,test2,4,0.6732143999979598,-20.0
20,jq,f,19,r,2,(121.76378772032346, -121.76378772032352),28,25,4,yes,x,5,x,0.6052473999952781,1,74,test2,4,0.6053640999962226,-20.0
20,jq,f,19,r,2,(-121.76378772032352, -121.76378772032348),26,-7,13,no,m,6,m,1.6455479000069317,1,75,test2,4,1.6456677000023774,-20.0
20,jq,f,19,r,2,(-121.76378772032352, -121.76378772032348),26,-7,13,yes,x,5,x,0.49875880000035977,1,76,test2,4,0.4993682999993325,-52.0
20,jq,f,19,r,2,(-121.76378772032352, -121.76378772032348),26,-3,11,yes,x,5,x,0.5118044999981066,1,77,test2,4,0.5123760999995284,-48.0
20,jq,f,19,r,2,(-121.76378772032348, 121.76378772032349),24,3,1,no,m,6,m,0.6967173999946681,1,78,test2,4,0.6968980000019656,-48.0
20,jq,f,19,r,2,(121.76378772032349, 121.76378772032349),22,7,3,yes,x,5,x,0.5352793999991263,1,79,test2,4,0.5354705999998259,-38.0
20,jq,f,19,r,2,(-3.163262682197613e-14, -172.20000000000002),27,-5,12,yes,x,5,x,0.6340106999996351,1,80,test2,4,0.6341095000025234,-50.0
20,jq,f,19,r,2,(1.0544208940658713e-14, 172.20000000000002),23,-3,11,yes,x,5,x,0.7902714000010747,1,81,test2,4,0.7908915000007255,-48.0
20,jq,f,19,r,2,(-172.20000000000002, 2.1088417881317425e-14),25,25,4,no,m,6,m,0.7081036000017775,1,82,test2,4,0.7088215999974636,-48.0
20,jq,f,19,r,2,(1.0544208940658713e-14, 172.20000000000002),23,7,3,no,m,6,x,0.5113941000017803,0,83,test2,4,0.5120616999993217,-48.0
