subj_id,subj_name,subj_gender ,subj_age,subj_handedness,subj_runNum,tar_l_x,tar_l_y,loc_code,tar_ori,tar_code,tar_pre ,cor_response,pre_code,subj_response,RT,correct,trial_num,type,bloc_num,dur, real_tar
21,chj,f,20,r,2,(-172.20000000000002, 2.1088417881317425e-14),25,-5,12,yes,x,5,x,0.9063773999951081,1,1,test1,1,0.9068074999959208,-50.0
21,chj,f,20,r,2,(121.76378772032349, 121.76378772032349),22,5,2,yes,x,5,x,0.7355232000118122,1,2,test1,1,0.7356612000003224,-40.0
21,chj,f,20,r,2,(172.20000000000002, 0.0),21,25,4,yes,x,5,x,0.43700609999359585,1,3,test1,1,0.437108400001307,-20.0
21,chj,f,20,r,2,(1.0544208940658713e-14, 172.20000000000002),23,-25,14,yes,x,5,x,0.46065929999167565,1,4,test1,1,0.46112130000256,-70.0
21,chj,f,20,r,2,(-3.163262682197613e-14, -172.20000000000002),27,3,1,yes,x,5,x,0.6761939999996684,1,5,test1,1,0.67631490000349,-42.0
21,chj,f,20,r,2,(-172.20000000000002, 2.1088417881317425e-14),25,5,2,yes,x,5,x,0.5095194000023184,1,6,test1,1,0.5098462000023574,-40.0
21,chj,f,20,r,2,(-3.163262682197613e-14, -172.20000000000002),27,-3,11,yes,x,5,x,0.6840551999921445,1,7,test1,1,0.6843019999942044,-48.0
21,chj,f,20,r,2,(172.20000000000002, 0.0),21,7,3,yes,x,5,x,0.5006870000070194,1,8,test1,1,0.5011006999993697,-38.0
21,chj,f,20,r,2,(121.76378772032349, 121.76378772032349),22,3,1,no,m,6,x,0.8831771000113804,0,9,test1,1,0.8832894999941345,-38.0
21,chj,f,20,r,2,(-3.163262682197613e-14, -172.20000000000002),27,25,4,yes,x,5,x,0.4217731999960961,1,10,test1,1,0.42194759999983944,-20.0
21,chj,f,20,r,2,(-121.76378772032348, 121.76378772032349),24,-7,13,yes,x,5,x,0.5633526000019629,1,11,test1,1,0.5636437000066508,-52.0
21,chj,f,20,r,2,(-121.76378772032348, 121.76378772032349),24,7,3,yes,x,5,x,0.5033571000094526,1,12,test1,1,0.5036541000008583,-38.0
21,chj,f,20,r,2,(121.76378772032346, -121.76378772032352),28,-7,13,no,m,6,m,1.3810373999876902,1,13,test1,1,1.3813297000015154,-38.0
21,chj,f,20,r,2,(121.76378772032346, -121.76378772032352),28,-3,11,no,m,6,m,0.856025100001716,1,14,test1,1,0.856514099999913,-38.0
21,chj,f,20,r,2,(121.76378772032349, 121.76378772032349),22,-25,14,yes,x,5,x,0.5836513999965973,1,15,test1,1,0.583752500009723,-70.0
21,chj,f,20,r,2,(121.76378772032349, 121.76378772032349),22,-3,11,no,m,6,m,0.928582100008498,1,16,test1,1,0.9288137999974424,-70.0
21,chj,f,20,r,2,(-3.163262682197613e-14, -172.20000000000002),27,-7,13,yes,x,5,x,0.5353724000015063,1,17,test1,1,0.5355209999979706,-52.0
21,chj,f,20,r,2,(121.76378772032346, -121.76378772032352),28,-5,12,yes,x,5,x,0.5493314000050304,1,18,test1,1,0.5494334000104573,-50.0
21,chj,f,20,r,2,(172.20000000000002, 0.0),21,-3,11,no,m,6,m,0.7386627000087174,1,19,test1,1,0.7389437000092585,-50.0
21,chj,f,20,r,2,(121.76378772032349, 121.76378772032349),22,7,3,yes,x,5,x,0.5204957000096329,1,20,test1,1,0.5205937999999151,-38.0
21,chj,f,20,r,2,(-172.20000000000002, 2.1088417881317425e-14),25,-7,13,yes,x,5,x,0.4147857999923872,1,21,test1,1,0.4155676999944262,-52.0
21,chj,f,20,r,2,(-3.163262682197613e-14, -172.20000000000002),27,-5,12,yes,x,5,x,0.45388820000516716,1,22,test1,1,0.4539853000023868,-50.0
21,chj,f,20,r,2,(-121.76378772032352, -121.76378772032348),26,-3,11,yes,x,5,x,0.6525810999883106,1,23,test1,1,0.6527662000007695,-48.0
21,chj,f,20,r,2,(121.76378772032349, 121.76378772032349),22,25,4,yes,x,5,x,0.38099679999868385,1,24,test1,1,0.3810990999918431,-20.0
21,chj,f,20,r,2,(121.76378772032349, 121.76378772032349),22,3,1,yes,x,5,x,0.8395282000128645,1,25,test1,1,0.8398537000030046,-42.0
21,chj,f,20,r,2,(1.0544208940658713e-14, 172.20000000000002),23,7,3,yes,x,5,x,0.4545575999945868,1,26,test1,1,0.45539309999730904,-38.0
21,chj,f,20,r,2,(-172.20000000000002, 2.1088417881317425e-14),25,3,1,yes,x,5,m,0.7590374999999767,0,27,test1,1,0.759175300001516,-42.0
21,chj,f,20,r,2,(121.76378772032346, -121.76378772032352),28,-7,13,yes,x,5,x,0.5015898999990895,1,28,test1,1,0.5018134999991162,-52.0
21,chj,f,20,r,2,(-121.76378772032352, -121.76378772032348),26,7,3,no,m,6,m,0.9044340000109514,1,29,test1,1,0.9047853000083705,-52.0
21,chj,f,20,r,2,(-3.163262682197613e-14, -172.20000000000002),27,7,3,no,m,6,m,0.9475773999874946,1,30,test1,1,0.9480194000061601,-52.0
21,chj,f,20,r,2,(121.76378772032346, -121.76378772032352),28,3,1,yes,x,5,x,0.8713583999924595,1,31,test1,1,0.871483700000681,-42.0
21,chj,f,20,r,2,(-121.76378772032352, -121.76378772032348),26,-25,14,no,m,6,m,0.982049400001415,1,32,test1,1,0.9823149000003468,-42.0
21,chj,f,20,r,2,(-172.20000000000002, 2.1088417881317425e-14),25,25,4,no,m,6,m,0.9789156000042567,1,33,test1,1,0.9792977000033716,-42.0
21,chj,f,20,r,2,(-121.76378772032348, 121.76378772032349),24,-25,14,no,m,6,m,0.9082580999966012,1,34,test1,1,0.9084108000097331,-42.0
21,chj,f,20,r,2,(-3.163262682197613e-14, -172.20000000000002),27,-7,13,no,m,6,m,0.8774415999941994,1,35,test1,1,0.8775411000096938,-42.0
21,chj,f,20,r,2,(1.0544208940658713e-14, 172.20000000000002),23,-3,11,yes,x,5,x,0.8524887000094168,1,36,test1,1,0.8528373000008287,-48.0
21,chj,f,20,r,2,(121.76378772032346, -121.76378772032352),28,25,4,no,m,6,m,0.7770594000030542,1,37,test1,1,0.7772238999896217,-48.0
21,chj,f,20,r,2,(-172.20000000000002, 2.1088417881317425e-14),25,-3,11,no,m,6,m,0.7345835000014631,1,38,test1,1,0.7349170999950729,-48.0
21,chj,f,20,r,2,(-121.76378772032348, 121.76378772032349),24,-25,14,yes,x,5,x,0.43116370000643656,1,39,test1,1,0.4313899999979185,-70.0
21,chj,f,20,r,2,(1.0544208940658713e-14, 172.20000000000002),23,5,2,yes,x,5,x,0.47181829999317415,1,40,test1,1,0.47205209999810904,-40.0
21,chj,f,20,r,2,(1.0544208940658713e-14, 172.20000000000002),23,3,1,yes,x,5,x,0.7912818999902811,1,41,test1,1,0.7915325999929337,-42.0
21,chj,f,20,r,2,(121.76378772032346, -121.76378772032352),28,-25,14,no,m,6,m,0.7557017000071937,1,42,test1,1,0.7558251000009477,-42.0
21,chj,f,20,r,2,(-121.76378772032348, 121.76378772032349),24,3,1,yes,x,5,x,0.7703421999904094,1,43,test1,1,0.7704598999989685,-42.0
21,chj,f,20,r,2,(121.76378772032346, -121.76378772032352),28,-7,13,yes,x,5,x,0.607906199991703,1,44,test1,1,0.6081067000050098,-52.0
21,chj,f,20,r,2,(1.0544208940658713e-14, 172.20000000000002),23,5,2,no,m,6,m,0.772870700006024,1,45,test1,1,0.7731009000126505,-52.0
21,chj,f,20,r,2,(-172.20000000000002, 2.1088417881317425e-14),25,3,1,no,m,6,m,0.7808290999964811,1,46,test1,1,0.7809561999893049,-52.0
21,chj,f,20,r,2,(-121.76378772032348, 121.76378772032349),24,5,2,no,m,6,m,0.7160676999919815,1,47,test1,1,0.7166607999970438,-52.0
21,chj,f,20,r,2,(1.0544208940658713e-14, 172.20000000000002),23,-7,13,yes,x,5,x,0.4353339999943273,1,48,test1,1,0.4359357999928761,-52.0
21,chj,f,20,r,2,(1.0544208940658713e-14, 172.20000000000002),23,7,3,yes,x,5,x,0.4396602999913739,1,49,test1,1,0.43976259999908507,-38.0
21,chj,f,20,r,2,(172.20000000000002, 0.0),21,-25,14,yes,x,5,x,0.5014238000003388,1,50,test1,1,0.5016831000102684,-70.0
21,chj,f,20,r,2,(172.20000000000002, 0.0),21,-5,12,no,m,6,m,0.5655326999985846,1,51,test1,1,0.5657827999966685,-70.0
21,chj,f,20,r,2,(-121.76378772032348, 121.76378772032349),24,25,4,no,m,6,m,0.7168718000029912,1,52,test1,1,0.7169895999977598,-70.0
21,chj,f,20,r,2,(-121.76378772032348, 121.76378772032349),24,5,2,yes,x,5,x,0.5724198000098113,1,53,test1,1,0.5728539999981876,-40.0
21,chj,f,20,r,2,(121.76378772032346, -121.76378772032352),28,5,2,yes,x,5,x,0.5338928999990458,1,54,test1,1,0.5341880999912973,-40.0
21,chj,f,20,r,2,(-121.76378772032352, -121.76378772032348),26,-3,11,yes,x,5,x,1.286945800005924,1,55,test1,1,1.28744669999287,-48.0
21,chj,f,20,r,2,(-121.76378772032352, -121.76378772032348),26,7,3,yes,x,5,x,0.4130711999896448,1,56,test1,1,0.4132984000025317,-38.0
21,chj,f,20,r,2,(-121.76378772032352, -121.76378772032348),26,-7,13,yes,x,5,x,0.4393006000027526,1,57,test1,1,0.43965030000254046,-52.0
21,chj,f,20,r,2,(172.20000000000002, 0.0),21,25,4,yes,x,5,x,0.4844243999978062,1,58,test1,1,0.4846782999957213,-20.0
21,chj,f,20,r,2,(-3.163262682197613e-14, -172.20000000000002),27,5,2,no,m,6,m,0.6370039000030374,1,59,test1,1,0.6373609000002034,-20.0
21,chj,f,20,r,2,(172.20000000000002, 0.0),21,5,2,yes,x,5,x,0.49944340001093224,1,60,test1,1,0.4995723000029102,-40.0
21,chj,f,20,r,2,(121.76378772032346, -121.76378772032352),28,-5,12,no,m,6,m,0.7551764999952866,1,61,test1,1,0.75529010000173,-40.0
21,chj,f,20,r,2,(-3.163262682197613e-14, -172.20000000000002),27,-25,14,yes,x,5,x,0.41152430001238827,1,62,test1,1,0.4116858999914257,-70.0
21,chj,f,20,r,2,(-121.76378772032352, -121.76378772032348),26,-25,14,yes,x,5,x,0.5068436000001384,1,63,test1,1,0.5069656999985455,-70.0
21,chj,f,20,r,2,(121.76378772032346, -121.76378772032352),28,5,2,yes,x,5,x,0.4284981999953743,1,64,test1,1,0.42884520000370685,-40.0
21,chj,f,20,r,2,(-172.20000000000002, 2.1088417881317425e-14),25,25,4,yes,x,5,x,0.3393476999917766,1,65,test1,1,0.33965209999587387,-20.0
21,chj,f,20,r,2,(-3.163262682197613e-14, -172.20000000000002),27,-3,11,no,m,6,m,0.5784618999896338,1,66,test1,1,0.5785892999992939,-20.0
21,chj,f,20,r,2,(121.76378772032349, 121.76378772032349),22,7,3,no,m,6,m,0.5361311000015121,1,67,test1,1,0.5364564000046812,-20.0
21,chj,f,20,r,2,(-121.76378772032348, 121.76378772032349),24,3,1,no,m,6,m,0.46054169999843,1,68,test1,1,0.4611215000040829,-20.0
21,chj,f,20,r,2,(-3.163262682197613e-14, -172.20000000000002),27,-5,12,no,m,6,m,0.5761283000028925,1,69,test1,1,0.5762848000013037,-20.0
21,chj,f,20,r,2,(-172.20000000000002, 2.1088417881317425e-14),25,5,2,no,m,6,m,0.503404999995837,1,70,test1,1,0.5037300999974832,-20.0
21,chj,f,20,r,2,(172.20000000000002, 0.0),21,-5,12,yes,x,5,x,0.4899685000127647,1,71,test1,1,0.49027700000442564,-50.0
21,chj,f,20,r,2,(121.76378772032346, -121.76378772032352),28,-3,11,yes,x,5,x,0.8245461999904364,1,72,test1,1,0.8246395000023767,-48.0
21,chj,f,20,r,2,(-172.20000000000002, 2.1088417881317425e-14),25,-25,14,yes,x,5,m,0.5148384000058286,0,73,test1,1,0.5150917999999365,-70.0
21,chj,f,20,r,2,(-172.20000000000002, 2.1088417881317425e-14),25,-25,14,yes,x,5,x,0.542180799995549,1,74,test1,1,0.5423115000012331,-70.0
21,chj,f,20,r,2,(172.20000000000002, 0.0),21,-3,11,yes,x,5,x,0.8119386000034865,1,75,test1,1,0.8124508000037167,-48.0
21,chj,f,20,r,2,(-121.76378772032348, 121.76378772032349),24,25,4,yes,x,5,x,0.5525439999910304,1,76,test1,1,0.5526709999976447,-20.0
21,chj,f,20,r,2,(121.76378772032346, -121.76378772032352),28,5,2,no,m,6,m,0.9425454000011086,1,77,test1,1,0.9427683999965666,-20.0
21,chj,f,20,r,2,(121.76378772032349, 121.76378772032349),22,-25,14,yes,x,5,x,0.45218259999819566,1,78,test1,1,0.4523451999993995,-70.0
21,chj,f,20,r,2,(-121.76378772032352, -121.76378772032348),26,-7,13,yes,x,5,x,0.833660799995414,1,79,test1,1,0.8338776000018697,-52.0
21,chj,f,20,r,2,(-121.76378772032348, 121.76378772032349),24,7,3,no,m,6,m,0.6802750000060769,1,80,test1,1,0.6804560000018682,-52.0
21,chj,f,20,r,2,(-121.76378772032352, -121.76378772032348),26,-5,12,no,m,6,m,0.7252840000001015,1,81,test1,1,0.7253866999963066,-52.0
21,chj,f,20,r,2,(1.0544208940658713e-14, 172.20000000000002),23,25,4,no,m,6,m,0.6361500999919372,1,82,test1,1,0.6362999999983003,-52.0
21,chj,f,20,r,2,(121.76378772032349, 121.76378772032349),22,-5,12,yes,x,5,x,0.5785391999961575,1,83,test1,1,0.5787362999981269,-50.0
21,chj,f,20,r,2,(121.76378772032346, -121.76378772032352),28,3,1,no,m,6,m,0.6745001999952365,1,84,test1,1,0.6747254999936558,-50.0
21,chj,f,20,r,2,(-172.20000000000002, 2.1088417881317425e-14),25,5,2,yes,x,5,x,0.524104800002533,1,85,test1,1,0.5242041000019526,-40.0
21,chj,f,20,r,2,(-3.163262682197613e-14, -172.20000000000002),27,3,1,yes,x,5,x,0.5562954999913927,1,86,test1,1,0.5566442999988794,-42.0
21,chj,f,20,r,2,(-121.76378772032348, 121.76378772032349),24,5,2,yes,x,5,x,0.5735882000008132,1,87,test1,1,0.5738328000006732,-40.0
21,chj,f,20,r,2,(-121.76378772032352, -121.76378772032348),26,3,1,yes,x,5,x,0.6751306999940425,1,88,test1,1,0.6752905000030296,-42.0
21,chj,f,20,r,2,(-172.20000000000002, 2.1088417881317425e-14),25,25,4,yes,x,5,x,0.41351559999748133,1,89,test1,1,0.4137397000013152,-20.0
21,chj,f,20,r,2,(121.76378772032349, 121.76378772032349),22,25,4,yes,x,5,x,0.4813010999932885,1,90,test1,1,0.48139919999812264,-20.0
21,chj,f,20,r,2,(-3.163262682197613e-14, -172.20000000000002),27,5,2,yes,x,5,x,0.4621233000070788,1,91,test1,1,0.4622947999887401,-40.0
21,chj,f,20,r,2,(-121.76378772032348, 121.76378772032349),24,-25,14,yes,x,5,x,0.5325053999986267,1,92,test1,1,0.5326381999911973,-70.0
21,chj,f,20,r,2,(-121.76378772032352, -121.76378772032348),26,5,2,yes,x,5,x,0.5772043000033591,1,93,test1,1,0.5778155000007246,-40.0
21,chj,f,20,r,2,(121.76378772032349, 121.76378772032349),22,-5,12,yes,x,5,x,0.47440809999534395,1,94,test1,1,0.4745939999993425,-50.0
21,chj,f,20,r,2,(1.0544208940658713e-14, 172.20000000000002),23,-3,11,yes,x,5,x,0.5667969000060111,1,95,test1,1,0.5670178000000305,-48.0
21,chj,f,20,r,2,(-3.163262682197613e-14, -172.20000000000002),27,25,4,yes,x,5,x,0.46940069999254774,1,96,test1,1,0.4696159000013722,-20.0
21,chj,f,20,r,2,(-121.76378772032348, 121.76378772032349),24,-3,11,yes,x,5,x,0.9107212999952026,1,1,test2,1,0.9109068999969168,-48.0
21,chj,f,20,r,2,(-121.76378772032352, -121.76378772032348),26,5,2,no,m,6,m,0.6924245999980485,1,2,test2,1,0.6927423000015551,-48.0
21,chj,f,20,r,2,(-172.20000000000002, 2.1088417881317425e-14),25,-7,13,no,m,6,m,0.7683952999941539,1,3,test2,1,0.7686064000008628,-48.0
21,chj,f,20,r,2,(-121.76378772032348, 121.76378772032349),24,-7,13,yes,x,5,x,0.41238380000868347,1,4,test2,1,0.4126051999919582,-52.0
21,chj,f,20,r,2,(121.76378772032349, 121.76378772032349),22,-3,11,yes,x,5,x,0.7019749000028241,1,5,test2,1,0.7022939000016777,-48.0
21,chj,f,20,r,2,(121.76378772032349, 121.76378772032349),22,25,4,no,m,6,m,0.7975628999993205,1,6,test2,1,0.7977312000002712,-48.0
21,chj,f,20,r,2,(-121.76378772032352, -121.76378772032348),26,25,4,no,m,6,m,0.5581034999922849,1,7,test2,1,0.5582067000068491,-48.0
21,chj,f,20,r,2,(-3.163262682197613e-14, -172.20000000000002),27,5,2,yes,x,5,x,0.5463260999968043,1,8,test2,1,0.5464275999984238,-40.0
21,chj,f,20,r,2,(-121.76378772032348, 121.76378772032349),24,-3,11,no,m,6,m,0.6431831999943824,1,9,test2,1,0.6433113999955822,-40.0
21,chj,f,20,r,2,(121.76378772032349, 121.76378772032349),22,-7,13,no,m,6,m,0.5015708999999333,1,10,test2,1,0.5017061999969883,-40.0
21,chj,f,20,r,2,(-121.76378772032348, 121.76378772032349),24,-5,12,yes,x,5,x,0.6698096000036458,1,11,test2,1,0.6708165000018198,-50.0
21,chj,f,20,r,2,(1.0544208940658713e-14, 172.20000000000002),23,25,4,yes,x,5,x,0.5185590000037337,1,12,test2,1,0.5187368000042625,-20.0
21,chj,f,20,r,2,(121.76378772032346, -121.76378772032352),28,25,4,yes,x,5,x,0.42361639998853207,1,13,test2,1,0.4237317999941297,-20.0
21,chj,f,20,r,2,(-121.76378772032352, -121.76378772032348),26,-5,12,yes,x,5,x,0.4413561999972444,1,14,test2,1,0.44198730000061914,-50.0
21,chj,f,20,r,2,(172.20000000000002, 0.0),21,5,2,yes,x,5,x,0.46549940000113565,1,15,test2,1,0.46571180000319146,-40.0
21,chj,f,20,r,2,(121.76378772032349, 121.76378772032349),22,-25,14,no,m,6,m,0.5488402000046335,1,16,test2,1,0.5490643999946769,-40.0
21,chj,f,20,r,2,(121.76378772032346, -121.76378772032352),28,-25,14,yes,x,5,x,0.5554103000031319,1,17,test2,1,0.555504000003566,-70.0
21,chj,f,20,r,2,(121.76378772032346, -121.76378772032352),28,-5,12,yes,x,5,x,0.5048616999993101,1,18,test2,1,0.5049965000071097,-50.0
21,chj,f,20,r,2,(172.20000000000002, 0.0),21,3,1,yes,x,5,x,0.7950870000058785,1,19,test2,1,0.7954630999884102,-42.0
21,chj,f,20,r,2,(1.0544208940658713e-14, 172.20000000000002),23,-25,14,yes,x,5,x,0.3900264999974752,1,20,test2,1,0.3906896999978926,-70.0
21,chj,f,20,r,2,(-172.20000000000002, 2.1088417881317425e-14),25,-5,12,no,m,6,m,0.562305200000992,1,21,test2,1,0.5625265999988187,-70.0
21,chj,f,20,r,2,(-121.76378772032348, 121.76378772032349),24,3,1,yes,x,5,x,0.8379119000019273,1,22,test2,1,0.838536600000225,-42.0
21,chj,f,20,r,2,(121.76378772032346, -121.76378772032352),28,-25,14,yes,x,5,x,0.5490125000069384,1,23,test2,1,0.5492392000014661,-70.0
21,chj,f,20,r,2,(172.20000000000002, 0.0),21,-3,11,yes,x,5,x,0.7752299999992829,1,24,test2,1,0.7761441000038758,-48.0
21,chj,f,20,r,2,(172.20000000000002, 0.0),21,3,1,no,m,6,m,0.8605160000006435,1,25,test2,1,0.8606746999867028,-48.0
21,chj,f,20,r,2,(1.0544208940658713e-14, 172.20000000000002),23,25,4,yes,x,5,x,0.5409074999915902,1,26,test2,1,0.5411365000036312,-20.0
21,chj,f,20,r,2,(-3.163262682197613e-14, -172.20000000000002),27,25,4,no,m,6,m,0.6072499000001699,1,27,test2,1,0.6084331000020029,-20.0
21,chj,f,20,r,2,(172.20000000000002, 0.0),21,7,3,yes,x,5,x,0.5030951000080677,1,28,test2,1,0.5033702999935485,-38.0
21,chj,f,20,r,2,(121.76378772032349, 121.76378772032349),22,-7,13,yes,x,5,x,0.398570400007884,1,29,test2,1,0.39902579999761656,-52.0
21,chj,f,20,r,2,(172.20000000000002, 0.0),21,3,1,yes,x,5,x,0.5040502999909222,1,30,test2,1,0.5041481999942334,-42.0
21,chj,f,20,r,2,(172.20000000000002, 0.0),21,5,2,no,m,6,m,0.8974317000102019,1,31,test2,1,0.8976689999981318,-42.0
21,chj,f,20,r,2,(121.76378772032349, 121.76378772032349),22,-3,11,yes,x,5,x,0.579630599997472,1,32,test2,1,0.5797621999954572,-48.0
21,chj,f,20,r,2,(172.20000000000002, 0.0),21,7,3,no,m,6,m,0.6417643000022508,1,33,test2,1,0.6418878999975277,-48.0
21,chj,f,20,r,2,(121.76378772032349, 121.76378772032349),22,5,2,no,m,6,m,0.655273299998953,1,34,test2,1,0.655563299995265,-48.0
21,chj,f,20,r,2,(-172.20000000000002, 2.1088417881317425e-14),25,-5,12,yes,x,5,x,0.5316994000022532,1,35,test2,1,0.5318247999966843,-50.0
21,chj,f,20,r,2,(1.0544208940658713e-14, 172.20000000000002),23,-7,13,no,m,6,m,0.6567862999945646,1,36,test2,1,0.6569038000016008,-50.0
21,chj,f,20,r,2,(-121.76378772032348, 121.76378772032349),24,-5,12,no,m,6,m,0.8427316999877803,1,37,test2,1,0.8430419999931473,-50.0
21,chj,f,20,r,2,(121.76378772032346, -121.76378772032352),28,-3,11,yes,x,5,x,0.8464630000089528,1,38,test2,1,0.8467627999925753,-48.0
21,chj,f,20,r,2,(121.76378772032349, 121.76378772032349),22,7,3,yes,x,5,x,0.5398983999912161,1,39,test2,1,0.5401189999975031,-38.0
21,chj,f,20,r,2,(-3.163262682197613e-14, -172.20000000000002),27,7,3,yes,x,5,x,0.4316401000105543,1,40,test2,1,0.43194780001067556,-38.0
21,chj,f,20,r,2,(121.76378772032346, -121.76378772032352),28,7,3,yes,x,5,x,0.4004366999870399,1,41,test2,1,0.40071739999984857,-38.0
21,chj,f,20,r,2,(-121.76378772032348, 121.76378772032349),24,25,4,yes,x,5,x,0.4360259999957634,1,42,test2,1,0.436125299995183,-20.0
21,chj,f,20,r,2,(-121.76378772032352, -121.76378772032348),26,3,1,yes,x,5,m,1.0157103999954415,0,43,test2,1,1.0159281999949599,-42.0
21,chj,f,20,r,2,(1.0544208940658713e-14, 172.20000000000002),23,5,2,yes,x,5,x,0.5636639000003925,1,44,test2,1,0.5638959999923827,-40.0
21,chj,f,20,r,2,(-121.76378772032348, 121.76378772032349),24,-3,11,yes,x,5,x,0.9123358000069857,1,45,test2,1,0.9124405999900773,-48.0
21,chj,f,20,r,2,(-3.163262682197613e-14, -172.20000000000002),27,7,3,yes,x,5,x,0.420897200005129,1,46,test2,1,0.4211811999994097,-38.0
21,chj,f,20,r,2,(1.0544208940658713e-14, 172.20000000000002),23,-5,12,no,m,6,m,0.7605237000097986,1,47,test2,1,0.7606581000000006,-38.0
21,chj,f,20,r,2,(-172.20000000000002, 2.1088417881317425e-14),25,7,3,no,m,6,m,0.633093700002064,1,48,test2,1,0.6332460999983596,-38.0
21,chj,f,20,r,2,(-121.76378772032352, -121.76378772032348),26,25,4,yes,x,5,x,0.4653522000007797,1,49,test2,1,0.46551439999893773,-20.0
21,chj,f,20,r,2,(121.76378772032346, -121.76378772032352),28,7,3,no,m,6,m,0.8070761999988463,1,50,test2,1,0.8072040999977617,-20.0
21,chj,f,20,r,2,(1.0544208940658713e-14, 172.20000000000002),23,-3,11,no,m,6,m,0.6002719999960391,1,51,test2,1,0.6005462000030093,-20.0
21,chj,f,20,r,2,(121.76378772032346, -121.76378772032352),28,25,4,yes,x,5,x,0.4438168000051519,1,52,test2,1,0.4439864000014495,-20.0
21,chj,f,20,r,2,(-121.76378772032352, -121.76378772032348),26,-5,12,yes,x,5,x,0.4469773000018904,1,53,test2,1,0.447112299996661,-50.0
21,chj,f,20,r,2,(-3.163262682197613e-14, -172.20000000000002),27,-25,14,yes,x,5,x,0.43417069999850355,1,54,test2,1,0.4344137000007322,-70.0
21,chj,f,20,r,2,(-3.163262682197613e-14, -172.20000000000002),27,-5,12,yes,x,5,x,0.4435501999978442,1,55,test2,1,0.44368779999786057,-50.0
21,chj,f,20,r,2,(172.20000000000002, 0.0),21,25,4,no,m,6,m,0.5808900999982143,1,56,test2,1,0.5811289999983273,-50.0
21,chj,f,20,r,2,(1.0544208940658713e-14, 172.20000000000002),23,7,3,no,m,6,m,0.7118033000006108,1,57,test2,1,0.7119527000031667,-50.0
21,chj,f,20,r,2,(121.76378772032349, 121.76378772032349),22,5,2,yes,x,5,x,0.5445342000020901,1,58,test2,1,0.5446332999999868,-40.0
21,chj,f,20,r,2,(1.0544208940658713e-14, 172.20000000000002),23,-25,14,no,m,6,m,0.68315199999779,1,59,test2,1,0.6836456000019098,-40.0
21,chj,f,20,r,2,(-121.76378772032352, -121.76378772032348),26,-3,11,no,m,6,m,0.7469570999965072,1,60,test2,1,0.7470698000106495,-40.0
21,chj,f,20,r,2,(172.20000000000002, 0.0),21,-25,14,no,m,6,m,0.5933665999909863,1,61,test2,1,0.593799999987823,-40.0
21,chj,f,20,r,2,(1.0544208940658713e-14, 172.20000000000002),23,-7,13,yes,x,5,x,0.46361659999820404,1,62,test2,1,0.46372169999813195,-52.0
21,chj,f,20,r,2,(121.76378772032346, -121.76378772032352),28,3,1,yes,x,5,x,0.6686932999873534,1,63,test2,1,0.668795699995826,-42.0
21,chj,f,20,r,2,(-121.76378772032348, 121.76378772032349),24,-7,13,no,m,6,m,0.7295470999961253,1,64,test2,1,0.7296486999985063,-42.0
21,chj,f,20,r,2,(172.20000000000002, 0.0),21,-7,13,yes,x,5,x,0.5004725000035251,1,65,test2,1,0.5007121000089683,-52.0
21,chj,f,20,r,2,(-121.76378772032352, -121.76378772032348),26,7,3,yes,x,5,x,0.6684459999960382,1,66,test2,1,0.6687909000029322,-38.0
21,chj,f,20,r,2,(172.20000000000002, 0.0),21,-7,13,yes,x,5,x,0.5738025000027847,1,67,test2,1,0.5741394999931799,-52.0
21,chj,f,20,r,2,(1.0544208940658713e-14, 172.20000000000002),23,3,1,yes,x,5,x,0.4891122999979416,1,68,test2,1,0.48934789998747874,-42.0
21,chj,f,20,r,2,(-172.20000000000002, 2.1088417881317425e-14),25,-25,14,no,m,6,m,0.6294624000001932,1,69,test2,1,0.6298678999883123,-42.0
21,chj,f,20,r,2,(-3.163262682197613e-14, -172.20000000000002),27,3,1,no,m,6,m,0.7860688000073424,1,70,test2,1,0.7863623000012012,-42.0
21,chj,f,20,r,2,(121.76378772032349, 121.76378772032349),22,-7,13,yes,x,5,x,0.5462927999906242,1,71,test2,1,0.5465228999964893,-52.0
21,chj,f,20,r,2,(121.76378772032346, -121.76378772032352),28,7,3,yes,x,5,x,0.5045413000043482,1,72,test2,1,0.5047860000049695,-38.0
21,chj,f,20,r,2,(-121.76378772032352, -121.76378772032348),26,5,2,yes,x,5,x,0.5425551000080304,1,73,test2,1,0.5428452000051038,-40.0
21,chj,f,20,r,2,(-172.20000000000002, 2.1088417881317425e-14),25,-3,11,yes,x,5,x,0.8731600000028266,1,74,test2,1,0.873289900002419,-48.0
21,chj,f,20,r,2,(121.76378772032349, 121.76378772032349),22,-5,12,no,m,6,m,0.6110511000006227,1,75,test2,1,0.6112563000060618,-48.0
21,chj,f,20,r,2,(-172.20000000000002, 2.1088417881317425e-14),25,-3,11,yes,x,5,x,0.47538150000036694,1,76,test2,1,0.4757250000111526,-48.0
21,chj,f,20,r,2,(172.20000000000002, 0.0),21,-5,12,yes,x,5,x,0.47884939999494236,1,77,test2,1,0.4791927000042051,-50.0
21,chj,f,20,r,2,(-3.163262682197613e-14, -172.20000000000002),27,-25,14,no,m,6,m,0.8065580999973463,1,78,test2,1,0.806796699995175,-50.0
21,chj,f,20,r,2,(172.20000000000002, 0.0),21,-25,14,yes,x,5,x,0.4380571000074269,1,79,test2,1,0.43844759999774396,-70.0
21,chj,f,20,r,2,(-3.163262682197613e-14, -172.20000000000002),27,-3,11,yes,x,5,x,0.6824965999985579,1,80,test2,1,0.6827421000052709,-48.0
21,chj,f,20,r,2,(-121.76378772032352, -121.76378772032348),26,-25,14,yes,x,5,x,0.7877032000105828,1,81,test2,1,0.7883161999925505,-70.0
21,chj,f,20,r,2,(1.0544208940658713e-14, 172.20000000000002),23,3,1,no,m,6,m,0.7270952999970177,1,82,test2,1,0.7273201000061817,-70.0
21,chj,f,20,r,2,(-172.20000000000002, 2.1088417881317425e-14),25,7,3,yes,x,5,x,0.6176561000029324,1,83,test2,1,0.6177804000035394,-38.0
21,chj,f,20,r,2,(-121.76378772032348, 121.76378772032349),24,7,3,yes,x,5,x,0.45327299999189563,1,84,test2,1,0.4536152999935439,-38.0
21,chj,f,20,r,2,(-172.20000000000002, 2.1088417881317425e-14),25,-7,13,yes,x,5,x,0.6475747000076808,1,85,test2,1,0.6477844999899389,-52.0
21,chj,f,20,r,2,(1.0544208940658713e-14, 172.20000000000002),23,-5,12,yes,x,5,x,0.5248368999891682,1,86,test2,1,0.5249372999969637,-50.0
21,chj,f,20,r,2,(-172.20000000000002, 2.1088417881317425e-14),25,7,3,yes,x,5,x,0.6055313999968348,1,87,test2,1,0.606021999992663,-38.0
21,chj,f,20,r,2,(-121.76378772032352, -121.76378772032348),26,25,4,yes,x,5,x,0.6096765000111191,1,88,test2,1,0.6097943999920972,-20.0
21,chj,f,20,r,2,(-3.163262682197613e-14, -172.20000000000002),27,-7,13,yes,x,5,x,0.6292361999949208,1,89,test2,1,0.6298428999871248,-52.0
21,chj,f,20,r,2,(-172.20000000000002, 2.1088417881317425e-14),25,3,1,yes,x,5,x,0.6845822000032058,1,90,test2,1,0.6848051999986637,-42.0
21,chj,f,20,r,2,(-121.76378772032352, -121.76378772032348),26,3,1,no,m,6,m,0.7726423999993131,1,91,test2,1,0.7734008000115864,-42.0
21,chj,f,20,r,2,(-121.76378772032348, 121.76378772032349),24,-5,12,yes,x,5,x,0.599433900002623,1,92,test2,1,0.599741099998937,-50.0
21,chj,f,20,r,2,(-121.76378772032352, -121.76378772032348),26,-7,13,no,m,6,m,0.6633023000031244,1,93,test2,1,0.6637265000026673,-50.0
21,chj,f,20,r,2,(172.20000000000002, 0.0),21,-7,13,no,m,6,m,0.7988048999977764,1,94,test2,1,0.7994069999986095,-50.0
21,chj,f,20,r,2,(1.0544208940658713e-14, 172.20000000000002),23,-5,12,yes,x,5,x,0.5433401999907801,1,95,test2,1,0.5435061000025598,-50.0
21,chj,f,20,r,2,(121.76378772032349, 121.76378772032349),22,3,1,yes,x,5,x,0.5822664000006625,1,96,test2,1,0.5823798999917926,-42.0
21,chj,f,20,r,2,(-172.20000000000002, 2.1088417881317425e-14),25,-5,12,yes,x,5,x,0.45984280000266153,1,1,test1,2,0.45994480000808835,-50.0
21,chj,f,20,r,2,(121.76378772032349, 121.76378772032349),22,5,2,yes,x,5,x,0.540541000009398,1,2,test1,2,0.5408728000038536,-40.0
21,chj,f,20,r,2,(172.20000000000002, 0.0),21,25,4,yes,x,5,x,0.41946020000614226,1,3,test1,2,0.41966499999398366,-20.0
21,chj,f,20,r,2,(1.0544208940658713e-14, 172.20000000000002),23,-25,14,yes,x,5,x,0.3836553000001004,1,4,test1,2,0.3837881999934325,-70.0
21,chj,f,20,r,2,(-3.163262682197613e-14, -172.20000000000002),27,3,1,yes,x,5,x,0.8921605999930762,1,5,test1,2,0.892291700001806,-42.0
21,chj,f,20,r,2,(-172.20000000000002, 2.1088417881317425e-14),25,5,2,yes,x,5,x,0.4330489999993006,1,6,test1,2,0.43333940001321025,-40.0
21,chj,f,20,r,2,(-3.163262682197613e-14, -172.20000000000002),27,-3,11,yes,x,5,x,0.6032102999888593,1,7,test1,2,0.6033196999924257,-48.0
21,chj,f,20,r,2,(172.20000000000002, 0.0),21,7,3,yes,x,5,x,0.38699610000185203,1,8,test1,2,0.3875348000001395,-38.0
21,chj,f,20,r,2,(121.76378772032349, 121.76378772032349),22,3,1,no,m,6,m,0.599600500005181,1,9,test1,2,0.5998479000118095,-38.0
21,chj,f,20,r,2,(-3.163262682197613e-14, -172.20000000000002),27,25,4,yes,x,5,x,0.4276263000065228,1,10,test1,2,0.4277421000006143,-20.0
21,chj,f,20,r,2,(-121.76378772032348, 121.76378772032349),24,-7,13,yes,x,5,x,0.5550775000010617,1,11,test1,2,0.5551846000016667,-52.0
21,chj,f,20,r,2,(-121.76378772032348, 121.76378772032349),24,7,3,yes,x,5,x,0.3946136000013212,1,12,test1,2,0.39521469999453984,-38.0
21,chj,f,20,r,2,(121.76378772032346, -121.76378772032352),28,-7,13,no,m,6,m,0.5760907999938354,1,13,test1,2,0.5764823000063188,-38.0
21,chj,f,20,r,2,(121.76378772032346, -121.76378772032352),28,-3,11,no,m,6,m,0.5466116000025067,1,14,test1,2,0.5468628999951761,-38.0
21,chj,f,20,r,2,(121.76378772032349, 121.76378772032349),22,-25,14,yes,x,5,x,0.452483699991717,1,15,test1,2,0.45258700000704266,-70.0
21,chj,f,20,r,2,(121.76378772032349, 121.76378772032349),22,-3,11,no,m,6,m,0.6176403999998001,1,16,test1,2,0.61791539999831,-70.0
21,chj,f,20,r,2,(-3.163262682197613e-14, -172.20000000000002),27,-7,13,yes,x,5,x,0.5836409000039566,1,17,test1,2,0.5839055999967968,-52.0
21,chj,f,20,r,2,(121.76378772032346, -121.76378772032352),28,-5,12,yes,x,5,x,0.6585423000069568,1,18,test1,2,0.6588100999942981,-50.0
21,chj,f,20,r,2,(172.20000000000002, 0.0),21,-3,11,no,m,6,m,0.7117053999972995,1,19,test1,2,0.7119415000051958,-50.0
21,chj,f,20,r,2,(121.76378772032349, 121.76378772032349),22,7,3,yes,x,5,x,0.46213410000200383,1,20,test1,2,0.462284199995338,-38.0
21,chj,f,20,r,2,(-172.20000000000002, 2.1088417881317425e-14),25,-7,13,yes,x,5,x,0.5021915000106674,1,21,test1,2,0.502424999998766,-52.0
21,chj,f,20,r,2,(-3.163262682197613e-14, -172.20000000000002),27,-5,12,yes,x,5,x,0.4846499999985099,1,22,test1,2,0.48474880000867415,-50.0
21,chj,f,20,r,2,(-121.76378772032352, -121.76378772032348),26,-3,11,yes,x,5,x,0.6564641000004485,1,23,test1,2,0.6565622999914922,-48.0
21,chj,f,20,r,2,(121.76378772032349, 121.76378772032349),22,25,4,yes,x,5,x,0.46950720000313595,1,24,test1,2,0.469876099989051,-20.0
21,chj,f,20,r,2,(121.76378772032349, 121.76378772032349),22,3,1,yes,x,5,x,0.8117089000006672,1,25,test1,2,0.8118480999983149,-42.0
21,chj,f,20,r,2,(1.0544208940658713e-14, 172.20000000000002),23,7,3,yes,x,5,x,0.5038689999928465,1,26,test1,2,0.504023599991342,-38.0
21,chj,f,20,r,2,(-172.20000000000002, 2.1088417881317425e-14),25,3,1,yes,x,5,x,0.5192436000070302,1,27,test1,2,0.5194412999990163,-42.0
21,chj,f,20,r,2,(121.76378772032346, -121.76378772032352),28,-7,13,yes,x,5,x,0.5739513000007719,1,28,test1,2,0.5741794000059599,-52.0
21,chj,f,20,r,2,(-121.76378772032352, -121.76378772032348),26,7,3,no,m,6,m,0.7217033999913838,1,29,test1,2,0.7220018000080017,-52.0
21,chj,f,20,r,2,(-3.163262682197613e-14, -172.20000000000002),27,7,3,no,m,6,m,0.9214143999997759,1,30,test1,2,0.9217991000041366,-52.0
21,chj,f,20,r,2,(121.76378772032346, -121.76378772032352),28,3,1,yes,x,5,x,0.6368619999993825,1,31,test1,2,0.6371664000034798,-42.0
21,chj,f,20,r,2,(-121.76378772032352, -121.76378772032348),26,-25,14,no,m,6,m,0.8020120000001043,1,32,test1,2,0.8021459000010509,-42.0
21,chj,f,20,r,2,(-172.20000000000002, 2.1088417881317425e-14),25,25,4,no,m,6,m,0.5692776000068989,1,33,test1,2,0.5693816999992123,-42.0
21,chj,f,20,r,2,(-121.76378772032348, 121.76378772032349),24,-25,14,no,m,6,m,0.6335945000028005,1,34,test1,2,0.6337112999899546,-42.0
21,chj,f,20,r,2,(-3.163262682197613e-14, -172.20000000000002),27,-7,13,no,m,6,x,1.1920841999963159,0,35,test1,2,1.192301300005056,-42.0
21,chj,f,20,r,2,(1.0544208940658713e-14, 172.20000000000002),23,-3,11,yes,x,5,x,0.6046105999994325,1,36,test1,2,0.6048184000101173,-48.0
21,chj,f,20,r,2,(121.76378772032346, -121.76378772032352),28,25,4,no,m,6,m,1.3327828000037698,1,37,test1,2,1.3331649999890942,-48.0
21,chj,f,20,r,2,(-172.20000000000002, 2.1088417881317425e-14),25,-3,11,no,m,6,m,0.680900900013512,1,38,test1,2,0.6811234999913722,-48.0
21,chj,f,20,r,2,(-121.76378772032348, 121.76378772032349),24,-25,14,yes,x,5,x,0.5059994000039296,1,39,test1,2,0.5061005000025034,-70.0
21,chj,f,20,r,2,(1.0544208940658713e-14, 172.20000000000002),23,5,2,yes,x,5,x,0.5127248000062536,1,40,test1,2,0.5128861000121105,-40.0
21,chj,f,20,r,2,(1.0544208940658713e-14, 172.20000000000002),23,3,1,yes,x,5,x,0.708436899993103,1,41,test1,2,0.7086247999977786,-42.0
21,chj,f,20,r,2,(121.76378772032346, -121.76378772032352),28,-25,14,no,m,6,m,0.7897442999965278,1,42,test1,2,0.7898968000081368,-42.0
21,chj,f,20,r,2,(-121.76378772032348, 121.76378772032349),24,3,1,yes,x,5,x,0.5577384999924107,1,43,test1,2,0.5580503000091994,-42.0
21,chj,f,20,r,2,(121.76378772032346, -121.76378772032352),28,-7,13,yes,x,5,x,0.42368430001079105,1,44,test1,2,0.4239044999994803,-52.0
21,chj,f,20,r,2,(1.0544208940658713e-14, 172.20000000000002),23,5,2,no,m,6,m,0.9624681999994209,1,45,test1,2,0.9629956999997376,-52.0
21,chj,f,20,r,2,(-172.20000000000002, 2.1088417881317425e-14),25,3,1,no,m,6,m,0.5116423999861581,1,46,test1,2,0.5117576000047848,-52.0
21,chj,f,20,r,2,(-121.76378772032348, 121.76378772032349),24,5,2,no,m,6,m,0.633586900003138,1,47,test1,2,0.6338092000078177,-52.0
21,chj,f,20,r,2,(1.0544208940658713e-14, 172.20000000000002),23,-7,13,yes,x,5,x,0.5002878000086639,1,48,test1,2,0.5004263000009814,-52.0
21,chj,f,20,r,2,(1.0544208940658713e-14, 172.20000000000002),23,7,3,yes,x,5,x,0.6437861999875167,1,49,test1,2,0.6439549000060651,-38.0
21,chj,f,20,r,2,(172.20000000000002, 0.0),21,-25,14,yes,x,5,x,0.5286620000115363,1,50,test1,2,0.52878179999243,-70.0
21,chj,f,20,r,2,(172.20000000000002, 0.0),21,-5,12,no,m,6,m,0.9564984000026016,1,51,test1,2,0.9569323000032455,-70.0
21,chj,f,20,r,2,(-121.76378772032348, 121.76378772032349),24,25,4,no,m,6,m,0.6518228999921121,1,52,test1,2,0.6519565000053262,-70.0
21,chj,f,20,r,2,(-121.76378772032348, 121.76378772032349),24,5,2,yes,x,5,x,0.4319142999884207,1,53,test1,2,0.43226299999514595,-40.0
21,chj,f,20,r,2,(121.76378772032346, -121.76378772032352),28,5,2,yes,x,5,x,0.523547899996629,1,54,test1,2,0.5238636999856681,-40.0
21,chj,f,20,r,2,(-121.76378772032352, -121.76378772032348),26,-3,11,yes,x,5,x,0.7499974999955157,1,55,test1,2,0.7501602999982424,-48.0
21,chj,f,20,r,2,(-121.76378772032352, -121.76378772032348),26,7,3,yes,x,5,x,0.47961119998944923,1,56,test1,2,0.47980899999674875,-38.0
21,chj,f,20,r,2,(-121.76378772032352, -121.76378772032348),26,-7,13,yes,x,5,x,0.4017856999998912,1,57,test1,2,0.4019241000059992,-52.0
21,chj,f,20,r,2,(172.20000000000002, 0.0),21,25,4,yes,x,5,x,0.593182099997648,1,58,test1,2,0.5932998000062071,-20.0
21,chj,f,20,r,2,(-3.163262682197613e-14, -172.20000000000002),27,5,2,no,m,6,m,1.0282187999982852,1,59,test1,2,1.0283506999985548,-20.0
21,chj,f,20,r,2,(172.20000000000002, 0.0),21,5,2,yes,x,5,x,0.5423489000095287,1,60,test1,2,0.5424754000123357,-40.0
21,chj,f,20,r,2,(121.76378772032346, -121.76378772032352),28,-5,12,no,m,6,m,0.7600422999967122,1,61,test1,2,0.7603518999967491,-40.0
21,chj,f,20,r,2,(-3.163262682197613e-14, -172.20000000000002),27,-25,14,yes,x,5,x,0.6876112000027206,1,62,test1,2,0.6878230000002077,-70.0
21,chj,f,20,r,2,(-121.76378772032352, -121.76378772032348),26,-25,14,yes,x,5,x,0.4473680999944918,1,63,test1,2,0.44747100000677165,-70.0
21,chj,f,20,r,2,(121.76378772032346, -121.76378772032352),28,5,2,yes,x,5,x,0.5004676999960793,1,64,test1,2,0.5009172999998555,-40.0
21,chj,f,20,r,2,(-172.20000000000002, 2.1088417881317425e-14),25,25,4,yes,x,5,x,0.3948804999963613,1,65,test1,2,0.39547840000886936,-20.0
21,chj,f,20,r,2,(-3.163262682197613e-14, -172.20000000000002),27,-3,11,no,m,6,m,0.8640412999957334,1,66,test1,2,0.8641765999927884,-20.0
21,chj,f,20,r,2,(121.76378772032349, 121.76378772032349),22,7,3,no,m,6,m,0.6451959000114584,1,67,test1,2,0.645526799999061,-20.0
21,chj,f,20,r,2,(-121.76378772032348, 121.76378772032349),24,3,1,no,m,6,m,0.6138165000011213,1,68,test1,2,0.6139703999942867,-20.0
21,chj,f,20,r,2,(-3.163262682197613e-14, -172.20000000000002),27,-5,12,no,m,6,m,0.7569061999965925,1,69,test1,2,0.7572816000028979,-20.0
21,chj,f,20,r,2,(-172.20000000000002, 2.1088417881317425e-14),25,5,2,no,m,6,m,0.583356700008153,1,70,test1,2,0.5836657999898307,-20.0
21,chj,f,20,r,2,(172.20000000000002, 0.0),21,-5,12,yes,x,5,x,0.4515181000024313,1,71,test1,2,0.4516435999976238,-50.0
21,chj,f,20,r,2,(121.76378772032346, -121.76378772032352),28,-3,11,yes,x,5,x,0.6877099999983329,1,72,test1,2,0.6878346000012243,-48.0
21,chj,f,20,r,2,(-172.20000000000002, 2.1088417881317425e-14),25,-25,14,yes,x,5,x,0.4100283000007039,1,73,test1,2,0.41021280000859406,-70.0
21,chj,f,20,r,2,(-172.20000000000002, 2.1088417881317425e-14),25,-25,14,yes,x,5,x,0.3441571000003023,1,74,test1,2,0.34454600000754,-70.0
21,chj,f,20,r,2,(172.20000000000002, 0.0),21,-3,11,yes,x,5,x,0.5131835000065621,1,75,test1,2,0.5133170000044629,-48.0
21,chj,f,20,r,2,(-121.76378772032348, 121.76378772032349),24,25,4,yes,x,5,x,0.3517887000052724,1,76,test1,2,0.3518917000037618,-20.0
21,chj,f,20,r,2,(121.76378772032346, -121.76378772032352),28,5,2,no,m,6,m,0.5381802000047173,1,77,test1,2,0.538280599997961,-20.0
21,chj,f,20,r,2,(121.76378772032349, 121.76378772032349),22,-25,14,yes,x,5,x,0.5279050999961328,1,78,test1,2,0.5281182999897283,-70.0
21,chj,f,20,r,2,(-121.76378772032352, -121.76378772032348),26,-7,13,yes,x,5,x,0.5418298000004143,1,79,test1,2,0.5419917000108398,-52.0
21,chj,f,20,r,2,(-121.76378772032348, 121.76378772032349),24,7,3,no,m,6,m,0.565650899996399,1,80,test1,2,0.5657844000088517,-52.0
21,chj,f,20,r,2,(-121.76378772032352, -121.76378772032348),26,-5,12,no,m,6,m,0.718619099992793,1,81,test1,2,0.7189483999973163,-52.0
21,chj,f,20,r,2,(1.0544208940658713e-14, 172.20000000000002),23,25,4,no,m,6,m,0.6241649000003235,1,82,test1,2,0.6243997999990825,-52.0
21,chj,f,20,r,2,(121.76378772032349, 121.76378772032349),22,-5,12,yes,x,5,x,0.531691399999545,1,83,test1,2,0.5318111999949906,-50.0
21,chj,f,20,r,2,(121.76378772032346, -121.76378772032352),28,3,1,no,m,6,m,0.5382591999950819,1,84,test1,2,0.5383766000013566,-50.0
21,chj,f,20,r,2,(-172.20000000000002, 2.1088417881317425e-14),25,5,2,yes,x,5,x,0.5975481000059517,1,85,test1,2,0.5978622999973595,-40.0
21,chj,f,20,r,2,(-3.163262682197613e-14, -172.20000000000002),27,3,1,yes,x,5,x,0.683648300007917,1,86,test1,2,0.6838150999974459,-42.0
21,chj,f,20,r,2,(-121.76378772032348, 121.76378772032349),24,5,2,yes,x,5,x,0.5362220999959391,1,87,test1,2,0.5366669999930309,-40.0
21,chj,f,20,r,2,(-121.76378772032352, -121.76378772032348),26,3,1,yes,x,5,x,0.8679914000094868,1,88,test1,2,0.8681571999914013,-42.0
21,chj,f,20,r,2,(-172.20000000000002, 2.1088417881317425e-14),25,25,4,yes,x,5,x,0.39556280001124833,1,89,test1,2,0.3964280000072904,-20.0
21,chj,f,20,r,2,(121.76378772032349, 121.76378772032349),22,25,4,yes,x,5,x,0.4430272000026889,1,90,test1,2,0.44313210000109393,-20.0
21,chj,f,20,r,2,(-3.163262682197613e-14, -172.20000000000002),27,5,2,yes,x,5,m,1.262121499996283,0,91,test1,2,1.26222350000171,-40.0
21,chj,f,20,r,2,(-121.76378772032348, 121.76378772032349),24,-25,14,yes,x,5,x,0.8175406999944244,1,92,test1,2,0.8178479999914998,-70.0
21,chj,f,20,r,2,(-121.76378772032352, -121.76378772032348),26,5,2,yes,x,5,x,0.605502799997339,1,93,test1,2,0.6056361000082688,-40.0
21,chj,f,20,r,2,(121.76378772032349, 121.76378772032349),22,-5,12,yes,x,5,x,0.5346862000005785,1,94,test1,2,0.5347884999937378,-50.0
21,chj,f,20,r,2,(1.0544208940658713e-14, 172.20000000000002),23,-3,11,yes,x,5,x,0.7158668999909423,1,95,test1,2,0.7160869000072125,-48.0
21,chj,f,20,r,2,(-3.163262682197613e-14, -172.20000000000002),27,25,4,yes,x,5,x,0.4769412000023294,1,96,test1,2,0.4771970000001602,-20.0
21,chj,f,20,r,2,(-121.76378772032348, 121.76378772032349),24,-3,11,yes,x,5,x,0.7842262000049232,1,1,test2,2,0.7846590999979526,-48.0
21,chj,f,20,r,2,(-121.76378772032352, -121.76378772032348),26,5,2,no,m,6,m,0.6065603000024566,1,2,test2,2,0.6066972000116948,-48.0
21,chj,f,20,r,2,(-172.20000000000002, 2.1088417881317425e-14),25,-7,13,no,m,6,m,0.5434353000018746,1,3,test2,2,0.5436517000052845,-48.0
21,chj,f,20,r,2,(-121.76378772032348, 121.76378772032349),24,-7,13,yes,x,5,x,0.4163059999991674,1,4,test2,2,0.4166047000035178,-52.0
21,chj,f,20,r,2,(121.76378772032349, 121.76378772032349),22,-3,11,yes,x,5,m,0.5449072000046726,0,5,test2,2,0.5451014999998733,-48.0
21,chj,f,20,r,2,(121.76378772032349, 121.76378772032349),22,25,4,no,m,6,m,0.8161585000052582,1,6,test2,2,0.8162652000028174,-48.0
21,chj,f,20,r,2,(-121.76378772032352, -121.76378772032348),26,25,4,no,m,6,m,0.9020918000023812,1,7,test2,2,0.9021925999986706,-48.0
21,chj,f,20,r,2,(-3.163262682197613e-14, -172.20000000000002),27,5,2,yes,x,5,x,0.5256478000083007,1,8,test2,2,0.5257497999991756,-40.0
21,chj,f,20,r,2,(-121.76378772032348, 121.76378772032349),24,-3,11,no,m,6,m,0.6458399999974063,1,9,test2,2,0.6461273000022629,-40.0
21,chj,f,20,r,2,(121.76378772032349, 121.76378772032349),22,-7,13,no,m,6,m,0.592534199997317,1,10,test2,2,0.5927576000103727,-40.0
21,chj,f,20,r,2,(-121.76378772032348, 121.76378772032349),24,-5,12,yes,x,5,x,0.5061054999969201,1,11,test2,2,0.5063961999985622,-50.0
21,chj,f,20,r,2,(1.0544208940658713e-14, 172.20000000000002),23,25,4,yes,x,5,x,0.40608760000031907,1,12,test2,2,0.4064092000044184,-20.0
21,chj,f,20,r,2,(121.76378772032346, -121.76378772032352),28,25,4,yes,x,5,x,0.44763169999350794,1,13,test2,2,0.4479317999939667,-20.0
21,chj,f,20,r,2,(-121.76378772032352, -121.76378772032348),26,-5,12,yes,x,5,x,0.5438197000039509,1,14,test2,2,0.5440306000091368,-50.0
21,chj,f,20,r,2,(172.20000000000002, 0.0),21,5,2,yes,x,5,x,0.5393167000001995,1,15,test2,2,0.5395181999920169,-40.0
21,chj,f,20,r,2,(121.76378772032349, 121.76378772032349),22,-25,14,no,m,6,m,0.565365299989935,1,16,test2,2,0.5655892000067979,-40.0
21,chj,f,20,r,2,(121.76378772032346, -121.76378772032352),28,-25,14,yes,x,5,x,0.4331784000096377,1,17,test2,2,0.4334804999962216,-70.0
21,chj,f,20,r,2,(121.76378772032346, -121.76378772032352),28,-5,12,yes,x,5,x,0.6483415999973658,1,18,test2,2,0.6486394999956246,-50.0
21,chj,f,20,r,2,(172.20000000000002, 0.0),21,3,1,yes,x,5,x,0.6004579000000376,1,19,test2,2,0.6006930000003194,-42.0
21,chj,f,20,r,2,(1.0544208940658713e-14, 172.20000000000002),23,-25,14,yes,x,5,x,0.39812299999175593,1,20,test2,2,0.3983200999937253,-70.0
21,chj,f,20,r,2,(-172.20000000000002, 2.1088417881317425e-14),25,-5,12,no,m,6,m,0.8003596000053221,1,21,test2,2,0.8004769000108354,-70.0
21,chj,f,20,r,2,(-121.76378772032348, 121.76378772032349),24,3,1,yes,x,5,x,0.4606548000010662,1,22,test2,2,0.46079850000387523,-42.0
21,chj,f,20,r,2,(121.76378772032346, -121.76378772032352),28,-25,14,yes,x,5,x,0.4337098999967566,1,23,test2,2,0.4338363999995636,-70.0
21,chj,f,20,r,2,(172.20000000000002, 0.0),21,-3,11,yes,x,5,x,0.7158066999982111,1,24,test2,2,0.7159064000006765,-48.0
21,chj,f,20,r,2,(172.20000000000002, 0.0),21,3,1,no,m,6,m,0.6124298000067938,1,25,test2,2,0.6125329999922542,-48.0
21,chj,f,20,r,2,(1.0544208940658713e-14, 172.20000000000002),23,25,4,yes,x,5,x,0.3571134000085294,1,26,test2,2,0.35723689998849295,-20.0
21,chj,f,20,r,2,(-3.163262682197613e-14, -172.20000000000002),27,25,4,no,m,6,m,0.5841132999921683,1,27,test2,2,0.5843103999941377,-20.0
21,chj,f,20,r,2,(172.20000000000002, 0.0),21,7,3,yes,x,5,x,0.4395000000076834,1,28,test2,2,0.44001079999725334,-38.0
21,chj,f,20,r,2,(121.76378772032349, 121.76378772032349),22,-7,13,yes,x,5,x,0.5000004000030458,1,29,test2,2,0.5001281000004383,-52.0
21,chj,f,20,r,2,(172.20000000000002, 0.0),21,3,1,yes,x,5,x,0.5585456999979215,1,30,test2,2,0.5586634000064805,-42.0
21,chj,f,20,r,2,(172.20000000000002, 0.0),21,5,2,no,m,6,m,0.6182251000136603,1,31,test2,2,0.6186816000117688,-42.0
21,chj,f,20,r,2,(121.76378772032349, 121.76378772032349),22,-3,11,yes,x,5,x,0.715689199991175,1,32,test2,2,0.7159174999978859,-48.0
21,chj,f,20,r,2,(172.20000000000002, 0.0),21,7,3,no,m,6,m,0.7519897000020137,1,33,test2,2,0.7525129999994533,-48.0
21,chj,f,20,r,2,(121.76378772032349, 121.76378772032349),22,5,2,no,m,6,m,0.826757999995607,1,34,test2,2,0.8270019000046887,-48.0
21,chj,f,20,r,2,(-172.20000000000002, 2.1088417881317425e-14),25,-5,12,yes,x,5,x,0.5353102999943076,1,35,test2,2,0.5356368000066141,-50.0
21,chj,f,20,r,2,(1.0544208940658713e-14, 172.20000000000002),23,-7,13,no,m,6,m,0.6972859000088647,1,36,test2,2,0.6975077999959467,-50.0
21,chj,f,20,r,2,(-121.76378772032348, 121.76378772032349),24,-5,12,no,m,6,m,0.6262612999998964,1,37,test2,2,0.6268041000002995,-50.0
21,chj,f,20,r,2,(121.76378772032346, -121.76378772032352),28,-3,11,yes,x,5,x,0.6691658999916399,1,38,test2,2,0.6692691000062041,-48.0
21,chj,f,20,r,2,(121.76378772032349, 121.76378772032349),22,7,3,yes,x,5,x,0.4512474000075599,1,39,test2,2,0.45189520000712946,-38.0
21,chj,f,20,r,2,(-3.163262682197613e-14, -172.20000000000002),27,7,3,yes,x,5,x,0.43492209998657927,1,40,test2,2,0.435186499991687,-38.0
21,chj,f,20,r,2,(121.76378772032346, -121.76378772032352),28,7,3,yes,x,5,x,0.42932999999902677,1,41,test2,2,0.4294590000063181,-38.0
21,chj,f,20,r,2,(-121.76378772032348, 121.76378772032349),24,25,4,yes,x,5,x,0.36973269999725744,1,42,test2,2,0.36987779999617487,-20.0
21,chj,f,20,r,2,(-121.76378772032352, -121.76378772032348),26,3,1,yes,x,5,x,0.49935549999645445,1,43,test2,2,0.4995799000025727,-42.0
21,chj,f,20,r,2,(1.0544208940658713e-14, 172.20000000000002),23,5,2,yes,x,5,x,0.521840000001248,1,44,test2,2,0.522350599989295,-40.0
21,chj,f,20,r,2,(-121.76378772032348, 121.76378772032349),24,-3,11,yes,x,5,x,0.8964673000009498,1,45,test2,2,0.8966465999983484,-48.0
21,chj,f,20,r,2,(-3.163262682197613e-14, -172.20000000000002),27,7,3,yes,x,5,x,0.47463060000154655,1,46,test2,2,0.47473729999910574,-38.0
21,chj,f,20,r,2,(1.0544208940658713e-14, 172.20000000000002),23,-5,12,no,m,6,m,0.7714593999990029,1,47,test2,2,0.7715827000065474,-38.0
21,chj,f,20,r,2,(-172.20000000000002, 2.1088417881317425e-14),25,7,3,no,m,6,m,0.6546356000035303,1,48,test2,2,0.6547640999924624,-38.0
21,chj,f,20,r,2,(-121.76378772032352, -121.76378772032348),26,25,4,yes,x,5,x,0.4182713999907719,1,49,test2,2,0.41859870000917,-20.0
21,chj,f,20,r,2,(121.76378772032346, -121.76378772032352),28,7,3,no,m,6,m,0.604149699996924,1,50,test2,2,0.6042476000002353,-20.0
21,chj,f,20,r,2,(1.0544208940658713e-14, 172.20000000000002),23,-3,11,no,m,6,m,0.6255715000006603,1,51,test2,2,0.625735400011763,-20.0
21,chj,f,20,r,2,(121.76378772032346, -121.76378772032352),28,25,4,yes,x,5,x,0.4140655999945011,1,52,test2,2,0.41418720000365283,-20.0
21,chj,f,20,r,2,(-121.76378772032352, -121.76378772032348),26,-5,12,yes,x,5,x,0.5928888000053121,1,53,test2,2,0.5930384999956004,-50.0
21,chj,f,20,r,2,(-3.163262682197613e-14, -172.20000000000002),27,-25,14,yes,x,5,x,0.43159819999709725,1,54,test2,2,0.43189009999332484,-70.0
21,chj,f,20,r,2,(-3.163262682197613e-14, -172.20000000000002),27,-5,12,yes,x,5,x,0.4910357000044314,1,55,test2,2,0.4913228999939747,-50.0
21,chj,f,20,r,2,(172.20000000000002, 0.0),21,25,4,no,m,6,m,0.5602690999949118,1,56,test2,2,0.5606279999919934,-50.0
21,chj,f,20,r,2,(1.0544208940658713e-14, 172.20000000000002),23,7,3,no,m,6,m,0.7474719999881927,1,57,test2,2,0.7483073999901535,-50.0
21,chj,f,20,r,2,(121.76378772032349, 121.76378772032349),22,5,2,yes,x,5,x,0.5279412000090815,1,58,test2,2,0.5280984999990324,-40.0
21,chj,f,20,r,2,(1.0544208940658713e-14, 172.20000000000002),23,-25,14,no,m,6,m,0.5942795999872033,1,59,test2,2,0.5945799000037368,-40.0
21,chj,f,20,r,2,(-121.76378772032352, -121.76378772032348),26,-3,11,no,m,6,m,0.6166403999959584,1,60,test2,2,0.617267499997979,-40.0
21,chj,f,20,r,2,(172.20000000000002, 0.0),21,-25,14,no,m,6,m,0.8112093999952776,1,61,test2,2,0.8114192999928491,-40.0
21,chj,f,20,r,2,(1.0544208940658713e-14, 172.20000000000002),23,-7,13,yes,x,5,x,0.5094027000013739,1,62,test2,2,0.5095920000021579,-52.0
21,chj,f,20,r,2,(121.76378772032346, -121.76378772032352),28,3,1,yes,x,5,x,0.7993342999980086,1,63,test2,2,0.7994713999942178,-42.0
21,chj,f,20,r,2,(-121.76378772032348, 121.76378772032349),24,-7,13,no,m,6,m,0.5583618000091519,1,64,test2,2,0.5584669999952894,-42.0
21,chj,f,20,r,2,(172.20000000000002, 0.0),21,-7,13,yes,x,5,x,0.481412499997532,1,65,test2,2,0.48164680000627413,-52.0
21,chj,f,20,r,2,(-121.76378772032352, -121.76378772032348),26,7,3,yes,x,5,x,0.48598409999976866,1,66,test2,2,0.4863077999907546,-38.0
21,chj,f,20,r,2,(172.20000000000002, 0.0),21,-7,13,yes,x,5,x,0.4863275999960024,1,67,test2,2,0.48665900000196416,-52.0
21,chj,f,20,r,2,(1.0544208940658713e-14, 172.20000000000002),23,3,1,yes,x,5,x,1.1116651999909664,1,68,test2,2,1.1118363999994472,-42.0
21,chj,f,20,r,2,(-172.20000000000002, 2.1088417881317425e-14),25,-25,14,no,m,6,m,0.8027314999926602,1,69,test2,2,0.8030782999994699,-42.0
21,chj,f,20,r,2,(-3.163262682197613e-14, -172.20000000000002),27,3,1,no,m,6,m,0.7317755999974906,1,70,test2,2,0.7319025000033434,-42.0
21,chj,f,20,r,2,(121.76378772032349, 121.76378772032349),22,-7,13,yes,x,5,x,0.469639000002644,1,71,test2,2,0.4697996000031708,-52.0
21,chj,f,20,r,2,(121.76378772032346, -121.76378772032352),28,7,3,yes,x,5,x,0.4752020000014454,1,72,test2,2,0.47544270000071265,-38.0
21,chj,f,20,r,2,(-121.76378772032352, -121.76378772032348),26,5,2,yes,x,5,x,0.4430694000038784,1,73,test2,2,0.4433878999989247,-40.0
21,chj,f,20,r,2,(-172.20000000000002, 2.1088417881317425e-14),25,-3,11,yes,x,5,x,0.6281054999999469,1,74,test2,2,0.6283125999907497,-48.0
21,chj,f,20,r,2,(121.76378772032349, 121.76378772032349),22,-5,12,no,m,6,m,0.788510899990797,1,75,test2,2,0.7888491999910912,-48.0
21,chj,f,20,r,2,(-172.20000000000002, 2.1088417881317425e-14),25,-3,11,yes,x,5,x,0.6912103000067873,1,76,test2,2,0.6913151000044309,-48.0
21,chj,f,20,r,2,(172.20000000000002, 0.0),21,-5,12,yes,x,5,x,0.44623229998978786,1,77,test2,2,0.44637910000164993,-50.0
21,chj,f,20,r,2,(-3.163262682197613e-14, -172.20000000000002),27,-25,14,no,m,6,m,0.6048276000074111,1,78,test2,2,0.6050379000080284,-50.0
21,chj,f,20,r,2,(172.20000000000002, 0.0),21,-25,14,yes,x,5,x,0.4658118000079412,1,79,test2,2,0.46600949999992736,-70.0
21,chj,f,20,r,2,(-3.163262682197613e-14, -172.20000000000002),27,-3,11,yes,x,5,x,0.6505998000066029,1,80,test2,2,0.6507526000059443,-48.0
21,chj,f,20,r,2,(-121.76378772032352, -121.76378772032348),26,-25,14,yes,x,5,x,0.4127726000006078,1,81,test2,2,0.412873799999943,-70.0
21,chj,f,20,r,2,(1.0544208940658713e-14, 172.20000000000002),23,3,1,no,m,6,m,0.7237528000114253,1,82,test2,2,0.7242138000001432,-70.0
21,chj,f,20,r,2,(-172.20000000000002, 2.1088417881317425e-14),25,7,3,yes,x,5,x,0.48957900000095833,1,83,test2,2,0.4900227000034647,-38.0
21,chj,f,20,r,2,(-121.76378772032348, 121.76378772032349),24,7,3,yes,x,5,x,0.5396657999954186,1,84,test2,2,0.5397686999931466,-38.0
21,chj,f,20,r,2,(-172.20000000000002, 2.1088417881317425e-14),25,-7,13,yes,x,5,x,0.503757600003155,1,85,test2,2,0.5038722999888705,-52.0
21,chj,f,20,r,2,(1.0544208940658713e-14, 172.20000000000002),23,-5,12,yes,x,5,x,0.4712054999981774,1,86,test2,2,0.47143840001081116,-50.0
21,chj,f,20,r,2,(-172.20000000000002, 2.1088417881317425e-14),25,7,3,yes,x,5,x,0.44975839999096934,1,87,test2,2,0.44985499999893364,-38.0
21,chj,f,20,r,2,(-121.76378772032352, -121.76378772032348),26,25,4,yes,x,5,x,0.4318207999895094,1,88,test2,2,0.432099500001641,-20.0
21,chj,f,20,r,2,(-3.163262682197613e-14, -172.20000000000002),27,-7,13,yes,x,5,x,0.5379825999989407,1,89,test2,2,0.5381851999991341,-52.0
21,chj,f,20,r,2,(-172.20000000000002, 2.1088417881317425e-14),25,3,1,yes,x,5,x,0.5736171000025934,1,90,test2,2,0.5737521999981254,-42.0
21,chj,f,20,r,2,(-121.76378772032352, -121.76378772032348),26,3,1,no,m,6,m,0.6313302999915322,1,91,test2,2,0.631685500004096,-42.0
21,chj,f,20,r,2,(-121.76378772032348, 121.76378772032349),24,-5,12,yes,x,5,x,0.6315481000056025,1,92,test2,2,0.6320101000019349,-50.0
21,chj,f,20,r,2,(-121.76378772032352, -121.76378772032348),26,-7,13,no,m,6,m,0.6942586000077426,1,93,test2,2,0.6945683999947505,-50.0
21,chj,f,20,r,2,(172.20000000000002, 0.0),21,-7,13,no,m,6,m,0.7787109999917448,1,94,test2,2,0.7788260000088485,-50.0
21,chj,f,20,r,2,(1.0544208940658713e-14, 172.20000000000002),23,-5,12,yes,x,5,x,0.570103600010043,1,95,test2,2,0.5704168000083882,-50.0
21,chj,f,20,r,2,(121.76378772032349, 121.76378772032349),22,3,1,yes,x,5,x,0.673826399986865,1,96,test2,2,0.6739717000018572,-42.0
21,chj,f,20,r,2,(-172.20000000000002, 2.1088417881317425e-14),25,-5,12,yes,x,5,x,0.5828886999952374,1,1,test1,3,0.5830589999968652,-50.0
21,chj,f,20,r,2,(121.76378772032349, 121.76378772032349),22,5,2,yes,x,5,x,0.5856078999931924,1,2,test1,3,0.5857436000078451,-40.0
21,chj,f,20,r,2,(172.20000000000002, 0.0),21,25,4,yes,x,5,x,0.43716490000952035,1,3,test1,3,0.4372787999891443,-20.0
21,chj,f,20,r,2,(1.0544208940658713e-14, 172.20000000000002),23,-25,14,yes,x,5,x,0.3555962000100408,1,4,test1,3,0.35578879999229684,-70.0
21,chj,f,20,r,2,(-3.163262682197613e-14, -172.20000000000002),27,3,1,yes,x,5,x,0.5628471999953035,1,5,test1,3,0.5629613999917638,-42.0
21,chj,f,20,r,2,(-172.20000000000002, 2.1088417881317425e-14),25,5,2,yes,x,5,x,0.4757206999929622,1,6,test1,3,0.47585640000761487,-40.0
21,chj,f,20,r,2,(-3.163262682197613e-14, -172.20000000000002),27,-3,11,yes,x,5,x,0.5081807000096887,1,7,test1,3,0.508872300008079,-48.0
21,chj,f,20,r,2,(172.20000000000002, 0.0),21,7,3,yes,x,5,x,0.576488499995321,1,8,test1,3,0.5766192000010051,-38.0
21,chj,f,20,r,2,(121.76378772032349, 121.76378772032349),22,3,1,no,m,6,m,0.8291804000036791,1,9,test1,3,0.8293610999971861,-38.0
21,chj,f,20,r,2,(-3.163262682197613e-14, -172.20000000000002),27,25,4,yes,x,5,x,0.4480967999988934,1,10,test1,3,0.4481981999997515,-20.0
21,chj,f,20,r,2,(-121.76378772032348, 121.76378772032349),24,-7,13,yes,x,5,x,0.41875579999759793,1,11,test1,3,0.4191335999930743,-52.0
21,chj,f,20,r,2,(-121.76378772032348, 121.76378772032349),24,7,3,yes,x,5,x,0.6407627000007778,1,12,test1,3,0.6408597999979975,-38.0
21,chj,f,20,r,2,(121.76378772032346, -121.76378772032352),28,-7,13,no,m,6,m,0.6200847000000067,1,13,test1,3,0.6209683000051882,-38.0
21,chj,f,20,r,2,(121.76378772032346, -121.76378772032352),28,-3,11,no,m,6,m,0.7584188000037102,1,14,test1,3,0.7586680999957025,-38.0
21,chj,f,20,r,2,(121.76378772032349, 121.76378772032349),22,-25,14,yes,x,5,x,0.4603384000074584,1,15,test1,3,0.46098949998850003,-70.0
21,chj,f,20,r,2,(121.76378772032349, 121.76378772032349),22,-3,11,no,m,6,m,0.8713308000005782,1,16,test1,3,0.8715426999988267,-70.0
21,chj,f,20,r,2,(-3.163262682197613e-14, -172.20000000000002),27,-7,13,yes,x,5,x,0.5379752000008011,1,17,test1,3,0.538080300000729,-52.0
21,chj,f,20,r,2,(121.76378772032346, -121.76378772032352),28,-5,12,yes,x,5,x,0.6288257000123849,1,18,test1,3,0.6295171999954619,-50.0
21,chj,f,20,r,2,(172.20000000000002, 0.0),21,-3,11,no,m,6,m,0.803113799993298,1,19,test1,3,0.8032292999996571,-50.0
21,chj,f,20,r,2,(121.76378772032349, 121.76378772032349),22,7,3,yes,x,5,x,0.8614321000059135,1,20,test1,3,0.8615480000007665,-38.0
21,chj,f,20,r,2,(-172.20000000000002, 2.1088417881317425e-14),25,-7,13,yes,x,5,x,0.83396360000188,1,21,test1,3,0.8340793000097619,-52.0
21,chj,f,20,r,2,(-3.163262682197613e-14, -172.20000000000002),27,-5,12,yes,x,5,x,0.6115562999912072,1,22,test1,3,0.611717600011616,-50.0
21,chj,f,20,r,2,(-121.76378772032352, -121.76378772032348),26,-3,11,yes,x,5,x,0.8637011999962851,1,23,test1,3,0.8643924999923911,-48.0
21,chj,f,20,r,2,(121.76378772032349, 121.76378772032349),22,25,4,yes,x,5,x,0.5035244000027888,1,24,test1,3,0.5036243999929866,-20.0
21,chj,f,20,r,2,(121.76378772032349, 121.76378772032349),22,3,1,yes,x,5,x,0.9070458999922266,1,25,test1,3,0.9073189000046114,-42.0
21,chj,f,20,r,2,(1.0544208940658713e-14, 172.20000000000002),23,7,3,yes,x,5,x,0.48735880000458565,1,26,test1,3,0.48750519999885,-38.0
21,chj,f,20,r,2,(-172.20000000000002, 2.1088417881317425e-14),25,3,1,yes,x,5,x,0.6730257999879541,1,27,test1,3,0.6731441000010818,-42.0
21,chj,f,20,r,2,(121.76378772032346, -121.76378772032352),28,-7,13,yes,x,5,x,0.5994894000032218,1,28,test1,3,0.5997284000040963,-52.0
21,chj,f,20,r,2,(-121.76378772032352, -121.76378772032348),26,7,3,no,m,6,m,0.6038195000000997,1,29,test1,3,0.6039517999888631,-52.0
21,chj,f,20,r,2,(-3.163262682197613e-14, -172.20000000000002),27,7,3,no,m,6,m,0.5539026999904308,1,30,test1,3,0.5541267000080552,-52.0
21,chj,f,20,r,2,(121.76378772032346, -121.76378772032352),28,3,1,yes,x,5,x,0.5828938000049675,1,31,test1,3,0.5830749000015203,-42.0
21,chj,f,20,r,2,(-121.76378772032352, -121.76378772032348),26,-25,14,no,m,6,m,0.8405588000023272,1,32,test1,3,0.8408174000069266,-42.0
21,chj,f,20,r,2,(-172.20000000000002, 2.1088417881317425e-14),25,25,4,no,m,6,m,0.6131380000006175,1,33,test1,3,0.6135280999878887,-42.0
21,chj,f,20,r,2,(-121.76378772032348, 121.76378772032349),24,-25,14,no,m,6,m,0.620742799990694,1,34,test1,3,0.6210579000035068,-42.0
21,chj,f,20,r,2,(-3.163262682197613e-14, -172.20000000000002),27,-7,13,no,m,6,m,0.6222328000003472,1,35,test1,3,0.6224864999967394,-42.0
21,chj,f,20,r,2,(1.0544208940658713e-14, 172.20000000000002),23,-3,11,yes,x,5,x,0.7298684999987017,1,36,test1,3,0.7305102000100305,-48.0
21,chj,f,20,r,2,(121.76378772032346, -121.76378772032352),28,25,4,no,m,6,m,0.8229834999947343,1,37,test1,3,0.8232065000047442,-48.0
21,chj,f,20,r,2,(-172.20000000000002, 2.1088417881317425e-14),25,-3,11,no,m,6,m,0.8217349000042304,1,38,test1,3,0.8218632000061916,-48.0
21,chj,f,20,r,2,(-121.76378772032348, 121.76378772032349),24,-25,14,yes,x,5,x,0.5071435999998357,1,39,test1,3,0.5074536000029184,-70.0
21,chj,f,20,r,2,(1.0544208940658713e-14, 172.20000000000002),23,5,2,yes,x,5,x,0.5145397000014782,1,40,test1,3,0.5146539999986999,-40.0
21,chj,f,20,r,2,(1.0544208940658713e-14, 172.20000000000002),23,3,1,yes,x,5,x,0.5614354999997886,1,41,test1,3,0.5620318000001134,-42.0
21,chj,f,20,r,2,(121.76378772032346, -121.76378772032352),28,-25,14,no,m,6,m,0.9506303999951342,1,42,test1,3,0.9511364999925718,-42.0
21,chj,f,20,r,2,(-121.76378772032348, 121.76378772032349),24,3,1,yes,x,5,x,0.572762200012221,1,43,test1,3,0.5728674999991199,-42.0
21,chj,f,20,r,2,(121.76378772032346, -121.76378772032352),28,-7,13,yes,x,5,x,0.5337353999930201,1,44,test1,3,0.5339482999988832,-52.0
21,chj,f,20,r,2,(1.0544208940658713e-14, 172.20000000000002),23,5,2,no,m,6,m,0.7778063000005204,1,45,test1,3,0.7784294000011869,-52.0
21,chj,f,20,r,2,(-172.20000000000002, 2.1088417881317425e-14),25,3,1,no,m,6,m,0.5347763000027044,1,46,test1,3,0.5349053999962052,-52.0
21,chj,f,20,r,2,(-121.76378772032348, 121.76378772032349),24,5,2,no,m,6,m,0.6162132000026759,1,47,test1,3,0.6164496999990661,-52.0
21,chj,f,20,r,2,(1.0544208940658713e-14, 172.20000000000002),23,-7,13,yes,x,5,x,0.563664700006484,1,48,test1,3,0.5640939999866532,-52.0
21,chj,f,20,r,2,(1.0544208940658713e-14, 172.20000000000002),23,7,3,yes,x,5,x,0.5023434000031557,1,49,test1,3,0.5025749000051292,-38.0
21,chj,f,20,r,2,(172.20000000000002, 0.0),21,-25,14,yes,x,5,x,0.5024342999968212,1,50,test1,3,0.5025478000025032,-70.0
21,chj,f,20,r,2,(172.20000000000002, 0.0),21,-5,12,no,m,6,m,1.065578000008827,1,51,test1,3,1.0657137999951374,-70.0
21,chj,f,20,r,2,(-121.76378772032348, 121.76378772032349),24,25,4,no,m,6,m,0.8569281999953091,1,52,test1,3,0.8574224000039976,-70.0
21,chj,f,20,r,2,(-121.76378772032348, 121.76378772032349),24,5,2,yes,x,5,x,0.5098330000037095,1,53,test1,3,0.5100672999978997,-40.0
21,chj,f,20,r,2,(121.76378772032346, -121.76378772032352),28,5,2,yes,x,5,x,0.5080936000013025,1,54,test1,3,0.5083506999944802,-40.0
21,chj,f,20,r,2,(-121.76378772032352, -121.76378772032348),26,-3,11,yes,x,5,x,0.6871374000038486,1,55,test1,3,0.6874874999921303,-48.0
21,chj,f,20,r,2,(-121.76378772032352, -121.76378772032348),26,7,3,yes,x,5,x,0.5218437000003178,1,56,test1,3,0.5224827000056393,-38.0
21,chj,f,20,r,2,(-121.76378772032352, -121.76378772032348),26,-7,13,yes,x,5,x,0.587752499995986,1,57,test1,3,0.5880615000060061,-52.0
21,chj,f,20,r,2,(172.20000000000002, 0.0),21,25,4,yes,x,5,x,0.7239754000038374,1,58,test1,3,0.7241421000071568,-20.0
21,chj,f,20,r,2,(-3.163262682197613e-14, -172.20000000000002),27,5,2,no,m,6,m,0.7345493999891914,1,59,test1,3,0.7346489000046859,-20.0
21,chj,f,20,r,2,(172.20000000000002, 0.0),21,5,2,yes,x,5,x,0.7535118999949191,1,60,test1,3,0.7536712000000989,-40.0
21,chj,f,20,r,2,(121.76378772032346, -121.76378772032352),28,-5,12,no,m,6,m,0.9360033999982988,1,61,test1,3,0.9362718000047607,-40.0
21,chj,f,20,r,2,(-3.163262682197613e-14, -172.20000000000002),27,-25,14,yes,x,5,x,0.6906412999960594,1,62,test1,3,0.691098499999498,-70.0
21,chj,f,20,r,2,(-121.76378772032352, -121.76378772032348),26,-25,14,yes,x,5,x,0.5643583000055514,1,63,test1,3,0.5644914000004064,-70.0
21,chj,f,20,r,2,(121.76378772032346, -121.76378772032352),28,5,2,yes,x,5,x,1.3132370999956038,1,64,test1,3,1.313397600009921,-40.0
21,chj,f,20,r,2,(-172.20000000000002, 2.1088417881317425e-14),25,25,4,yes,x,5,x,0.40579319999960717,1,65,test1,3,0.40589680000266526,-20.0
21,chj,f,20,r,2,(-3.163262682197613e-14, -172.20000000000002),27,-3,11,no,m,6,m,0.6454155999963405,1,66,test1,3,0.6456546000117669,-20.0
21,chj,f,20,r,2,(121.76378772032349, 121.76378772032349),22,7,3,no,m,6,m,0.7460710000013933,1,67,test1,3,0.7462006999994628,-20.0
21,chj,f,20,r,2,(-121.76378772032348, 121.76378772032349),24,3,1,no,m,6,m,0.5633167000050889,1,68,test1,3,0.5634393999935128,-20.0
21,chj,f,20,r,2,(-3.163262682197613e-14, -172.20000000000002),27,-5,12,no,m,6,m,0.5861645999975735,1,69,test1,3,0.5863040999975055,-20.0
21,chj,f,20,r,2,(-172.20000000000002, 2.1088417881317425e-14),25,5,2,no,m,6,m,0.7780137000081595,1,70,test1,3,0.7781467000022531,-20.0
21,chj,f,20,r,2,(172.20000000000002, 0.0),21,-5,12,yes,x,5,x,0.5477192999969702,1,71,test1,3,0.5478195999894524,-50.0
21,chj,f,20,r,2,(121.76378772032346, -121.76378772032352),28,-3,11,yes,x,5,m,1.1501856999966549,0,72,test1,3,1.15060180000728,-48.0
21,chj,f,20,r,2,(-172.20000000000002, 2.1088417881317425e-14),25,-25,14,yes,x,5,x,0.6607071999897016,1,73,test1,3,0.6608120000018971,-70.0
21,chj,f,20,r,2,(-172.20000000000002, 2.1088417881317425e-14),25,-25,14,yes,x,5,x,0.5308069000020623,1,74,test1,3,0.5313828999933321,-70.0
21,chj,f,20,r,2,(172.20000000000002, 0.0),21,-3,11,yes,x,5,x,0.6805119999917224,1,75,test1,3,0.6806175999954576,-48.0
21,chj,f,20,r,2,(-121.76378772032348, 121.76378772032349),24,25,4,yes,x,5,x,0.5152328000112902,1,76,test1,3,0.5154715999960899,-20.0
21,chj,f,20,r,2,(121.76378772032346, -121.76378772032352),28,5,2,no,m,6,m,0.6268638000037754,1,77,test1,3,0.6269678000098793,-20.0
21,chj,f,20,r,2,(121.76378772032349, 121.76378772032349),22,-25,14,yes,x,5,x,0.5191199000109918,1,78,test1,3,0.5192268000100739,-70.0
21,chj,f,20,r,2,(-121.76378772032352, -121.76378772032348),26,-7,13,yes,x,5,x,0.7065360999986297,1,79,test1,3,0.7066384000063408,-52.0
21,chj,f,20,r,2,(-121.76378772032348, 121.76378772032349),24,7,3,no,m,6,m,1.2807805000047665,1,80,test1,3,1.2809641000058036,-52.0
21,chj,f,20,r,2,(-121.76378772032352, -121.76378772032348),26,-5,12,no,m,6,m,0.5315869000041857,1,81,test1,3,0.5317370000120718,-52.0
21,chj,f,20,r,2,(1.0544208940658713e-14, 172.20000000000002),23,25,4,no,m,6,m,0.47982770000817254,1,82,test1,3,0.47993030000361614,-52.0
21,chj,f,20,r,2,(121.76378772032349, 121.76378772032349),22,-5,12,yes,x,5,x,0.48227910000423435,1,83,test1,3,0.4825507000059588,-50.0
21,chj,f,20,r,2,(121.76378772032346, -121.76378772032352),28,3,1,no,m,6,m,0.7575677999993786,1,84,test1,3,0.7576833000057377,-50.0
21,chj,f,20,r,2,(-172.20000000000002, 2.1088417881317425e-14),25,5,2,yes,x,5,m,0.6803723999910289,0,85,test1,3,0.6804728999995859,-40.0
21,chj,f,20,r,2,(-3.163262682197613e-14, -172.20000000000002),27,3,1,yes,x,5,x,0.5461853000015253,1,86,test1,3,0.5466325000015786,-42.0
21,chj,f,20,r,2,(-121.76378772032348, 121.76378772032349),24,5,2,yes,x,5,x,0.5120175000047311,1,87,test1,3,0.5122209999972256,-40.0
21,chj,f,20,r,2,(-121.76378772032352, -121.76378772032348),26,3,1,yes,x,5,x,1.2647777999954997,1,88,test1,3,1.2649971000064397,-42.0
21,chj,f,20,r,2,(-172.20000000000002, 2.1088417881317425e-14),25,25,4,yes,x,5,x,0.5001461000065319,1,89,test1,3,0.5002900999970734,-20.0
21,chj,f,20,r,2,(121.76378772032349, 121.76378772032349),22,25,4,yes,x,5,x,0.5215352999948664,1,90,test1,3,0.5217423000140116,-20.0
21,chj,f,20,r,2,(-3.163262682197613e-14, -172.20000000000002),27,5,2,yes,x,5,x,0.6497090999910142,1,91,test1,3,0.6498852000077022,-40.0
21,chj,f,20,r,2,(-121.76378772032348, 121.76378772032349),24,-25,14,yes,x,5,x,0.4911607000103686,1,92,test1,3,0.49141070000769105,-70.0
21,chj,f,20,r,2,(-121.76378772032352, -121.76378772032348),26,5,2,yes,x,5,x,0.5261658999952488,1,93,test1,3,0.526733199993032,-40.0
21,chj,f,20,r,2,(121.76378772032349, 121.76378772032349),22,-5,12,yes,x,5,x,0.551492300000973,1,94,test1,3,0.5515892999974312,-50.0
21,chj,f,20,r,2,(1.0544208940658713e-14, 172.20000000000002),23,-3,11,yes,x,5,x,0.7282477999979164,1,95,test1,3,0.7287818000040716,-48.0
21,chj,f,20,r,2,(-3.163262682197613e-14, -172.20000000000002),27,25,4,yes,x,5,x,0.4346205000038026,1,96,test1,3,0.4351533000008203,-20.0
21,chj,f,20,r,2,(-121.76378772032348, 121.76378772032349),24,-3,11,yes,x,5,x,0.6040934000047855,1,1,test2,3,0.6042585999966832,-48.0
21,chj,f,20,r,2,(-121.76378772032352, -121.76378772032348),26,5,2,no,m,6,m,0.5923804999911226,1,2,test2,3,0.5927509000030113,-48.0
21,chj,f,20,r,2,(-172.20000000000002, 2.1088417881317425e-14),25,-7,13,no,m,6,m,0.7359365000011167,1,3,test2,3,0.7361010000022361,-48.0
21,chj,f,20,r,2,(-121.76378772032348, 121.76378772032349),24,-7,13,yes,x,5,x,0.42730850000225473,1,4,test2,3,0.42783880000934005,-52.0
21,chj,f,20,r,2,(121.76378772032349, 121.76378772032349),22,-3,11,yes,x,5,m,0.6880550999921979,0,5,test2,3,0.6882724000024609,-48.0
21,chj,f,20,r,2,(121.76378772032349, 121.76378772032349),22,25,4,no,m,6,m,0.6706628999963868,1,6,test2,3,0.6707673999917461,-48.0
21,chj,f,20,r,2,(-121.76378772032352, -121.76378772032348),26,25,4,no,m,6,m,0.7551643999904627,1,7,test2,3,0.7553233999933582,-48.0
21,chj,f,20,r,2,(-3.163262682197613e-14, -172.20000000000002),27,5,2,yes,x,5,x,0.4477748000063002,1,8,test2,3,0.44806909999169875,-40.0
21,chj,f,20,r,2,(-121.76378772032348, 121.76378772032349),24,-3,11,no,m,6,m,0.7965273000008892,1,9,test2,3,0.7966440000018338,-40.0
21,chj,f,20,r,2,(121.76378772032349, 121.76378772032349),22,-7,13,no,m,6,m,0.6676127999962773,1,10,test2,3,0.6678970000066329,-40.0
21,chj,f,20,r,2,(-121.76378772032348, 121.76378772032349),24,-5,12,yes,x,5,x,0.7848763000074541,1,11,test2,3,0.7849806999875,-50.0
21,chj,f,20,r,2,(1.0544208940658713e-14, 172.20000000000002),23,25,4,yes,x,5,x,0.36876880000636447,1,12,test2,3,0.36899619999167044,-20.0
21,chj,f,20,r,2,(121.76378772032346, -121.76378772032352),28,25,4,yes,x,5,x,0.453672200004803,1,13,test2,3,0.453792300002533,-20.0
21,chj,f,20,r,2,(-121.76378772032352, -121.76378772032348),26,-5,12,yes,x,5,x,0.8389533000008669,1,14,test2,3,0.839314299999387,-50.0
21,chj,f,20,r,2,(172.20000000000002, 0.0),21,5,2,yes,x,5,x,0.5126336999965133,1,15,test2,3,0.5129950999980792,-40.0
21,chj,f,20,r,2,(121.76378772032349, 121.76378772032349),22,-25,14,no,m,6,m,0.651891199988313,1,16,test2,3,0.6520595000038156,-40.0
21,chj,f,20,r,2,(121.76378772032346, -121.76378772032352),28,-25,14,yes,x,5,x,0.49023709999164566,1,17,test2,3,0.4903388999955496,-70.0
21,chj,f,20,r,2,(121.76378772032346, -121.76378772032352),28,-5,12,yes,x,5,x,0.8380340000003343,1,18,test2,3,0.838138400009484,-50.0
21,chj,f,20,r,2,(172.20000000000002, 0.0),21,3,1,yes,x,5,x,0.9989968000008957,1,19,test2,3,0.9996039000106975,-42.0
21,chj,f,20,r,2,(1.0544208940658713e-14, 172.20000000000002),23,-25,14,yes,x,5,x,0.3907216000079643,1,20,test2,3,0.3908340999914799,-70.0
21,chj,f,20,r,2,(-172.20000000000002, 2.1088417881317425e-14),25,-5,12,no,m,6,m,0.6041808000009041,1,21,test2,3,0.6042802999872947,-70.0
21,chj,f,20,r,2,(-121.76378772032348, 121.76378772032349),24,3,1,yes,x,5,x,0.6190212999936193,1,22,test2,3,0.6192333000071812,-42.0
21,chj,f,20,r,2,(121.76378772032346, -121.76378772032352),28,-25,14,yes,x,5,x,0.4887831000087317,1,23,test2,3,0.48907779999717604,-70.0
21,chj,f,20,r,2,(172.20000000000002, 0.0),21,-3,11,yes,x,5,x,0.7230771000031382,1,24,test2,3,0.7231812000100035,-48.0
21,chj,f,20,r,2,(172.20000000000002, 0.0),21,3,1,no,m,6,m,0.5843801000009989,1,25,test2,3,0.5846225999994203,-48.0
21,chj,f,20,r,2,(1.0544208940658713e-14, 172.20000000000002),23,25,4,yes,x,5,x,0.448702299996512,1,26,test2,3,0.44882869999855757,-20.0
21,chj,f,20,r,2,(-3.163262682197613e-14, -172.20000000000002),27,25,4,no,m,6,x,0.5963678999978583,0,27,test2,3,0.5964834000042174,-20.0
21,chj,f,20,r,2,(172.20000000000002, 0.0),21,7,3,yes,x,5,x,0.5330299999914132,1,28,test2,3,0.533413199998904,-38.0
21,chj,f,20,r,2,(121.76378772032349, 121.76378772032349),22,-7,13,yes,x,5,x,0.5386831000068923,1,29,test2,3,0.5387885999953141,-52.0
21,chj,f,20,r,2,(172.20000000000002, 0.0),21,3,1,yes,x,5,x,0.5016280999989249,1,30,test2,3,0.5017971000052057,-42.0
21,chj,f,20,r,2,(172.20000000000002, 0.0),21,5,2,no,m,6,m,0.5770820000034291,1,31,test2,3,0.5773095000040485,-42.0
21,chj,f,20,r,2,(121.76378772032349, 121.76378772032349),22,-3,11,yes,x,5,x,0.8639316000044346,1,32,test2,3,0.8641237999981968,-48.0
21,chj,f,20,r,2,(172.20000000000002, 0.0),21,7,3,no,m,6,m,0.5903672999993432,1,33,test2,3,0.5907910999958403,-48.0
21,chj,f,20,r,2,(121.76378772032349, 121.76378772032349),22,5,2,no,m,6,m,0.7424518000043463,1,34,test2,3,0.7428588999900967,-48.0
21,chj,f,20,r,2,(-172.20000000000002, 2.1088417881317425e-14),25,-5,12,yes,x,5,x,0.691781900008209,1,35,test2,3,0.6920179999870015,-50.0
21,chj,f,20,r,2,(1.0544208940658713e-14, 172.20000000000002),23,-7,13,no,m,6,m,0.7362788000027649,1,36,test2,3,0.7363967999990564,-50.0
21,chj,f,20,r,2,(-121.76378772032348, 121.76378772032349),24,-5,12,no,m,6,m,0.9201505000091856,1,37,test2,3,0.9203446000028634,-50.0
21,chj,f,20,r,2,(121.76378772032346, -121.76378772032352),28,-3,11,yes,x,5,x,0.6703710000001593,1,38,test2,3,0.6705005999974674,-48.0
21,chj,f,20,r,2,(121.76378772032349, 121.76378772032349),22,7,3,yes,x,5,x,0.5714125000085915,1,39,test2,3,0.5715482999949018,-38.0
21,chj,f,20,r,2,(-3.163262682197613e-14, -172.20000000000002),27,7,3,yes,x,5,x,0.6164314999914495,1,40,test2,3,0.6165713999944273,-38.0
21,chj,f,20,r,2,(121.76378772032346, -121.76378772032352),28,7,3,yes,x,5,x,0.7621480999951018,1,41,test2,3,0.7623875999997836,-38.0
21,chj,f,20,r,2,(-121.76378772032348, 121.76378772032349),24,25,4,yes,x,5,x,0.5134861999977147,1,42,test2,3,0.513614299998153,-20.0
21,chj,f,20,r,2,(-121.76378772032352, -121.76378772032348),26,3,1,yes,x,5,x,0.7529939000087325,1,43,test2,3,0.7533938000124181,-42.0
21,chj,f,20,r,2,(1.0544208940658713e-14, 172.20000000000002),23,5,2,yes,x,5,x,0.5341998999938369,1,44,test2,3,0.5343026000045938,-40.0
21,chj,f,20,r,2,(-121.76378772032348, 121.76378772032349),24,-3,11,yes,x,5,x,0.6192699000093853,1,45,test2,3,0.6195161000068765,-48.0
21,chj,f,20,r,2,(-3.163262682197613e-14, -172.20000000000002),27,7,3,yes,x,5,x,0.5108142999961274,1,46,test2,3,0.5111432999983663,-38.0
21,chj,f,20,r,2,(1.0544208940658713e-14, 172.20000000000002),23,-5,12,no,m,6,m,1.0271374000003561,1,47,test2,3,1.027472100002342,-38.0
21,chj,f,20,r,2,(-172.20000000000002, 2.1088417881317425e-14),25,7,3,no,m,6,m,0.814691399995354,1,48,test2,3,0.8147885999933351,-38.0
21,chj,f,20,r,2,(-121.76378772032352, -121.76378772032348),26,25,4,yes,x,5,x,0.42095190001418814,1,49,test2,3,0.4211747000081232,-20.0
21,chj,f,20,r,2,(121.76378772032346, -121.76378772032352),28,7,3,no,m,6,m,0.7429183000058401,1,50,test2,3,0.7430400000012014,-20.0
21,chj,f,20,r,2,(1.0544208940658713e-14, 172.20000000000002),23,-3,11,no,m,6,m,0.6918353999935789,1,51,test2,3,0.6919559999951161,-20.0
21,chj,f,20,r,2,(121.76378772032346, -121.76378772032352),28,25,4,yes,x,5,x,0.5152493999921717,1,52,test2,3,0.5153680000075838,-20.0
21,chj,f,20,r,2,(-121.76378772032352, -121.76378772032348),26,-5,12,yes,x,5,x,0.5029950000025565,1,53,test2,3,0.5036447000020416,-50.0
21,chj,f,20,r,2,(-3.163262682197613e-14, -172.20000000000002),27,-25,14,yes,x,5,x,0.5576514999993378,1,54,test2,3,0.557759300005273,-70.0
21,chj,f,20,r,2,(-3.163262682197613e-14, -172.20000000000002),27,-5,12,yes,x,5,x,0.613277399999788,1,55,test2,3,0.6135075999918627,-50.0
21,chj,f,20,r,2,(172.20000000000002, 0.0),21,25,4,no,m,6,m,0.5749835000024177,1,56,test2,3,0.5752088999870466,-50.0
21,chj,f,20,r,2,(1.0544208940658713e-14, 172.20000000000002),23,7,3,no,m,6,m,0.760211500004516,1,57,test2,3,0.7603167999914149,-50.0
21,chj,f,20,r,2,(121.76378772032349, 121.76378772032349),22,5,2,yes,x,5,x,0.6287757999962196,1,58,test2,3,0.6290073999989545,-40.0
21,chj,f,20,r,2,(1.0544208940658713e-14, 172.20000000000002),23,-25,14,no,m,6,m,0.6357570000109263,1,59,test2,3,0.6361019999894779,-40.0
21,chj,f,20,r,2,(-121.76378772032352, -121.76378772032348),26,-3,11,no,m,6,m,0.7234530999994604,1,60,test2,3,0.7238556000083918,-40.0
21,chj,f,20,r,2,(172.20000000000002, 0.0),21,-25,14,no,m,6,m,0.8273825999931432,1,61,test2,3,0.8275486000056844,-40.0
21,chj,f,20,r,2,(1.0544208940658713e-14, 172.20000000000002),23,-7,13,yes,x,5,x,0.5161701000033645,1,62,test2,3,0.5163701999990735,-52.0
21,chj,f,20,r,2,(121.76378772032346, -121.76378772032352),28,3,1,yes,x,5,m,1.3326233999978285,0,63,test2,3,1.3328424999926938,-42.0
21,chj,f,20,r,2,(-121.76378772032348, 121.76378772032349),24,-7,13,no,m,6,m,0.6107221999991452,1,64,test2,3,0.6108625999913784,-42.0
21,chj,f,20,r,2,(172.20000000000002, 0.0),21,-7,13,yes,x,5,x,0.4603124999994179,1,65,test2,3,0.46041809998860117,-52.0
21,chj,f,20,r,2,(-121.76378772032352, -121.76378772032348),26,7,3,yes,x,5,x,0.5199753000051714,1,66,test2,3,0.5201731999986805,-38.0
21,chj,f,20,r,2,(172.20000000000002, 0.0),21,-7,13,yes,x,5,x,0.6729572999902302,1,67,test2,3,0.6732252000074368,-52.0
21,chj,f,20,r,2,(1.0544208940658713e-14, 172.20000000000002),23,3,1,yes,x,5,x,0.5207294000138063,1,68,test2,3,0.5208303999970667,-42.0
21,chj,f,20,r,2,(-172.20000000000002, 2.1088417881317425e-14),25,-25,14,no,m,6,m,0.6616898999927798,1,69,test2,3,0.661806100004469,-42.0
21,chj,f,20,r,2,(-3.163262682197613e-14, -172.20000000000002),27,3,1,no,m,6,m,0.6140903000050457,1,70,test2,3,0.6143137000035495,-42.0
21,chj,f,20,r,2,(121.76378772032349, 121.76378772032349),22,-7,13,yes,x,5,x,0.5434519000118598,1,71,test2,3,0.5438701999955811,-52.0
21,chj,f,20,r,2,(121.76378772032346, -121.76378772032352),28,7,3,yes,x,5,x,0.4283501000027172,1,72,test2,3,0.4284600000100909,-38.0
21,chj,f,20,r,2,(-121.76378772032352, -121.76378772032348),26,5,2,yes,x,5,x,0.47730920001049526,1,73,test2,3,0.47741349998977967,-40.0
21,chj,f,20,r,2,(-172.20000000000002, 2.1088417881317425e-14),25,-3,11,yes,x,5,m,0.9012352999998257,0,74,test2,3,0.9013363000121899,-48.0
21,chj,f,20,r,2,(121.76378772032349, 121.76378772032349),22,-5,12,no,m,6,m,0.6588943999959156,1,75,test2,3,0.6591045999957714,-48.0
21,chj,f,20,r,2,(-172.20000000000002, 2.1088417881317425e-14),25,-3,11,yes,x,5,x,0.63481459999457,1,76,test2,3,0.6349133000039728,-48.0
21,chj,f,20,r,2,(172.20000000000002, 0.0),21,-5,12,yes,x,5,x,0.6221179999993183,1,77,test2,3,0.6222533999971347,-50.0
21,chj,f,20,r,2,(-3.163262682197613e-14, -172.20000000000002),27,-25,14,no,m,6,m,0.8657441000104882,1,78,test2,3,0.8658526000072015,-50.0
21,chj,f,20,r,2,(172.20000000000002, 0.0),21,-25,14,yes,x,5,m,1.2706449999968754,0,79,test2,3,1.2710036999924341,-70.0
21,chj,f,20,r,2,(-3.163262682197613e-14, -172.20000000000002),27,-3,11,yes,x,5,x,0.7797059000004083,1,80,test2,3,0.7800711000018055,-48.0
21,chj,f,20,r,2,(-121.76378772032352, -121.76378772032348),26,-25,14,yes,x,5,x,0.6121410000050673,1,81,test2,3,0.6123617999983253,-70.0
21,chj,f,20,r,2,(1.0544208940658713e-14, 172.20000000000002),23,3,1,no,m,6,m,0.5937481000000844,1,82,test2,3,0.5939558999962173,-70.0
21,chj,f,20,r,2,(-172.20000000000002, 2.1088417881317425e-14),25,7,3,yes,x,5,x,0.6090964000031818,1,83,test2,3,0.609392200000002,-38.0
21,chj,f,20,r,2,(-121.76378772032348, 121.76378772032349),24,7,3,yes,x,5,x,0.5146283000067342,1,84,test2,3,0.5154674000077648,-38.0
21,chj,f,20,r,2,(-172.20000000000002, 2.1088417881317425e-14),25,-7,13,yes,x,5,x,0.6364958999911323,1,85,test2,3,0.6366312999889487,-52.0
21,chj,f,20,r,2,(1.0544208940658713e-14, 172.20000000000002),23,-5,12,yes,x,5,x,0.7668762999965111,1,86,test2,3,0.7671216000017012,-50.0
21,chj,f,20,r,2,(-172.20000000000002, 2.1088417881317425e-14),25,7,3,yes,x,5,x,0.5768168999929912,1,87,test2,3,0.5769703999976628,-38.0
21,chj,f,20,r,2,(-121.76378772032352, -121.76378772032348),26,25,4,yes,x,5,x,0.54893569998967,1,88,test2,3,0.5492649000079837,-20.0
21,chj,f,20,r,2,(-3.163262682197613e-14, -172.20000000000002),27,-7,13,yes,x,5,x,0.5184612000011839,1,89,test2,3,0.5188259999995353,-52.0
21,chj,f,20,r,2,(-172.20000000000002, 2.1088417881317425e-14),25,3,1,yes,x,5,x,0.5298306999902707,1,90,test2,3,0.5299377000046661,-42.0
21,chj,f,20,r,2,(-121.76378772032352, -121.76378772032348),26,3,1,no,m,6,m,0.8753324999997858,1,91,test2,3,0.8756178999901749,-42.0
21,chj,f,20,r,2,(-121.76378772032348, 121.76378772032349),24,-5,12,yes,x,5,x,0.5336910000041826,1,92,test2,3,0.5338871999992989,-50.0
21,chj,f,20,r,2,(-121.76378772032352, -121.76378772032348),26,-7,13,no,m,6,m,0.7615074000059394,1,93,test2,3,0.7616393999924185,-50.0
21,chj,f,20,r,2,(172.20000000000002, 0.0),21,-7,13,no,m,6,m,0.6103261999960523,1,94,test2,3,0.6110459999908926,-50.0
21,chj,f,20,r,2,(1.0544208940658713e-14, 172.20000000000002),23,-5,12,yes,x,5,x,0.5684949999995297,1,95,test2,3,0.5687121000082698,-50.0
21,chj,f,20,r,2,(121.76378772032349, 121.76378772032349),22,3,1,yes,x,5,x,0.7627402000071015,1,96,test2,3,0.7629794999957085,-42.0
21,chj,f,20,r,2,(-172.20000000000002, 2.1088417881317425e-14),25,-5,12,yes,x,5,x,0.6753336999972817,1,1,test1,4,0.675720299987006,-50.0
21,chj,f,20,r,2,(121.76378772032349, 121.76378772032349),22,5,2,yes,x,5,x,0.6504363999993075,1,2,test1,4,0.6505400000023656,-40.0
21,chj,f,20,r,2,(172.20000000000002, 0.0),21,25,4,yes,x,5,x,0.3868529000028502,1,3,test1,4,0.3871519999956945,-20.0
21,chj,f,20,r,2,(1.0544208940658713e-14, 172.20000000000002),23,-25,14,yes,x,5,x,0.40465900000708643,1,4,test1,4,0.40528839999751654,-70.0
21,chj,f,20,r,2,(-3.163262682197613e-14, -172.20000000000002),27,3,1,yes,x,5,x,0.6721433000057004,1,5,test1,4,0.6728655000042636,-42.0
21,chj,f,20,r,2,(-172.20000000000002, 2.1088417881317425e-14),25,5,2,yes,x,5,x,0.5142041999934008,1,6,test1,4,0.5143714000005275,-40.0
21,chj,f,20,r,2,(-3.163262682197613e-14, -172.20000000000002),27,-3,11,yes,x,5,x,0.518721700005699,1,7,test1,4,0.5191646000021137,-48.0
21,chj,f,20,r,2,(172.20000000000002, 0.0),21,7,3,yes,x,5,x,0.4852589999936754,1,8,test1,4,0.48617590000503697,-38.0
21,chj,f,20,r,2,(121.76378772032349, 121.76378772032349),22,3,1,no,m,6,m,0.6524226000037743,1,9,test1,4,0.6526990000129445,-38.0
21,chj,f,20,r,2,(-3.163262682197613e-14, -172.20000000000002),27,25,4,yes,x,5,x,0.4453678999998374,1,10,test1,4,0.4454935999965528,-20.0
21,chj,f,20,r,2,(-121.76378772032348, 121.76378772032349),24,-7,13,yes,x,5,x,0.5890901999955531,1,11,test1,4,0.5893329999962589,-52.0
21,chj,f,20,r,2,(-121.76378772032348, 121.76378772032349),24,7,3,yes,x,5,x,0.5258040000044275,1,12,test1,4,0.5259569000045303,-38.0
21,chj,f,20,r,2,(121.76378772032346, -121.76378772032352),28,-7,13,no,m,6,m,0.6354231000004802,1,13,test1,4,0.6355227000021841,-38.0
21,chj,f,20,r,2,(121.76378772032346, -121.76378772032352),28,-3,11,no,m,6,m,0.7327440000080969,1,14,test1,4,0.7328470999927958,-38.0
21,chj,f,20,r,2,(121.76378772032349, 121.76378772032349),22,-25,14,yes,x,5,x,0.4412570999993477,1,15,test1,4,0.4414758999919286,-70.0
21,chj,f,20,r,2,(121.76378772032349, 121.76378772032349),22,-3,11,no,m,6,m,0.6488581000012346,1,16,test1,4,0.649061600008281,-70.0
21,chj,f,20,r,2,(-3.163262682197613e-14, -172.20000000000002),27,-7,13,yes,x,5,x,0.42382460000226274,1,17,test1,4,0.42490389999875333,-52.0
21,chj,f,20,r,2,(121.76378772032346, -121.76378772032352),28,-5,12,yes,x,5,x,0.593371200011461,1,18,test1,4,0.5935778999992181,-50.0
21,chj,f,20,r,2,(172.20000000000002, 0.0),21,-3,11,no,m,6,m,0.6381299000058789,1,19,test1,4,0.6386318000004394,-50.0
21,chj,f,20,r,2,(121.76378772032349, 121.76378772032349),22,7,3,yes,x,5,x,0.529176500000176,1,20,test1,4,0.5293054000067059,-38.0
21,chj,f,20,r,2,(-172.20000000000002, 2.1088417881317425e-14),25,-7,13,yes,x,5,x,0.524150199998985,1,21,test1,4,0.5243956000049366,-52.0
21,chj,f,20,r,2,(-3.163262682197613e-14, -172.20000000000002),27,-5,12,yes,x,5,x,0.8758042999979807,1,22,test1,4,0.876221099999384,-50.0
21,chj,f,20,r,2,(-121.76378772032352, -121.76378772032348),26,-3,11,yes,x,5,x,0.7684768999897642,1,23,test1,4,0.7686058999970555,-48.0
21,chj,f,20,r,2,(121.76378772032349, 121.76378772032349),22,25,4,yes,x,5,x,0.5427168000023812,1,24,test1,4,0.5428760999930091,-20.0
21,chj,f,20,r,2,(121.76378772032349, 121.76378772032349),22,3,1,yes,x,5,x,0.8938953000033507,1,25,test1,4,0.8942348999989918,-42.0
21,chj,f,20,r,2,(1.0544208940658713e-14, 172.20000000000002),23,7,3,yes,x,5,x,0.6707123999949545,1,26,test1,4,0.6711420000065118,-38.0
21,chj,f,20,r,2,(-172.20000000000002, 2.1088417881317425e-14),25,3,1,yes,x,5,x,0.6111410999874352,1,27,test1,4,0.6118524000048637,-42.0
21,chj,f,20,r,2,(121.76378772032346, -121.76378772032352),28,-7,13,yes,x,5,x,0.684991899994202,1,28,test1,4,0.685154999999213,-52.0
21,chj,f,20,r,2,(-121.76378772032352, -121.76378772032348),26,7,3,no,m,6,m,0.9259655000059865,1,29,test1,4,0.9261855999939144,-52.0
21,chj,f,20,r,2,(-3.163262682197613e-14, -172.20000000000002),27,7,3,no,m,6,m,0.7140023999963887,1,30,test1,4,0.7145583000092302,-52.0
21,chj,f,20,r,2,(121.76378772032346, -121.76378772032352),28,3,1,yes,x,5,x,0.6559253000013996,1,31,test1,4,0.6560534000018379,-42.0
21,chj,f,20,r,2,(-121.76378772032352, -121.76378772032348),26,-25,14,no,m,6,m,0.8322039000049699,1,32,test1,4,0.8323067000019364,-42.0
21,chj,f,20,r,2,(-172.20000000000002, 2.1088417881317425e-14),25,25,4,no,m,6,m,0.6173674000019673,1,33,test1,4,0.617585699990741,-42.0
21,chj,f,20,r,2,(-121.76378772032348, 121.76378772032349),24,-25,14,no,m,6,m,0.6942311999882804,1,34,test1,4,0.6944528000021819,-42.0
21,chj,f,20,r,2,(-3.163262682197613e-14, -172.20000000000002),27,-7,13,no,m,6,m,0.7300321999937296,1,35,test1,4,0.7302199999976438,-42.0
21,chj,f,20,r,2,(1.0544208940658713e-14, 172.20000000000002),23,-3,11,yes,x,5,m,0.8579999000066891,0,36,test1,4,0.8584922000009101,-48.0
21,chj,f,20,r,2,(121.76378772032346, -121.76378772032352),28,25,4,no,m,6,m,0.7456164999894099,1,37,test1,4,0.7457162000064272,-48.0
21,chj,f,20,r,2,(-172.20000000000002, 2.1088417881317425e-14),25,-3,11,no,m,6,m,0.6307150000066031,1,38,test1,4,0.6309439000033308,-48.0
21,chj,f,20,r,2,(-121.76378772032348, 121.76378772032349),24,-25,14,yes,x,5,x,0.45685070000763517,1,39,test1,4,0.4569494000024861,-70.0
21,chj,f,20,r,2,(1.0544208940658713e-14, 172.20000000000002),23,5,2,yes,x,5,x,0.442588900012197,1,40,test1,4,0.44318650000786874,-40.0
21,chj,f,20,r,2,(1.0544208940658713e-14, 172.20000000000002),23,3,1,yes,x,5,x,1.0076482000004034,1,41,test1,4,1.0077830999944126,-42.0
21,chj,f,20,r,2,(121.76378772032346, -121.76378772032352),28,-25,14,no,m,6,m,0.7300503000005847,1,42,test1,4,0.730151299998397,-42.0
21,chj,f,20,r,2,(-121.76378772032348, 121.76378772032349),24,3,1,yes,x,5,x,0.7988577000069199,1,43,test1,4,0.79915279999841,-42.0
21,chj,f,20,r,2,(121.76378772032346, -121.76378772032352),28,-7,13,yes,x,5,x,0.5017059000092559,1,44,test1,4,0.5023596999963047,-52.0
21,chj,f,20,r,2,(1.0544208940658713e-14, 172.20000000000002),23,5,2,no,m,6,m,0.8487409000081243,1,45,test1,4,0.8489647999958834,-52.0
21,chj,f,20,r,2,(-172.20000000000002, 2.1088417881317425e-14),25,3,1,no,m,6,m,0.6614437999960501,1,46,test1,4,0.6615567999979248,-52.0
21,chj,f,20,r,2,(-121.76378772032348, 121.76378772032349),24,5,2,no,m,6,m,0.6232114000013098,1,47,test1,4,0.6236208000045735,-52.0
21,chj,f,20,r,2,(1.0544208940658713e-14, 172.20000000000002),23,-7,13,yes,x,5,x,0.48390129998733755,1,48,test1,4,0.48430609999923036,-52.0
21,chj,f,20,r,2,(1.0544208940658713e-14, 172.20000000000002),23,7,3,yes,x,5,x,0.42856420000316575,1,49,test1,4,0.428808199998457,-38.0
21,chj,f,20,r,2,(172.20000000000002, 0.0),21,-25,14,yes,x,5,x,0.5257364000135567,1,50,test1,4,0.5259615999966627,-70.0
21,chj,f,20,r,2,(172.20000000000002, 0.0),21,-5,12,no,m,6,m,0.695219699991867,1,51,test1,4,0.6954505000030622,-70.0
21,chj,f,20,r,2,(-121.76378772032348, 121.76378772032349),24,25,4,no,m,6,m,0.616871500009438,1,52,test1,4,0.6169993999938015,-70.0
21,chj,f,20,r,2,(-121.76378772032348, 121.76378772032349),24,5,2,yes,x,5,x,0.49594079999951646,1,53,test1,4,0.4960659000062151,-40.0
21,chj,f,20,r,2,(121.76378772032346, -121.76378772032352),28,5,2,yes,x,5,x,0.5547617999982322,1,54,test1,4,0.5552447999943979,-40.0
21,chj,f,20,r,2,(-121.76378772032352, -121.76378772032348),26,-3,11,yes,x,5,x,0.8489513999957126,1,55,test1,4,0.8491299000015715,-48.0
21,chj,f,20,r,2,(-121.76378772032352, -121.76378772032348),26,7,3,yes,x,5,x,0.6513202000060119,1,56,test1,4,0.651767600007588,-38.0
21,chj,f,20,r,2,(-121.76378772032352, -121.76378772032348),26,-7,13,yes,x,5,x,0.4957825000019511,1,57,test1,4,0.49601880001137033,-52.0
21,chj,f,20,r,2,(172.20000000000002, 0.0),21,25,4,yes,x,5,x,0.48144230000616517,1,58,test1,4,0.48174430000653956,-20.0
21,chj,f,20,r,2,(-3.163262682197613e-14, -172.20000000000002),27,5,2,no,m,6,m,0.7413635999982944,1,59,test1,4,0.7415846999938367,-20.0
21,chj,f,20,r,2,(172.20000000000002, 0.0),21,5,2,yes,x,5,x,0.5666216999961762,1,60,test1,4,0.5668713999912143,-40.0
21,chj,f,20,r,2,(121.76378772032346, -121.76378772032352),28,-5,12,no,m,6,m,0.6807435000082478,1,61,test1,4,0.6808486000081757,-40.0
21,chj,f,20,r,2,(-3.163262682197613e-14, -172.20000000000002),27,-25,14,yes,x,5,x,0.4799291999952402,1,62,test1,4,0.4802226000028895,-70.0
21,chj,f,20,r,2,(-121.76378772032352, -121.76378772032348),26,-25,14,yes,x,5,x,0.6128235000069253,1,63,test1,4,0.61347769999702,-70.0
21,chj,f,20,r,2,(121.76378772032346, -121.76378772032352),28,5,2,yes,x,5,x,0.4468648999900324,1,64,test1,4,0.44698280000011437,-40.0
21,chj,f,20,r,2,(-172.20000000000002, 2.1088417881317425e-14),25,25,4,yes,x,5,x,0.38804330000129994,1,65,test1,4,0.38830580000649206,-20.0
21,chj,f,20,r,2,(-3.163262682197613e-14, -172.20000000000002),27,-3,11,no,m,6,m,0.7395414000056917,1,66,test1,4,0.7396581999928458,-20.0
21,chj,f,20,r,2,(121.76378772032349, 121.76378772032349),22,7,3,no,m,6,m,0.566806999995606,1,67,test1,4,0.5674818999978015,-20.0
21,chj,f,20,r,2,(-121.76378772032348, 121.76378772032349),24,3,1,no,m,6,m,0.6152159000048414,1,68,test1,4,0.6153308000066318,-20.0
21,chj,f,20,r,2,(-3.163262682197613e-14, -172.20000000000002),27,-5,12,no,m,6,m,0.5959929999953602,1,69,test1,4,0.5963049999991199,-20.0
21,chj,f,20,r,2,(-172.20000000000002, 2.1088417881317425e-14),25,5,2,no,m,6,m,0.6237934999953723,1,70,test1,4,0.6239147000014782,-20.0
21,chj,f,20,r,2,(172.20000000000002, 0.0),21,-5,12,yes,x,5,x,0.5234330999956001,1,71,test1,4,0.523700399993686,-50.0
21,chj,f,20,r,2,(121.76378772032346, -121.76378772032352),28,-3,11,yes,x,5,x,0.6905648999963887,1,72,test1,4,0.6914384999981849,-48.0
21,chj,f,20,r,2,(-172.20000000000002, 2.1088417881317425e-14),25,-25,14,yes,x,5,x,0.5847051000018837,1,73,test1,4,0.5849489000102039,-70.0
21,chj,f,20,r,2,(-172.20000000000002, 2.1088417881317425e-14),25,-25,14,yes,x,5,x,0.411685099999886,1,74,test1,4,0.4117841999977827,-70.0
21,chj,f,20,r,2,(172.20000000000002, 0.0),21,-3,11,yes,x,5,x,0.5224808000057237,1,75,test1,4,0.522764699999243,-48.0
21,chj,f,20,r,2,(-121.76378772032348, 121.76378772032349),24,25,4,yes,x,5,x,0.43365440001070965,1,76,test1,4,0.4337755000015022,-20.0
21,chj,f,20,r,2,(121.76378772032346, -121.76378772032352),28,5,2,no,m,6,m,0.5915141000004951,1,77,test1,4,0.5916322999983095,-20.0
21,chj,f,20,r,2,(121.76378772032349, 121.76378772032349),22,-25,14,yes,x,5,x,0.42179969999415334,1,78,test1,4,0.42242459999397397,-70.0
21,chj,f,20,r,2,(-121.76378772032352, -121.76378772032348),26,-7,13,yes,x,5,x,0.40245510000386275,1,79,test1,4,0.40255769999930635,-52.0
21,chj,f,20,r,2,(-121.76378772032348, 121.76378772032349),24,7,3,no,m,6,m,0.7551051000045845,1,80,test1,4,0.755481799991685,-52.0
21,chj,f,20,r,2,(-121.76378772032352, -121.76378772032348),26,-5,12,no,m,6,m,0.643586599995615,1,81,test1,4,0.6441424999939045,-52.0
21,chj,f,20,r,2,(1.0544208940658713e-14, 172.20000000000002),23,25,4,no,m,6,m,0.722483799996553,1,82,test1,4,0.7231346000044141,-52.0
21,chj,f,20,r,2,(121.76378772032349, 121.76378772032349),22,-5,12,yes,x,5,x,0.5009705999982543,1,83,test1,4,0.5011935999937123,-50.0
21,chj,f,20,r,2,(121.76378772032346, -121.76378772032352),28,3,1,no,m,6,m,0.617317299998831,1,84,test1,4,0.6174199000088265,-50.0
21,chj,f,20,r,2,(-172.20000000000002, 2.1088417881317425e-14),25,5,2,yes,x,5,x,0.48354420000396203,1,85,test1,4,0.48388460000569467,-40.0
21,chj,f,20,r,2,(-3.163262682197613e-14, -172.20000000000002),27,3,1,yes,x,5,x,0.4972599999891827,1,86,test1,4,0.4973637999937637,-42.0
21,chj,f,20,r,2,(-121.76378772032348, 121.76378772032349),24,5,2,yes,x,5,x,0.38323079999827314,1,87,test1,4,0.3833611000009114,-40.0
21,chj,f,20,r,2,(-121.76378772032352, -121.76378772032348),26,3,1,yes,x,5,x,0.4095285000075819,1,88,test1,4,0.41013410000596195,-42.0
21,chj,f,20,r,2,(-172.20000000000002, 2.1088417881317425e-14),25,25,4,yes,x,5,x,0.34505400000489317,1,89,test1,4,0.3452357999922242,-20.0
21,chj,f,20,r,2,(121.76378772032349, 121.76378772032349),22,25,4,yes,x,5,x,0.3410571999993408,1,90,test1,4,0.3414555999916047,-20.0
21,chj,f,20,r,2,(-3.163262682197613e-14, -172.20000000000002),27,5,2,yes,x,5,x,0.3282952000008663,1,91,test1,4,0.32839910000620876,-40.0
21,chj,f,20,r,2,(-121.76378772032348, 121.76378772032349),24,-25,14,yes,x,5,x,0.3667452000081539,1,92,test1,4,0.3668430000107037,-70.0
21,chj,f,20,r,2,(-121.76378772032352, -121.76378772032348),26,5,2,yes,x,5,x,0.31229000000166707,1,93,test1,4,0.3127546999894548,-40.0
21,chj,f,20,r,2,(121.76378772032349, 121.76378772032349),22,-5,12,yes,x,5,x,0.6673863000032725,1,94,test1,4,0.667509599996265,-50.0
21,chj,f,20,r,2,(1.0544208940658713e-14, 172.20000000000002),23,-3,11,yes,x,5,x,0.48279019999608863,1,95,test1,4,0.4830305999930715,-48.0
21,chj,f,20,r,2,(-3.163262682197613e-14, -172.20000000000002),27,25,4,yes,x,5,x,0.3688205999933416,1,96,test1,4,0.3690035000036005,-20.0
21,chj,f,20,r,2,(-121.76378772032348, 121.76378772032349),24,-3,11,yes,x,5,x,0.5085261999920476,1,1,test2,4,0.5086257999937516,-48.0
21,chj,f,20,r,2,(-121.76378772032352, -121.76378772032348),26,5,2,no,m,6,m,0.5324460999981966,1,2,test2,4,0.5327996999985771,-48.0
21,chj,f,20,r,2,(-172.20000000000002, 2.1088417881317425e-14),25,-7,13,no,m,6,m,0.5255980999936583,1,3,test2,4,0.5257550999958767,-48.0
21,chj,f,20,r,2,(-121.76378772032348, 121.76378772032349),24,-7,13,yes,x,5,x,0.43024159999913536,1,4,test2,4,0.43033570000261534,-52.0
21,chj,f,20,r,2,(121.76378772032349, 121.76378772032349),22,-3,11,yes,x,5,x,0.6334466000116663,1,5,test2,4,0.6338926000025822,-48.0
21,chj,f,20,r,2,(121.76378772032349, 121.76378772032349),22,25,4,no,m,6,m,0.5406462000100873,1,6,test2,4,0.5407526000053622,-48.0
21,chj,f,20,r,2,(-121.76378772032352, -121.76378772032348),26,25,4,no,m,6,m,0.5486816999909934,1,7,test2,4,0.5493436999968253,-48.0
21,chj,f,20,r,2,(-3.163262682197613e-14, -172.20000000000002),27,5,2,yes,x,5,x,0.47863489999144804,1,8,test2,4,0.47880279998935293,-40.0
21,chj,f,20,r,2,(-121.76378772032348, 121.76378772032349),24,-3,11,no,m,6,m,0.5816202999994857,1,9,test2,4,0.5822902000072645,-40.0
21,chj,f,20,r,2,(121.76378772032349, 121.76378772032349),22,-7,13,no,m,6,m,0.5535930000041844,1,10,test2,4,0.5538242000038736,-40.0
21,chj,f,20,r,2,(-121.76378772032348, 121.76378772032349),24,-5,12,yes,x,5,x,0.4118226999999024,1,11,test2,4,0.411925100008375,-50.0
21,chj,f,20,r,2,(1.0544208940658713e-14, 172.20000000000002),23,25,4,yes,x,5,x,0.39799009999842383,1,12,test2,4,0.3981124000129057,-20.0
21,chj,f,20,r,2,(121.76378772032346, -121.76378772032352),28,25,4,yes,x,5,x,0.39010140000027604,1,13,test2,4,0.39043640000454616,-20.0
21,chj,f,20,r,2,(-121.76378772032352, -121.76378772032348),26,-5,12,yes,x,5,x,0.6119899999903282,1,14,test2,4,0.6121183000068413,-50.0
21,chj,f,20,r,2,(172.20000000000002, 0.0),21,5,2,yes,x,5,x,0.5398204999946756,1,15,test2,4,0.5401462000008905,-40.0
21,chj,f,20,r,2,(121.76378772032349, 121.76378772032349),22,-25,14,no,m,6,m,0.8208929999964312,1,16,test2,4,0.8209934000042267,-40.0
21,chj,f,20,r,2,(121.76378772032346, -121.76378772032352),28,-25,14,yes,x,5,x,0.3601699999999255,1,17,test2,4,0.3602703999931691,-70.0
21,chj,f,20,r,2,(121.76378772032346, -121.76378772032352),28,-5,12,yes,x,5,x,0.4369015000120271,1,18,test2,4,0.4371977999981027,-50.0
21,chj,f,20,r,2,(172.20000000000002, 0.0),21,3,1,yes,x,5,x,0.5903507000039099,1,19,test2,4,0.5904834999964805,-42.0
21,chj,f,20,r,2,(1.0544208940658713e-14, 172.20000000000002),23,-25,14,yes,x,5,x,0.41177810000954196,1,20,test2,4,0.4122521999961464,-70.0
21,chj,f,20,r,2,(-172.20000000000002, 2.1088417881317425e-14),25,-5,12,no,m,6,m,0.7403397000016412,1,21,test2,4,0.7408004999888362,-70.0
21,chj,f,20,r,2,(-121.76378772032348, 121.76378772032349),24,3,1,yes,x,5,x,0.5373375000053784,1,22,test2,4,0.5376916999957757,-42.0
21,chj,f,20,r,2,(121.76378772032346, -121.76378772032352),28,-25,14,yes,x,5,x,0.46169409999856725,1,23,test2,4,0.46185560000594705,-70.0
21,chj,f,20,r,2,(172.20000000000002, 0.0),21,-3,11,yes,x,5,x,0.5815079000021797,1,24,test2,4,0.5816384999925504,-48.0
21,chj,f,20,r,2,(172.20000000000002, 0.0),21,3,1,no,m,6,m,0.7735637000005227,1,25,test2,4,0.7739486999926157,-48.0
21,chj,f,20,r,2,(1.0544208940658713e-14, 172.20000000000002),23,25,4,yes,x,5,x,0.40454040000622626,1,26,test2,4,0.4047151999984635,-20.0
21,chj,f,20,r,2,(-3.163262682197613e-14, -172.20000000000002),27,25,4,no,m,6,m,0.7453979000129038,1,27,test2,4,0.7455449999979464,-20.0
21,chj,f,20,r,2,(172.20000000000002, 0.0),21,7,3,yes,x,5,x,0.6662644000025466,1,28,test2,4,0.6664281999983359,-38.0
21,chj,f,20,r,2,(121.76378772032349, 121.76378772032349),22,-7,13,yes,x,5,x,0.44818859999941196,1,29,test2,4,0.4483489999984158,-52.0
21,chj,f,20,r,2,(172.20000000000002, 0.0),21,3,1,yes,x,5,x,0.5372823999932734,1,30,test2,4,0.5373820999957388,-42.0
21,chj,f,20,r,2,(172.20000000000002, 0.0),21,5,2,no,m,6,m,0.5773459000047296,1,31,test2,4,0.5775848999910522,-42.0
21,chj,f,20,r,2,(121.76378772032349, 121.76378772032349),22,-3,11,yes,x,5,x,0.7672265000001062,1,32,test2,4,0.7675463000050513,-48.0
21,chj,f,20,r,2,(172.20000000000002, 0.0),21,7,3,no,m,6,m,0.6293915999995079,1,33,test2,4,0.6295575999974972,-48.0
21,chj,f,20,r,2,(121.76378772032349, 121.76378772032349),22,5,2,no,m,6,m,0.6018119000073057,1,34,test2,4,0.6019310999981826,-48.0
21,chj,f,20,r,2,(-172.20000000000002, 2.1088417881317425e-14),25,-5,12,yes,x,5,x,0.46885290001227986,1,35,test2,4,0.46914850000757724,-50.0
21,chj,f,20,r,2,(1.0544208940658713e-14, 172.20000000000002),23,-7,13,no,m,6,m,0.5669062000088161,1,36,test2,4,0.5671750000037719,-50.0
21,chj,f,20,r,2,(-121.76378772032348, 121.76378772032349),24,-5,12,no,m,6,m,0.6246326000109548,1,37,test2,4,0.6250558000028832,-50.0
21,chj,f,20,r,2,(121.76378772032346, -121.76378772032352),28,-3,11,yes,x,5,x,0.6280356999923242,1,38,test2,4,0.6288866999966558,-48.0
21,chj,f,20,r,2,(121.76378772032349, 121.76378772032349),22,7,3,yes,x,5,x,0.4332797999959439,1,39,test2,4,0.4336930999998003,-38.0
21,chj,f,20,r,2,(-3.163262682197613e-14, -172.20000000000002),27,7,3,yes,x,5,x,0.42292230000020936,1,40,test2,4,0.423139499995159,-38.0
21,chj,f,20,r,2,(121.76378772032346, -121.76378772032352),28,7,3,yes,x,5,x,0.4056859000120312,1,41,test2,4,0.40578570000070613,-38.0
21,chj,f,20,r,2,(-121.76378772032348, 121.76378772032349),24,25,4,yes,x,5,x,0.3572402999998303,1,42,test2,4,0.3574776000023121,-20.0
21,chj,f,20,r,2,(-121.76378772032352, -121.76378772032348),26,3,1,yes,x,5,x,0.5450352000043495,1,43,test2,4,0.5452562999998918,-42.0
21,chj,f,20,r,2,(1.0544208940658713e-14, 172.20000000000002),23,5,2,yes,x,5,x,0.39113640000869054,1,44,test2,4,0.3913133000023663,-40.0
21,chj,f,20,r,2,(-121.76378772032348, 121.76378772032349),24,-3,11,yes,x,5,x,0.5498621000006096,1,45,test2,4,0.549965099999099,-48.0
21,chj,f,20,r,2,(-3.163262682197613e-14, -172.20000000000002),27,7,3,yes,x,5,x,0.43829779999214225,1,46,test2,4,0.43840369999816176,-38.0
21,chj,f,20,r,2,(1.0544208940658713e-14, 172.20000000000002),23,-5,12,no,m,6,m,0.7423869000049308,1,47,test2,4,0.7428992000059225,-38.0
21,chj,f,20,r,2,(-172.20000000000002, 2.1088417881317425e-14),25,7,3,no,m,6,m,0.5541645999910543,1,48,test2,4,0.5543027999956394,-38.0
21,chj,f,20,r,2,(-121.76378772032352, -121.76378772032348),26,25,4,yes,x,5,x,0.40991000000212807,1,49,test2,4,0.4100440000038361,-20.0
21,chj,f,20,r,2,(121.76378772032346, -121.76378772032352),28,7,3,no,m,6,m,0.583189199998742,1,50,test2,4,0.583307099994272,-20.0
21,chj,f,20,r,2,(1.0544208940658713e-14, 172.20000000000002),23,-3,11,no,m,6,m,0.5816265999892494,1,51,test2,4,0.5817448000016157,-20.0
21,chj,f,20,r,2,(121.76378772032346, -121.76378772032352),28,25,4,yes,x,5,x,0.531281499992474,1,52,test2,4,0.531386200003908,-20.0
21,chj,f,20,r,2,(-121.76378772032352, -121.76378772032348),26,-5,12,yes,x,5,m,0.5423598000052152,0,53,test2,4,0.5424865999957547,-50.0
21,chj,f,20,r,2,(-3.163262682197613e-14, -172.20000000000002),27,-25,14,yes,x,5,x,0.49178440000105184,1,54,test2,4,0.4920246999972733,-70.0
21,chj,f,20,r,2,(-3.163262682197613e-14, -172.20000000000002),27,-5,12,yes,x,5,x,0.621967200000654,1,55,test2,4,0.6227510999888182,-50.0
21,chj,f,20,r,2,(172.20000000000002, 0.0),21,25,4,no,m,6,m,0.6276018999924418,1,56,test2,4,0.6277054000092903,-50.0
21,chj,f,20,r,2,(1.0544208940658713e-14, 172.20000000000002),23,7,3,no,m,6,m,0.7929002000018954,1,57,test2,4,0.7932686000131071,-50.0
21,chj,f,20,r,2,(121.76378772032349, 121.76378772032349),22,5,2,yes,x,5,x,0.6964934999996331,1,58,test2,4,0.6969883999990998,-40.0
21,chj,f,20,r,2,(1.0544208940658713e-14, 172.20000000000002),23,-25,14,no,m,6,m,0.6899675000022398,1,59,test2,4,0.6900631000025896,-40.0
21,chj,f,20,r,2,(-121.76378772032352, -121.76378772032348),26,-3,11,no,m,6,m,0.9498371000081534,1,60,test2,4,0.9499677999992855,-40.0
21,chj,f,20,r,2,(172.20000000000002, 0.0),21,-25,14,no,m,6,m,0.8069759999925736,1,61,test2,4,0.807080099999439,-40.0
21,chj,f,20,r,2,(1.0544208940658713e-14, 172.20000000000002),23,-7,13,yes,x,5,x,0.6745215999981156,1,62,test2,4,0.6749173999996856,-52.0
21,chj,f,20,r,2,(121.76378772032346, -121.76378772032352),28,3,1,yes,x,5,x,0.7810052999993786,1,63,test2,4,0.7811696999997366,-42.0
21,chj,f,20,r,2,(-121.76378772032348, 121.76378772032349),24,-7,13,no,m,6,m,0.6550482000020565,1,64,test2,4,0.6557158000068739,-42.0
21,chj,f,20,r,2,(172.20000000000002, 0.0),21,-7,13,yes,x,5,x,0.5322286000009626,1,65,test2,4,0.5323811000125716,-52.0
21,chj,f,20,r,2,(-121.76378772032352, -121.76378772032348),26,7,3,yes,x,5,x,0.441983299999265,1,66,test2,4,0.44225739999092184,-38.0
21,chj,f,20,r,2,(172.20000000000002, 0.0),21,-7,13,yes,x,5,x,0.8234331000130624,1,67,test2,4,0.8235642999934498,-52.0
21,chj,f,20,r,2,(1.0544208940658713e-14, 172.20000000000002),23,3,1,yes,x,5,x,0.7726417999947444,1,68,test2,4,0.7727413999964483,-42.0
21,chj,f,20,r,2,(-172.20000000000002, 2.1088417881317425e-14),25,-25,14,no,m,6,m,1.0223790000018198,1,69,test2,4,1.0224791999935405,-42.0
21,chj,f,20,r,2,(-3.163262682197613e-14, -172.20000000000002),27,3,1,no,m,6,m,0.8820618000027025,1,70,test2,4,0.8821669000026304,-42.0
21,chj,f,20,r,2,(121.76378772032349, 121.76378772032349),22,-7,13,yes,x,5,x,0.8229367000021739,1,71,test2,4,0.823313800006872,-52.0
21,chj,f,20,r,2,(121.76378772032346, -121.76378772032352),28,7,3,yes,x,5,x,0.5013140000082785,1,72,test2,4,0.5014162000006763,-38.0
21,chj,f,20,r,2,(-121.76378772032352, -121.76378772032348),26,5,2,yes,x,5,x,0.6342962999915471,1,73,test2,4,0.6349221999989823,-40.0
21,chj,f,20,r,2,(-172.20000000000002, 2.1088417881317425e-14),25,-3,11,yes,x,5,x,0.83504739998898,1,74,test2,4,0.8353476999909617,-48.0
21,chj,f,20,r,2,(121.76378772032349, 121.76378772032349),22,-5,12,no,m,6,m,0.6764983000030043,1,75,test2,4,0.6767223999922862,-48.0
21,chj,f,20,r,2,(-172.20000000000002, 2.1088417881317425e-14),25,-3,11,yes,x,5,x,0.5415565000002971,1,76,test2,4,0.542072400014149,-48.0
21,chj,f,20,r,2,(172.20000000000002, 0.0),21,-5,12,yes,x,5,m,0.5036334999895189,0,77,test2,4,0.5037948000099277,-50.0
