subj_id,subj_name,subj_gender ,subj_age,subj_handedness,subj_runNum,tar_l_x,tar_l_y,loc_code,tar_ori,tar_code,tar_pre ,cor_response,pre_code,subj_response,RT,correct,trial_num,type,bloc_num,dur, real_tar
21,chj,f,20,r,1,(1.0544208940658713e-14, 172.20000000000002),23,5,2,no,m,6,None,None,0,1,prac,0,1.9801019999995333,0.0
21,chj,f,20,r,1,(121.76378772032346, -121.76378772032352),28,5,2,yes,x,5,x,1.5221072000003915,1,2,prac,0,1.5222701000002417,-40.0
21,chj,f,20,r,1,(-172.20000000000002, 2.1088417881317425e-14),25,5,2,no,m,6,None,None,0,3,prac,0,1.980100400000083,-40.0
21,chj,f,20,r,1,(1.0544208940658713e-14, 172.20000000000002),23,-5,12,yes,x,5,x,0.8708896999996796,1,4,prac,0,0.8710558000002493,-50.0
21,chj,f,20,r,1,(1.0544208940658713e-14, 172.20000000000002),23,-25,14,no,m,6,m,0.6923499000004085,1,5,prac,0,0.6924496000010549,-50.0
21,chj,f,20,r,1,(121.76378772032346, -121.76378772032352),28,7,3,no,m,6,m,1.1488625000001775,1,6,prac,0,1.1490754000005836,-50.0
21,chj,f,20,r,1,(-3.163262682197613e-14, -172.20000000000002),27,5,2,no,m,6,m,1.0163923000000068,1,7,prac,0,1.016552799999772,-50.0
21,chj,f,20,r,1,(-172.20000000000002, 2.1088417881317425e-14),25,7,3,no,m,6,m,1.3501728999999614,1,8,prac,0,1.3505258000004687,-50.0
21,chj,f,20,r,1,(-172.20000000000002, 2.1088417881317425e-14),25,-7,13,no,m,6,m,1.2411733999997523,1,9,prac,0,1.2415034000005107,-50.0
21,chj,f,20,r,1,(121.76378772032349, 121.76378772032349),22,-25,14,yes,x,5,x,0.5068578999998863,1,10,prac,0,0.5069567999998981,-70.0
21,chj,f,20,r,1,(121.76378772032346, -121.76378772032352),28,-7,13,no,m,6,m,0.7932592000015575,1,11,prac,0,0.7934952000014164,-70.0
21,chj,f,20,r,1,(121.76378772032349, 121.76378772032349),22,25,4,yes,x,5,x,0.45319000000017695,1,12,prac,0,0.45339699999931327,-20.0
21,chj,f,20,r,1,(-121.76378772032348, 121.76378772032349),24,7,3,yes,x,5,x,0.6003973000006226,1,13,prac,0,0.600961100000859,-38.0
21,chj,f,20,r,1,(121.76378772032346, -121.76378772032352),28,5,2,yes,x,5,x,0.8045677999998588,1,14,prac,0,0.8047897999986162,-40.0
21,chj,f,20,r,1,(121.76378772032346, -121.76378772032352),28,7,3,yes,x,5,x,0.6626691999990726,1,15,prac,0,0.6627673999992112,-38.0
21,chj,f,20,r,1,(172.20000000000002, 0.0),21,-3,11,yes,x,5,x,1.4468691000001854,1,16,prac,0,1.4469860999997763,-48.0
21,chj,f,20,r,1,(-121.76378772032352, -121.76378772032348),26,25,4,yes,x,5,x,0.6586093000005349,1,17,prac,0,0.6587557999991986,-20.0
21,chj,f,20,r,1,(-121.76378772032352, -121.76378772032348),26,-5,12,yes,x,5,x,0.9261659000003419,1,18,prac,0,0.9265807000010682,-50.0
21,chj,f,20,r,1,(-172.20000000000002, 2.1088417881317425e-14),25,-3,11,yes,x,5,x,1.2167013000016595,1,19,prac,0,1.2168163000005734,-48.0
21,chj,f,20,r,1,(121.76378772032349, 121.76378772032349),22,7,3,no,m,6,m,1.0766017000005377,1,20,prac,0,1.076843299999382,-48.0
21,chj,f,20,r,1,(121.76378772032346, -121.76378772032352),28,7,3,yes,x,5,x,0.6490282000013394,1,1,test1,1,0.649579700000686,-38.0
21,chj,f,20,r,1,(121.76378772032349, 121.76378772032349),22,7,3,yes,x,5,x,0.6216526999996859,1,2,test1,1,0.6217543999991904,-38.0
21,chj,f,20,r,1,(1.0544208940658713e-14, 172.20000000000002),23,5,2,yes,x,5,x,0.8491927000013675,1,3,test1,1,0.849423099998603,-40.0
21,chj,f,20,r,1,(1.0544208940658713e-14, 172.20000000000002),23,7,3,yes,x,5,x,0.5557428000010987,1,4,test1,1,0.5560564999996132,-38.0
21,chj,f,20,r,1,(1.0544208940658713e-14, 172.20000000000002),23,7,3,yes,x,5,x,0.4576766000009229,1,5,test1,1,0.45784829999865906,-38.0
21,chj,f,20,r,1,(-121.76378772032348, 121.76378772032349),24,7,3,yes,x,5,x,0.5835516999995889,1,6,test1,1,0.5840403999991395,-38.0
21,chj,f,20,r,1,(172.20000000000002, 0.0),21,3,1,yes,x,5,x,0.7865387000001647,1,7,test1,1,0.7866340999989916,-42.0
21,chj,f,20,r,1,(121.76378772032346, -121.76378772032352),28,-3,11,yes,x,5,x,1.1936852999988332,1,8,test1,1,1.1937902000008762,-48.0
21,chj,f,20,r,1,(-3.163262682197613e-14, -172.20000000000002),27,-7,13,no,m,6,m,1.1425402999993821,1,9,test1,1,1.143074899999192,-48.0
21,chj,f,20,r,1,(172.20000000000002, 0.0),21,-5,12,yes,x,5,x,1.1646140000011656,1,10,test1,1,1.1649859999997716,-50.0
21,chj,f,20,r,1,(121.76378772032346, -121.76378772032352),28,5,2,no,m,6,m,0.8672012000006362,1,11,test1,1,0.8679671000008966,-50.0
21,chj,f,20,r,1,(-3.163262682197613e-14, -172.20000000000002),27,25,4,yes,x,5,x,0.5543120000002091,1,12,test1,1,0.5544401999995898,-20.0
21,chj,f,20,r,1,(121.76378772032346, -121.76378772032352),28,-25,14,no,m,6,m,0.8915575000009994,1,13,test1,1,0.892047299999831,-20.0
21,chj,f,20,r,1,(121.76378772032346, -121.76378772032352),28,-3,11,no,m,6,m,1.0597328999992897,1,14,test1,1,1.0599685999986832,-20.0
21,chj,f,20,r,1,(121.76378772032349, 121.76378772032349),22,-5,12,yes,x,5,x,0.6058807000008528,1,15,test1,1,0.6062493000008544,-50.0
21,chj,f,20,r,1,(121.76378772032346, -121.76378772032352),28,-7,13,yes,x,5,x,0.5973833000007289,1,16,test1,1,0.5980414999994537,-52.0
21,chj,f,20,r,1,(-121.76378772032348, 121.76378772032349),24,3,1,no,m,6,m,0.9051601999999548,1,17,test1,1,0.9055054999989807,-52.0
21,chj,f,20,r,1,(121.76378772032346, -121.76378772032352),28,7,3,yes,x,5,x,0.6099723999996058,1,18,test1,1,0.6101308999986941,-38.0
21,chj,f,20,r,1,(172.20000000000002, 0.0),21,25,4,yes,x,5,x,0.5288154999998369,1,19,test1,1,0.5289434000005713,-20.0
21,chj,f,20,r,1,(-121.76378772032348, 121.76378772032349),24,3,1,yes,x,5,m,0.9697811000005458,0,20,test1,1,0.9699918999995134,-42.0
21,chj,f,20,r,1,(121.76378772032349, 121.76378772032349),22,-3,11,yes,x,5,x,0.8978601999988314,1,21,test1,1,0.8985372000006464,-48.0
21,chj,f,20,r,1,(-172.20000000000002, 2.1088417881317425e-14),25,-7,13,yes,x,5,x,0.7002578999999969,1,22,test1,1,0.7003858000007313,-52.0
21,chj,f,20,r,1,(-172.20000000000002, 2.1088417881317425e-14),25,3,1,no,m,6,m,1.4148949000009452,1,23,test1,1,1.4150539999991452,-52.0
21,chj,f,20,r,1,(1.0544208940658713e-14, 172.20000000000002),23,-5,12,yes,x,5,x,0.571482899998955,1,24,test1,1,0.57164290000037,-50.0
21,chj,f,20,r,1,(121.76378772032349, 121.76378772032349),22,3,1,yes,x,5,x,1.1356687000006787,1,25,test1,1,1.1358493999996426,-42.0
21,chj,f,20,r,1,(-121.76378772032352, -121.76378772032348),26,-25,14,no,m,6,m,1.318318100000397,1,26,test1,1,1.3185505000001285,-42.0
21,chj,f,20,r,1,(121.76378772032349, 121.76378772032349),22,3,1,yes,x,5,x,1.2227015000007668,1,27,test1,1,1.2228037000004406,-42.0
21,chj,f,20,r,1,(1.0544208940658713e-14, 172.20000000000002),23,-25,14,yes,x,5,x,0.5907689000014216,1,28,test1,1,0.590872799999488,-70.0
21,chj,f,20,r,1,(-121.76378772032352, -121.76378772032348),26,3,1,yes,x,5,m,1.4266809000000649,0,29,test1,1,1.4268109000004188,-42.0
21,chj,f,20,r,1,(-172.20000000000002, 2.1088417881317425e-14),25,25,4,yes,x,5,x,0.7829095000015514,1,30,test1,1,0.7830512000000454,-20.0
21,chj,f,20,r,1,(-121.76378772032348, 121.76378772032349),24,-7,13,no,m,6,m,1.3815467999993416,1,31,test1,1,1.3817839000003005,-20.0
21,chj,f,20,r,1,(172.20000000000002, 0.0),21,3,1,yes,x,5,x,1.3557448999999906,1,32,test1,1,1.3558466999984375,-42.0
21,chj,f,20,r,1,(-3.163262682197613e-14, -172.20000000000002),27,5,2,yes,x,5,x,0.7012713999993139,1,33,test1,1,0.7017593000000488,-40.0
21,chj,f,20,r,1,(-121.76378772032352, -121.76378772032348),26,25,4,yes,x,5,x,0.5113583000002109,1,34,test1,1,0.5116369999996095,-20.0
21,chj,f,20,r,1,(1.0544208940658713e-14, 172.20000000000002),23,-5,12,yes,x,5,x,0.6816295999997237,1,35,test1,1,0.6817439000005834,-50.0
21,chj,f,20,r,1,(-121.76378772032348, 121.76378772032349),24,25,4,yes,x,5,x,0.5270616999987396,1,36,test1,1,0.527379999999539,-20.0
21,chj,f,20,r,1,(-121.76378772032348, 121.76378772032349),24,-25,14,yes,x,5,x,0.6831390999996074,1,37,test1,1,0.6836183999985224,-70.0
21,chj,f,20,r,1,(1.0544208940658713e-14, 172.20000000000002),23,25,4,no,m,6,m,1.7409472999988793,1,38,test1,1,1.7410861000007571,-70.0
21,chj,f,20,r,1,(-3.163262682197613e-14, -172.20000000000002),27,25,4,no,m,6,m,1.8246135999997932,1,39,test1,1,1.8248559000003297,-70.0
21,chj,f,20,r,1,(-121.76378772032348, 121.76378772032349),24,25,4,yes,x,5,x,0.5348503000004712,1,40,test1,1,0.5351380000010977,-20.0
21,chj,f,20,r,1,(172.20000000000002, 0.0),21,25,4,no,m,6,m,1.3840259999997215,1,41,test1,1,1.3842600000007224,-20.0
21,chj,f,20,r,1,(121.76378772032346, -121.76378772032352),28,3,1,yes,x,5,x,1.1790309000007255,1,42,test1,1,1.1802482000002783,-42.0
21,chj,f,20,r,1,(-3.163262682197613e-14, -172.20000000000002),27,3,1,yes,x,5,x,0.8457156999993458,1,43,test1,1,0.8458190000001196,-42.0
21,chj,f,20,r,1,(-121.76378772032352, -121.76378772032348),26,-7,13,yes,x,5,x,0.827460799999244,1,44,test1,1,0.8277035999999498,-52.0
21,chj,f,20,r,1,(-3.163262682197613e-14, -172.20000000000002),27,-7,13,yes,x,5,x,0.9977314999996452,1,45,test1,1,0.9980852999997296,-52.0
21,chj,f,20,r,1,(-121.76378772032352, -121.76378772032348),26,7,3,yes,x,5,x,0.8410297999998875,1,46,test1,1,0.8411274999998568,-38.0
21,chj,f,20,r,1,(-121.76378772032352, -121.76378772032348),26,-7,13,no,m,6,m,1.8575184000001173,1,47,test1,1,1.8576436999992438,-38.0
21,chj,f,20,r,1,(172.20000000000002, 0.0),21,-5,12,yes,x,5,x,0.8814770999997563,1,48,test1,1,0.8819247999999789,-50.0
21,chj,f,20,r,1,(-172.20000000000002, 2.1088417881317425e-14),25,-3,11,no,m,6,m,1.6631742999998096,1,49,test1,1,1.6636637000010523,-50.0
21,chj,f,20,r,1,(-121.76378772032352, -121.76378772032348),26,5,2,yes,x,5,x,0.7480918000001111,1,50,test1,1,0.7483272999998007,-40.0
21,chj,f,20,r,1,(-121.76378772032348, 121.76378772032349),24,5,2,yes,x,5,x,1.0555329999988317,1,51,test1,1,1.056116199999451,-40.0
21,chj,f,20,r,1,(121.76378772032349, 121.76378772032349),22,25,4,yes,x,5,x,0.6829010999990714,1,52,test1,1,0.6830014000006486,-20.0
21,chj,f,20,r,1,(-3.163262682197613e-14, -172.20000000000002),27,7,3,no,m,6,m,1.143788899998981,1,53,test1,1,1.1441073999994842,-20.0
21,chj,f,20,r,1,(1.0544208940658713e-14, 172.20000000000002),23,-7,13,yes,x,5,x,0.9666450000004261,1,54,test1,1,0.9670452999998815,-52.0
21,chj,f,20,r,1,(-172.20000000000002, 2.1088417881317425e-14),25,5,2,yes,x,5,x,0.9383648999992147,1,55,test1,1,0.9388471000002028,-40.0
21,chj,f,20,r,1,(1.0544208940658713e-14, 172.20000000000002),23,25,4,yes,x,5,x,0.6270223000010446,1,56,test1,1,0.627147100000002,-20.0
21,chj,f,20,r,1,(172.20000000000002, 0.0),21,3,1,no,m,6,m,1.0027915999999095,1,57,test1,1,1.0030030000016268,-20.0
21,chj,f,20,r,1,(-121.76378772032348, 121.76378772032349),24,-3,11,yes,x,5,x,1.2946129000010842,1,58,test1,1,1.2948169999999664,-48.0
21,chj,f,20,r,1,(-121.76378772032352, -121.76378772032348),26,3,1,yes,x,5,None,None,0,59,test1,1,1.9800938999997015,-42.0
21,chj,f,20,r,1,(-172.20000000000002, 2.1088417881317425e-14),25,-3,11,yes,x,5,None,None,0,60,test1,1,1.9800880000002508,-48.0
21,chj,f,20,r,1,(172.20000000000002, 0.0),21,-25,14,yes,x,5,x,0.6232657000000472,1,61,test1,1,0.6234096999996837,-70.0
21,chj,f,20,r,1,(172.20000000000002, 0.0),21,-7,13,no,m,6,m,1.2373728000002302,1,62,test1,1,1.2374859999999899,-70.0
21,chj,f,20,r,1,(121.76378772032346, -121.76378772032352),28,25,4,no,m,6,m,1.289521099999547,1,63,test1,1,1.290029499999946,-70.0
21,chj,f,20,r,1,(121.76378772032349, 121.76378772032349),22,-25,14,no,m,6,m,1.2425822999994125,1,64,test1,1,1.2426825999991706,-70.0
21,chj,f,20,r,1,(172.20000000000002, 0.0),21,-5,12,no,m,6,m,1.1796723999996175,1,65,test1,1,1.179881199999727,-70.0
21,chj,f,20,r,1,(1.0544208940658713e-14, 172.20000000000002),23,25,4,yes,x,5,x,0.71582429999944,1,66,test1,1,0.7159855999998399,-20.0
21,chj,f,20,r,1,(-121.76378772032348, 121.76378772032349),24,-5,12,no,m,6,m,0.9753502999992634,1,67,test1,1,0.975567299999966,-20.0
21,chj,f,20,r,1,(121.76378772032346, -121.76378772032352),28,5,2,yes,x,5,x,0.6586984999994456,1,68,test1,1,0.6589300000014191,-40.0
21,chj,f,20,r,1,(121.76378772032346, -121.76378772032352),28,25,4,yes,x,5,x,0.6082093000004534,1,69,test1,1,0.6083111999996618,-20.0
21,chj,f,20,r,1,(121.76378772032349, 121.76378772032349),22,5,2,yes,x,5,x,0.8040548999997554,1,70,test1,1,0.8041565999992599,-40.0
21,chj,f,20,r,1,(-121.76378772032352, -121.76378772032348),26,-3,11,no,m,6,m,1.6561829000002035,1,71,test1,1,1.6562813999989885,-40.0
21,chj,f,20,r,1,(-121.76378772032352, -121.76378772032348),26,-25,14,yes,x,5,x,0.9921553000003769,1,72,test1,1,0.9923889000001509,-70.0
21,chj,f,20,r,1,(-172.20000000000002, 2.1088417881317425e-14),25,-5,12,yes,x,5,x,0.7894901999989088,1,73,test1,1,0.7897288000003755,-50.0
21,chj,f,20,r,1,(121.76378772032349, 121.76378772032349),22,25,4,no,m,6,m,1.0622526000006474,1,74,test1,1,1.0623651999994763,-50.0
21,chj,f,20,r,1,(121.76378772032349, 121.76378772032349),22,-25,14,yes,x,5,x,0.5494646000006469,1,75,test1,1,0.5496827000006306,-70.0
21,chj,f,20,r,1,(172.20000000000002, 0.0),21,-7,13,yes,x,5,x,0.6173979999985022,1,76,test1,1,0.617518500001097,-52.0
21,chj,f,20,r,1,(-121.76378772032352, -121.76378772032348),26,-5,12,yes,x,5,x,0.5956871999987925,1,77,test1,1,0.5958031999998639,-50.0
21,chj,f,20,r,1,(-121.76378772032352, -121.76378772032348),26,-5,12,yes,x,5,x,0.5699767999994947,1,78,test1,1,0.5700720000004367,-50.0
21,chj,f,20,r,1,(-121.76378772032352, -121.76378772032348),26,7,3,no,m,6,m,0.9930982000005315,1,79,test1,1,0.9935597000003327,-50.0
21,chj,f,20,r,1,(-172.20000000000002, 2.1088417881317425e-14),25,-3,11,yes,x,5,x,1.4439306000003853,1,80,test1,1,1.4440456000011181,-48.0
21,chj,f,20,r,1,(-3.163262682197613e-14, -172.20000000000002),27,7,3,yes,x,5,x,0.9089502999995602,1,81,test1,1,0.9091525000003458,-38.0
21,chj,f,20,r,1,(1.0544208940658713e-14, 172.20000000000002),23,3,1,no,m,6,m,1.2336787999993248,1,82,test1,1,1.2341034000000946,-38.0
21,chj,f,20,r,1,(172.20000000000002, 0.0),21,-3,11,no,m,6,m,1.0340632000006735,1,83,test1,1,1.0345060999989073,-38.0
21,chj,f,20,r,1,(-121.76378772032352, -121.76378772032348),26,5,2,no,m,6,m,0.9566472999995312,1,84,test1,1,0.9567504000006011,-38.0
21,chj,f,20,r,1,(1.0544208940658713e-14, 172.20000000000002),23,5,2,yes,x,5,x,0.9941889000001538,1,85,test1,1,0.9942903999999544,-40.0
21,chj,f,20,r,1,(-121.76378772032348, 121.76378772032349),24,25,4,no,m,6,m,1.1069005999997898,1,86,test1,1,1.1073778999998467,-40.0
21,chj,f,20,r,1,(121.76378772032346, -121.76378772032352),28,25,4,yes,x,5,x,0.9030686999994941,1,87,test1,1,0.9031715999990411,-20.0
21,chj,f,20,r,1,(-3.163262682197613e-14, -172.20000000000002),27,-3,11,no,m,6,m,1.1543277000000671,1,88,test1,1,1.154710900000282,-20.0
21,chj,f,20,r,1,(-172.20000000000002, 2.1088417881317425e-14),25,7,3,yes,x,5,x,0.7765476000004128,1,89,test1,1,0.7767901999995956,-38.0
21,chj,f,20,r,1,(-172.20000000000002, 2.1088417881317425e-14),25,-5,12,yes,x,5,x,0.88380639999923,1,90,test1,1,0.883979600001112,-50.0
21,chj,f,20,r,1,(1.0544208940658713e-14, 172.20000000000002),23,3,1,yes,x,5,x,1.1065058000003773,1,91,test1,1,1.1066104999990785,-42.0
21,chj,f,20,r,1,(121.76378772032346, -121.76378772032352),28,7,3,no,m,6,m,1.3578050999985862,1,92,test1,1,1.3583369000007224,-42.0
21,chj,f,20,r,1,(121.76378772032349, 121.76378772032349),22,-5,12,no,m,6,x,1.4223271000009845,0,93,test1,1,1.4225084000008792,-42.0
21,chj,f,20,r,1,(172.20000000000002, 0.0),21,7,3,yes,x,5,None,None,0,94,test1,1,1.9802006999998412,-38.0
21,chj,f,20,r,1,(-172.20000000000002, 2.1088417881317425e-14),25,7,3,no,m,6,m,1.4926013000003877,1,95,test1,1,1.4927019000006112,-38.0
21,chj,f,20,r,1,(121.76378772032349, 121.76378772032349),22,3,1,no,m,6,m,0.9560313999991195,1,96,test1,1,0.9561788000009983,-38.0
21,chj,f,20,r,1,(-121.76378772032348, 121.76378772032349),24,-5,12,yes,x,5,m,0.6461006999998062,0,1,test2,1,0.6463920999995025,-50.0
21,chj,f,20,r,1,(121.76378772032349, 121.76378772032349),22,7,3,no,m,6,m,1.5646856000003027,1,2,test2,1,1.565202899999349,-50.0
21,chj,f,20,r,1,(172.20000000000002, 0.0),21,7,3,no,m,6,m,1.1306690000001254,1,3,test2,1,1.1307849000004353,-50.0
21,chj,f,20,r,1,(-172.20000000000002, 2.1088417881317425e-14),25,25,4,no,m,6,m,1.0913596999998845,1,4,test2,1,1.0917408000004798,-50.0
21,chj,f,20,r,1,(-121.76378772032352, -121.76378772032348),26,-25,14,yes,x,5,x,1.4483294000001479,1,5,test2,1,1.448622300000352,-70.0
21,chj,f,20,r,1,(-121.76378772032348, 121.76378772032349),24,-3,11,yes,x,5,x,0.994830899999215,1,6,test2,1,0.9955279000005248,-48.0
21,chj,f,20,r,1,(121.76378772032346, -121.76378772032352),28,-7,13,no,m,6,m,1.1570129000010638,1,7,test2,1,1.1571168000009493,-48.0
21,chj,f,20,r,1,(121.76378772032349, 121.76378772032349),22,-3,11,yes,x,5,x,1.497311199998876,1,8,test2,1,1.4976184999995894,-48.0
21,chj,f,20,r,1,(-172.20000000000002, 2.1088417881317425e-14),25,-25,14,no,m,6,m,1.1609113999984402,1,9,test2,1,1.1612409999997908,-48.0
21,chj,f,20,r,1,(-3.163262682197613e-14, -172.20000000000002),27,5,2,yes,x,5,x,0.650984599998992,1,10,test2,1,0.6511415999993915,-40.0
21,chj,f,20,r,1,(121.76378772032346, -121.76378772032352),28,3,1,no,m,6,m,1.2631392000002961,1,11,test2,1,1.263408900000286,-40.0
21,chj,f,20,r,1,(121.76378772032346, -121.76378772032352),28,-5,12,yes,x,5,x,0.9847241999996186,1,12,test2,1,0.9848253999989538,-50.0
21,chj,f,20,r,1,(172.20000000000002, 0.0),21,7,3,yes,x,5,x,0.6216780999984621,1,13,test2,1,0.6219127000003937,-38.0
21,chj,f,20,r,1,(-172.20000000000002, 2.1088417881317425e-14),25,-7,13,yes,x,5,x,0.4707543999993504,1,14,test2,1,0.47084800000084215,-52.0
21,chj,f,20,r,1,(1.0544208940658713e-14, 172.20000000000002),23,-7,13,yes,x,5,x,0.5692048000000796,1,15,test2,1,0.5693069999997533,-52.0
21,chj,f,20,r,1,(1.0544208940658713e-14, 172.20000000000002),23,-3,11,yes,x,5,x,0.5570023000000219,1,16,test2,1,0.5570955999992293,-48.0
21,chj,f,20,r,1,(1.0544208940658713e-14, 172.20000000000002),23,5,2,no,m,6,m,0.9410482999992382,1,17,test2,1,0.941145000000688,-48.0
21,chj,f,20,r,1,(-121.76378772032348, 121.76378772032349),24,-3,11,no,m,6,m,0.9435152000005473,1,18,test2,1,0.9439922000001388,-48.0
21,chj,f,20,r,1,(-3.163262682197613e-14, -172.20000000000002),27,5,2,no,m,6,m,0.7962116999988211,1,19,test2,1,0.7964774000010948,-48.0
21,chj,f,20,r,1,(121.76378772032349, 121.76378772032349),22,5,2,no,m,6,m,1.3532037000004493,1,20,test2,1,1.3534356000000116,-48.0
21,chj,f,20,r,1,(-3.163262682197613e-14, -172.20000000000002),27,-5,12,yes,x,5,x,0.6382845999996789,1,21,test2,1,0.6383885000013834,-50.0
21,chj,f,20,r,1,(-121.76378772032352, -121.76378772032348),26,-3,11,yes,x,5,x,1.2417891000004602,1,22,test2,1,1.241999300000316,-48.0
21,chj,f,20,r,1,(121.76378772032346, -121.76378772032352),28,-25,14,yes,x,5,x,0.5821641000002273,1,23,test2,1,0.5822955000003276,-70.0
21,chj,f,20,r,1,(-172.20000000000002, 2.1088417881317425e-14),25,7,3,yes,x,5,x,0.5570930000012595,1,24,test2,1,0.5577873000002,-38.0
21,chj,f,20,r,1,(-121.76378772032348, 121.76378772032349),24,7,3,no,m,6,m,0.8858340999995562,1,25,test2,1,0.8859846999985166,-38.0
21,chj,f,20,r,1,(121.76378772032349, 121.76378772032349),22,-25,14,yes,x,5,x,0.5239169999986188,1,26,test2,1,0.5241117000005033,-70.0
21,chj,f,20,r,1,(-3.163262682197613e-14, -172.20000000000002),27,3,1,no,m,6,m,0.7812279999998282,1,27,test2,1,0.7813986999990448,-70.0
21,chj,f,20,r,1,(-172.20000000000002, 2.1088417881317425e-14),25,-5,12,no,m,6,m,0.898622400000022,1,28,test2,1,0.8988300999990315,-70.0
21,chj,f,20,r,1,(121.76378772032346, -121.76378772032352),28,-25,14,yes,x,5,x,0.6130008000000089,1,29,test2,1,0.6131183999987115,-70.0
21,chj,f,20,r,1,(-121.76378772032352, -121.76378772032348),26,3,1,no,m,6,m,0.8499810000012076,1,30,test2,1,0.8504682000002504,-70.0
21,chj,f,20,r,1,(1.0544208940658713e-14, 172.20000000000002),23,-7,13,no,m,6,m,0.9686824000000342,1,31,test2,1,0.9691268999995373,-70.0
21,chj,f,20,r,1,(-121.76378772032352, -121.76378772032348),26,-3,11,yes,x,5,x,0.7892669000011665,1,32,test2,1,0.7894307999995362,-48.0
21,chj,f,20,r,1,(-3.163262682197613e-14, -172.20000000000002),27,-3,11,yes,x,5,x,0.6790344999990339,1,33,test2,1,0.6791341999996803,-48.0
21,chj,f,20,r,1,(121.76378772032349, 121.76378772032349),22,25,4,yes,x,5,x,0.499504600000364,1,34,test2,1,0.4996523000008892,-20.0
21,chj,f,20,r,1,(121.76378772032349, 121.76378772032349),22,-3,11,no,m,6,m,0.7817949999989651,1,35,test2,1,0.7824330999992526,-20.0
21,chj,f,20,r,1,(-172.20000000000002, 2.1088417881317425e-14),25,-25,14,yes,x,5,x,0.5830479000014748,1,36,test2,1,0.5831887999993342,-70.0
21,chj,f,20,r,1,(172.20000000000002, 0.0),21,5,2,yes,x,5,x,0.6007690000005823,1,37,test2,1,0.6014496999996481,-40.0
21,chj,f,20,r,1,(-172.20000000000002, 2.1088417881317425e-14),25,3,1,yes,x,5,x,0.6851509000007354,1,38,test2,1,0.6852798999989318,-42.0
21,chj,f,20,r,1,(1.0544208940658713e-14, 172.20000000000002),23,-25,14,yes,x,5,x,0.572859599998992,1,39,test2,1,0.5729594000003999,-70.0
21,chj,f,20,r,1,(-121.76378772032348, 121.76378772032349),24,-25,14,no,m,6,m,1.2905639999989944,1,40,test2,1,1.2909018999998807,-70.0
21,chj,f,20,r,1,(-3.163262682197613e-14, -172.20000000000002),27,-3,11,yes,x,5,x,1.0158717000012984,1,41,test2,1,1.0160802000009426,-48.0
21,chj,f,20,r,1,(-3.163262682197613e-14, -172.20000000000002),27,-5,12,yes,x,5,x,0.598663899998428,1,42,test2,1,0.5987788999991608,-50.0
21,chj,f,20,r,1,(121.76378772032349, 121.76378772032349),22,-7,13,yes,x,5,x,0.5778307000000495,1,43,test2,1,0.5779306000003999,-52.0
21,chj,f,20,r,1,(1.0544208940658713e-14, 172.20000000000002),23,3,1,yes,x,5,x,0.7015979999996489,1,44,test2,1,0.7019688000000315,-42.0
21,chj,f,20,r,1,(172.20000000000002, 0.0),21,-25,14,no,m,6,m,1.0869483000005857,1,45,test2,1,1.0871625999989192,-42.0
21,chj,f,20,r,1,(1.0544208940658713e-14, 172.20000000000002),23,-5,12,no,m,6,m,0.8858309000006557,1,46,test2,1,0.8859310000007099,-42.0
21,chj,f,20,r,1,(1.0544208940658713e-14, 172.20000000000002),23,-25,14,no,m,6,m,1.1864898999992874,1,47,test2,1,1.1866222999997262,-42.0
21,chj,f,20,r,1,(-121.76378772032352, -121.76378772032348),26,25,4,yes,x,5,x,0.9397299000011117,1,48,test2,1,0.93990870000016,-20.0
21,chj,f,20,r,1,(121.76378772032349, 121.76378772032349),22,5,2,yes,x,5,x,0.9194116999988182,1,49,test2,1,0.919637099999818,-40.0
21,chj,f,20,r,1,(-3.163262682197613e-14, -172.20000000000002),27,7,3,yes,x,5,x,0.6926411999993434,1,50,test2,1,0.6932379999998375,-38.0
21,chj,f,20,r,1,(121.76378772032346, -121.76378772032352),28,-7,13,yes,x,5,x,0.7438879999990604,1,51,test2,1,0.7440941000004386,-52.0
21,chj,f,20,r,1,(121.76378772032349, 121.76378772032349),22,-5,12,yes,x,5,x,0.6686276999989786,1,52,test2,1,0.6687968999995064,-50.0
21,chj,f,20,r,1,(121.76378772032346, -121.76378772032352),28,-3,11,yes,x,5,x,1.0172646999999415,1,53,test2,1,1.0175701000007393,-48.0
21,chj,f,20,r,1,(-121.76378772032348, 121.76378772032349),24,7,3,yes,x,5,x,0.563705000000482,1,54,test2,1,0.563941899999918,-38.0
21,chj,f,20,r,1,(172.20000000000002, 0.0),21,25,4,yes,x,5,x,0.5356898000009096,1,55,test2,1,0.5358985000002576,-20.0
21,chj,f,20,r,1,(-121.76378772032348, 121.76378772032349),24,3,1,yes,x,5,x,0.5985710999993898,1,56,test2,1,0.5987301000004663,-42.0
21,chj,f,20,r,1,(-172.20000000000002, 2.1088417881317425e-14),25,3,1,yes,x,5,m,1.346247499999663,0,57,test2,1,1.346494999999777,-42.0
21,chj,f,20,r,1,(-121.76378772032348, 121.76378772032349),24,-7,13,yes,x,5,x,0.5771669000005204,1,58,test2,1,0.5773282000009203,-52.0
21,chj,f,20,r,1,(-3.163262682197613e-14, -172.20000000000002),27,-25,14,yes,x,5,x,0.7014920999990863,1,59,test2,1,0.7020455000001675,-70.0
21,chj,f,20,r,1,(-172.20000000000002, 2.1088417881317425e-14),25,-25,14,yes,x,5,x,0.45504600000094797,1,60,test2,1,0.4551971000000776,-70.0
21,chj,f,20,r,1,(121.76378772032349, 121.76378772032349),22,-7,13,yes,x,5,x,0.6002457000013237,1,61,test2,1,0.6006288999997196,-52.0
21,chj,f,20,r,1,(172.20000000000002, 0.0),21,5,2,yes,x,5,x,0.5039974999999686,1,62,test2,1,0.5042245999993611,-40.0
21,chj,f,20,r,1,(-3.163262682197613e-14, -172.20000000000002),27,-5,12,no,m,6,m,1.3031856999987212,1,63,test2,1,1.3036596000001737,-40.0
21,chj,f,20,r,1,(-121.76378772032352, -121.76378772032348),26,-5,12,no,m,6,m,1.063621500001318,1,64,test2,1,1.063754599999811,-40.0
21,chj,f,20,r,1,(121.76378772032349, 121.76378772032349),22,7,3,yes,x,5,x,0.5394257999996626,1,65,test2,1,0.540161500000977,-38.0
21,chj,f,20,r,1,(-3.163262682197613e-14, -172.20000000000002),27,3,1,yes,x,5,x,0.8250106999985292,1,66,test2,1,0.8252611000007164,-42.0
21,chj,f,20,r,1,(-3.163262682197613e-14, -172.20000000000002),27,-25,14,no,m,6,m,1.0753654000000097,1,67,test2,1,1.0756923999997525,-42.0
21,chj,f,20,r,1,(-172.20000000000002, 2.1088417881317425e-14),25,25,4,yes,x,5,x,0.46292559999892546,1,68,test2,1,0.46305580000080226,-20.0
21,chj,f,20,r,1,(-3.163262682197613e-14, -172.20000000000002),27,-7,13,yes,x,5,x,0.6436073999993823,1,69,test2,1,0.6437089999999444,-52.0
21,chj,f,20,r,1,(172.20000000000002, 0.0),21,-7,13,yes,x,5,x,0.8265578999998979,1,70,test2,1,0.8266867999991518,-52.0
21,chj,f,20,r,1,(172.20000000000002, 0.0),21,5,2,no,m,6,m,0.9582405000001017,1,71,test2,1,0.9585456000004342,-52.0
21,chj,f,20,r,1,(1.0544208940658713e-14, 172.20000000000002),23,-3,11,no,m,6,m,1.1501157999991847,1,72,test2,1,1.1502149999996618,-52.0
21,chj,f,20,r,1,(-121.76378772032348, 121.76378772032349),24,5,2,no,m,6,m,0.7459728000012547,1,73,test2,1,0.7462606999997661,-52.0
21,chj,f,20,r,1,(-3.163262682197613e-14, -172.20000000000002),27,-25,14,yes,x,5,x,0.5909159000002546,1,74,test2,1,0.5910868999999366,-70.0
21,chj,f,20,r,1,(121.76378772032346, -121.76378772032352),28,3,1,yes,x,5,x,0.9401503000008233,1,75,test2,1,0.9404786000013701,-42.0
21,chj,f,20,r,1,(-121.76378772032348, 121.76378772032349),24,5,2,yes,x,5,x,0.6105981000000611,1,76,test2,1,0.6106992000004539,-40.0
21,chj,f,20,r,1,(-121.76378772032352, -121.76378772032348),26,-7,13,yes,x,5,x,0.8554308999991918,1,77,test2,1,0.8555289000014454,-52.0
21,chj,f,20,r,1,(-172.20000000000002, 2.1088417881317425e-14),25,5,2,no,m,6,m,1.2163861999997607,1,78,test2,1,1.2166038000013941,-52.0
21,chj,f,20,r,1,(172.20000000000002, 0.0),21,-25,14,yes,x,5,x,0.8755899999996473,1,79,test2,1,0.8756898999999976,-70.0
21,chj,f,20,r,1,(-172.20000000000002, 2.1088417881317425e-14),25,-7,13,no,m,6,m,0.7616932000000816,1,80,test2,1,0.7617980000013631,-70.0
21,chj,f,20,r,1,(-121.76378772032348, 121.76378772032349),24,-5,12,yes,x,5,x,0.8622574000000895,1,81,test2,1,0.8624171000010392,-50.0
21,chj,f,20,r,1,(-172.20000000000002, 2.1088417881317425e-14),25,5,2,yes,x,5,x,0.6688536999990902,1,82,test2,1,0.6690101999993203,-40.0
21,chj,f,20,r,1,(-121.76378772032352, -121.76378772032348),26,5,2,yes,x,5,x,0.7010707000008551,1,83,test2,1,0.7013397000009718,-40.0
21,chj,f,20,r,1,(1.0544208940658713e-14, 172.20000000000002),23,-3,11,yes,x,5,x,1.2666081999996095,1,84,test2,1,1.2669219999988854,-48.0
21,chj,f,20,r,1,(-121.76378772032352, -121.76378772032348),26,25,4,no,m,6,m,1.0291361999989022,1,85,test2,1,1.029267299998537,-48.0
21,chj,f,20,r,1,(-121.76378772032348, 121.76378772032349),24,-7,13,yes,x,5,x,0.6289944000000105,1,86,test2,1,0.6293397000008554,-52.0
21,chj,f,20,r,1,(121.76378772032346, -121.76378772032352),28,-5,12,yes,x,5,x,0.7932400999998208,1,87,test2,1,0.7934384000000136,-50.0
21,chj,f,20,r,1,(-3.163262682197613e-14, -172.20000000000002),27,25,4,yes,x,5,x,0.5272472999986348,1,88,test2,1,0.5274696000014956,-20.0
21,chj,f,20,r,1,(172.20000000000002, 0.0),21,-3,11,yes,x,5,x,0.75700660000075,1,89,test2,1,0.757111500000974,-48.0
21,chj,f,20,r,1,(-121.76378772032352, -121.76378772032348),26,7,3,yes,x,5,x,0.6091729999989184,1,90,test2,1,0.6092716000002838,-38.0
21,chj,f,20,r,1,(121.76378772032346, -121.76378772032352),28,-5,12,no,m,6,m,0.9257047000010061,1,91,test2,1,0.9260159000004933,-38.0
21,chj,f,20,r,1,(121.76378772032346, -121.76378772032352),28,5,2,yes,x,5,x,0.6461937999993097,1,92,test2,1,0.6463999000006879,-40.0
21,chj,f,20,r,1,(1.0544208940658713e-14, 172.20000000000002),23,7,3,no,m,6,m,1.0891257999992376,1,93,test2,1,1.0892272000000958,-40.0
21,chj,f,20,r,1,(121.76378772032349, 121.76378772032349),22,-7,13,no,m,6,m,1.0682011999997485,1,94,test2,1,1.0683625000001484,-40.0
21,chj,f,20,r,1,(-121.76378772032348, 121.76378772032349),24,-25,14,yes,x,5,x,0.733412400000816,1,95,test2,1,0.733654600000591,-70.0
21,chj,f,20,r,1,(172.20000000000002, 0.0),21,-3,11,yes,x,5,x,1.2133764999998675,1,96,test2,1,1.2135016000011092,-48.0
21,chj,f,20,r,1,(121.76378772032346, -121.76378772032352),28,7,3,yes,x,5,x,0.635823700000401,1,1,test1,2,0.6360284000002139,-38.0
21,chj,f,20,r,1,(121.76378772032349, 121.76378772032349),22,7,3,yes,x,5,x,0.5002752000000328,1,2,test1,2,0.5005450000007841,-38.0
21,chj,f,20,r,1,(1.0544208940658713e-14, 172.20000000000002),23,5,2,yes,x,5,x,0.4771326999998564,1,3,test1,2,0.4772616999998718,-40.0
21,chj,f,20,r,1,(1.0544208940658713e-14, 172.20000000000002),23,7,3,yes,x,5,x,0.5051146999994671,1,4,test1,2,0.505619100000331,-38.0
21,chj,f,20,r,1,(1.0544208940658713e-14, 172.20000000000002),23,7,3,yes,x,5,x,0.4409699999996519,1,5,test1,2,0.4412381000001915,-38.0
21,chj,f,20,r,1,(-121.76378772032348, 121.76378772032349),24,7,3,yes,x,5,x,0.6288844999999128,1,6,test1,2,0.6292487999999139,-38.0
21,chj,f,20,r,1,(172.20000000000002, 0.0),21,3,1,yes,x,5,x,1.0066451000002417,1,7,test1,2,1.0067484000010154,-42.0
21,chj,f,20,r,1,(121.76378772032346, -121.76378772032352),28,-3,11,yes,x,5,x,1.024943300000814,1,8,test1,2,1.0250444999983301,-48.0
21,chj,f,20,r,1,(-3.163262682197613e-14, -172.20000000000002),27,-7,13,no,m,6,m,1.0449872000008327,1,9,test1,2,1.0454986000004283,-48.0
21,chj,f,20,r,1,(172.20000000000002, 0.0),21,-5,12,yes,x,5,x,0.5305356000008032,1,10,test1,2,0.530670199999804,-50.0
21,chj,f,20,r,1,(121.76378772032346, -121.76378772032352),28,5,2,no,m,6,m,1.1524485999998433,1,11,test1,2,1.152812799999083,-50.0
21,chj,f,20,r,1,(-3.163262682197613e-14, -172.20000000000002),27,25,4,yes,x,5,x,0.46641039999849454,1,12,test1,2,0.4665136000003258,-20.0
21,chj,f,20,r,1,(121.76378772032346, -121.76378772032352),28,-25,14,no,m,6,m,0.8518722999997408,1,13,test1,2,0.8519776999983151,-20.0
21,chj,f,20,r,1,(121.76378772032346, -121.76378772032352),28,-3,11,no,m,6,m,0.657439799999338,1,14,test1,2,0.6575486999990972,-20.0
21,chj,f,20,r,1,(121.76378772032349, 121.76378772032349),22,-5,12,yes,x,5,x,0.5981523000009474,1,15,test1,2,0.5983882000000449,-50.0
21,chj,f,20,r,1,(121.76378772032346, -121.76378772032352),28,-7,13,yes,x,5,x,0.4723500000000058,1,16,test1,2,0.4729388999985531,-52.0
21,chj,f,20,r,1,(-121.76378772032348, 121.76378772032349),24,3,1,no,m,6,m,0.5668440999997983,1,17,test1,2,0.567294699998456,-52.0
21,chj,f,20,r,1,(121.76378772032346, -121.76378772032352),28,7,3,yes,x,5,x,0.4576398999997764,1,18,test1,2,0.45793500000036147,-38.0
21,chj,f,20,r,1,(172.20000000000002, 0.0),21,25,4,yes,x,5,x,0.4536369999987073,1,19,test1,2,0.4538339000009728,-20.0
21,chj,f,20,r,1,(-121.76378772032348, 121.76378772032349),24,3,1,yes,x,5,x,0.9084820000007312,1,20,test1,2,0.9086429999988468,-42.0
21,chj,f,20,r,1,(121.76378772032349, 121.76378772032349),22,-3,11,yes,x,5,x,0.5345535999986168,1,21,test1,2,0.5348721999998816,-48.0
21,chj,f,20,r,1,(-172.20000000000002, 2.1088417881317425e-14),25,-7,13,yes,x,5,x,0.41133110000009765,1,22,test1,2,0.41143559999909485,-52.0
21,chj,f,20,r,1,(-172.20000000000002, 2.1088417881317425e-14),25,3,1,no,m,6,m,0.8440499999996973,1,23,test1,2,0.8445902999992541,-52.0
21,chj,f,20,r,1,(1.0544208940658713e-14, 172.20000000000002),23,-5,12,yes,x,5,x,0.4403984999989916,1,24,test1,2,0.44049720000111847,-50.0
21,chj,f,20,r,1,(121.76378772032349, 121.76378772032349),22,3,1,yes,x,5,x,0.9302037999987078,1,25,test1,2,0.9304539000004297,-42.0
21,chj,f,20,r,1,(-121.76378772032352, -121.76378772032348),26,-25,14,no,m,6,m,0.8189495000005991,1,26,test1,2,0.8192624000002979,-42.0
21,chj,f,20,r,1,(121.76378772032349, 121.76378772032349),22,3,1,yes,x,5,x,0.9509861999995337,1,27,test1,2,0.9512219000007462,-42.0
21,chj,f,20,r,1,(1.0544208940658713e-14, 172.20000000000002),23,-25,14,yes,x,5,x,0.441286699999182,1,28,test1,2,0.4418442000005598,-70.0
21,chj,f,20,r,1,(-121.76378772032352, -121.76378772032348),26,3,1,yes,x,5,m,0.5603255000005447,0,29,test1,2,0.5607304999994085,-42.0
21,chj,f,20,r,1,(-172.20000000000002, 2.1088417881317425e-14),25,25,4,yes,x,5,x,0.5334805999991659,1,30,test1,2,0.5337800999986939,-20.0
21,chj,f,20,r,1,(-121.76378772032348, 121.76378772032349),24,-7,13,no,m,6,m,0.9412386999993032,1,31,test1,2,0.9413524000010511,-20.0
21,chj,f,20,r,1,(172.20000000000002, 0.0),21,3,1,yes,x,5,x,0.7190722999985155,1,32,test1,2,0.7191745999989507,-42.0
21,chj,f,20,r,1,(-3.163262682197613e-14, -172.20000000000002),27,5,2,yes,x,5,x,0.5054149000006873,1,33,test1,2,0.5055123000001913,-40.0
21,chj,f,20,r,1,(-121.76378772032352, -121.76378772032348),26,25,4,yes,x,5,x,0.42739699999947334,1,34,test1,2,0.4275434999999561,-20.0
21,chj,f,20,r,1,(1.0544208940658713e-14, 172.20000000000002),23,-5,12,yes,x,5,x,0.5034633000013855,1,35,test1,2,0.503624500001024,-50.0
21,chj,f,20,r,1,(-121.76378772032348, 121.76378772032349),24,25,4,yes,x,5,x,0.40052099999957136,1,36,test1,2,0.40098330000000715,-20.0
21,chj,f,20,r,1,(-121.76378772032348, 121.76378772032349),24,-25,14,yes,x,5,x,0.4326373000003514,1,37,test1,2,0.4329695000014908,-70.0
21,chj,f,20,r,1,(1.0544208940658713e-14, 172.20000000000002),23,25,4,no,m,6,m,0.7144179000006261,1,38,test1,2,0.7145363999989058,-70.0
21,chj,f,20,r,1,(-3.163262682197613e-14, -172.20000000000002),27,25,4,no,m,6,m,0.6395298999996157,1,39,test1,2,0.6396600999996735,-70.0
21,chj,f,20,r,1,(-121.76378772032348, 121.76378772032349),24,25,4,yes,x,5,x,0.43089229999895906,1,40,test1,2,0.4310225999997783,-20.0
21,chj,f,20,r,1,(172.20000000000002, 0.0),21,25,4,no,m,6,m,0.6170217999988381,1,41,test1,2,0.6172200000000885,-20.0
21,chj,f,20,r,1,(121.76378772032346, -121.76378772032352),28,3,1,yes,x,5,x,0.7849602999995113,1,42,test1,2,0.7853574000000663,-42.0
21,chj,f,20,r,1,(-3.163262682197613e-14, -172.20000000000002),27,3,1,yes,x,5,x,0.6693452999988949,1,43,test1,2,0.6694451999992452,-42.0
21,chj,f,20,r,1,(-121.76378772032352, -121.76378772032348),26,-7,13,yes,x,5,x,0.5275869000015518,1,44,test1,2,0.5277503999986948,-52.0
21,chj,f,20,r,1,(-3.163262682197613e-14, -172.20000000000002),27,-7,13,yes,x,5,x,0.4874414000005345,1,45,test1,2,0.4876667999997153,-52.0
21,chj,f,20,r,1,(-121.76378772032352, -121.76378772032348),26,7,3,yes,x,5,x,0.4671184999988327,1,46,test1,2,0.4672174000006635,-38.0
21,chj,f,20,r,1,(-121.76378772032352, -121.76378772032348),26,-7,13,no,m,6,m,1.1738623999990523,1,47,test1,2,1.174027400000341,-38.0
21,chj,f,20,r,1,(172.20000000000002, 0.0),21,-5,12,yes,x,5,x,0.9312701999988349,1,48,test1,2,0.9313708999998198,-50.0
21,chj,f,20,r,1,(-172.20000000000002, 2.1088417881317425e-14),25,-3,11,no,m,6,m,0.975345799999559,1,49,test1,2,0.9754453000005014,-50.0
21,chj,f,20,r,1,(-121.76378772032352, -121.76378772032348),26,5,2,yes,x,5,x,0.5269143000004988,1,50,test1,2,0.5270144999994955,-40.0
21,chj,f,20,r,1,(-121.76378772032348, 121.76378772032349),24,5,2,yes,x,5,x,0.5093299000000115,1,51,test1,2,0.5095244000003731,-40.0
21,chj,f,20,r,1,(121.76378772032349, 121.76378772032349),22,25,4,yes,x,5,x,0.4896238000001176,1,52,test1,2,0.4897309999996651,-20.0
21,chj,f,20,r,1,(-3.163262682197613e-14, -172.20000000000002),27,7,3,no,m,6,m,1.039207499999975,1,53,test1,2,1.0393657999993593,-20.0
21,chj,f,20,r,1,(1.0544208940658713e-14, 172.20000000000002),23,-7,13,yes,x,5,x,0.5485986999992747,1,54,test1,2,0.5489455999995698,-52.0
21,chj,f,20,r,1,(-172.20000000000002, 2.1088417881317425e-14),25,5,2,yes,x,5,x,0.6355963999994856,1,55,test1,2,0.6358099000008224,-40.0
21,chj,f,20,r,1,(1.0544208940658713e-14, 172.20000000000002),23,25,4,yes,x,5,x,0.5276040999997349,1,56,test1,2,0.527714100000594,-20.0
21,chj,f,20,r,1,(172.20000000000002, 0.0),21,3,1,no,m,6,m,0.8388537999999244,1,57,test1,2,0.8397249000008742,-20.0
21,chj,f,20,r,1,(-121.76378772032348, 121.76378772032349),24,-3,11,yes,x,5,x,0.9150174999995215,1,58,test1,2,0.9152386999994633,-48.0
21,chj,f,20,r,1,(-121.76378772032352, -121.76378772032348),26,3,1,yes,x,5,x,0.566959499999939,1,59,test1,2,0.5670637000002898,-42.0
21,chj,f,20,r,1,(-172.20000000000002, 2.1088417881317425e-14),25,-3,11,yes,x,5,x,0.6583546999991086,1,60,test1,2,0.6585096000017074,-48.0
21,chj,f,20,r,1,(172.20000000000002, 0.0),21,-25,14,yes,x,5,x,0.6079674000011437,1,61,test1,2,0.6081638000014209,-70.0
21,chj,f,20,r,1,(172.20000000000002, 0.0),21,-7,13,no,m,6,m,1.2317963000004966,1,62,test1,2,1.2320029999991675,-70.0
21,chj,f,20,r,1,(121.76378772032346, -121.76378772032352),28,25,4,no,m,6,m,1.217175200001293,1,63,test1,2,1.2175573999993503,-70.0
21,chj,f,20,r,1,(121.76378772032349, 121.76378772032349),22,-25,14,no,m,6,m,1.36084800000026,1,64,test1,2,1.362001199999213,-70.0
21,chj,f,20,r,1,(172.20000000000002, 0.0),21,-5,12,no,m,6,m,1.1435810000002675,1,65,test1,2,1.14368690000083,-70.0
21,chj,f,20,r,1,(1.0544208940658713e-14, 172.20000000000002),23,25,4,yes,x,5,x,0.528868399998828,1,66,test1,2,0.5294293999995716,-20.0
21,chj,f,20,r,1,(-121.76378772032348, 121.76378772032349),24,-5,12,no,m,6,m,1.1975034999995842,1,67,test1,2,1.1978330999991158,-20.0
21,chj,f,20,r,1,(121.76378772032346, -121.76378772032352),28,5,2,yes,x,5,x,0.7105561000007583,1,68,test1,2,0.7108879000006709,-40.0
21,chj,f,20,r,1,(121.76378772032346, -121.76378772032352),28,25,4,yes,x,5,x,0.46075999999993655,1,69,test1,2,0.46098589999928663,-20.0
21,chj,f,20,r,1,(121.76378772032349, 121.76378772032349),22,5,2,yes,x,5,x,0.5433785999994143,1,70,test1,2,0.5436040000004141,-40.0
21,chj,f,20,r,1,(-121.76378772032352, -121.76378772032348),26,-3,11,no,m,6,m,0.870974200001001,1,71,test1,2,0.8718223999985639,-40.0
21,chj,f,20,r,1,(-121.76378772032352, -121.76378772032348),26,-25,14,yes,x,5,x,0.4667193999994197,1,72,test1,2,0.46684970000023895,-70.0
21,chj,f,20,r,1,(-172.20000000000002, 2.1088417881317425e-14),25,-5,12,yes,x,5,x,0.529161300000851,1,73,test1,2,0.5298533000004682,-50.0
21,chj,f,20,r,1,(121.76378772032349, 121.76378772032349),22,25,4,no,m,6,m,1.021859600001335,1,74,test1,2,1.02216000000044,-50.0
21,chj,f,20,r,1,(121.76378772032349, 121.76378772032349),22,-25,14,yes,x,5,m,0.5104031999999279,0,75,test1,2,0.5105194999996456,-70.0
21,chj,f,20,r,1,(172.20000000000002, 0.0),21,-7,13,yes,x,5,x,0.7446397000003344,1,76,test1,2,0.744778000000224,-52.0
21,chj,f,20,r,1,(-121.76378772032352, -121.76378772032348),26,-5,12,yes,x,5,x,0.6316141999996034,1,77,test1,2,0.6319987000006222,-50.0
21,chj,f,20,r,1,(-121.76378772032352, -121.76378772032348),26,-5,12,yes,x,5,x,0.8150076999991143,1,78,test1,2,0.8151584000006551,-50.0
21,chj,f,20,r,1,(-121.76378772032352, -121.76378772032348),26,7,3,no,m,6,m,1.073575799999162,1,79,test1,2,1.073678700000528,-50.0
21,chj,f,20,r,1,(-172.20000000000002, 2.1088417881317425e-14),25,-3,11,yes,x,5,x,0.9734230000012758,1,80,test1,2,0.9737108000008448,-48.0
21,chj,f,20,r,1,(-3.163262682197613e-14, -172.20000000000002),27,7,3,yes,x,5,x,0.6315063000001828,1,81,test1,2,0.6317546000009315,-38.0
21,chj,f,20,r,1,(1.0544208940658713e-14, 172.20000000000002),23,3,1,no,m,6,m,1.2771007000010286,1,82,test1,2,1.2773612000000867,-38.0
21,chj,f,20,r,1,(172.20000000000002, 0.0),21,-3,11,no,m,6,m,1.3758689000005688,1,83,test1,2,1.3760123000010935,-38.0
21,chj,f,20,r,1,(-121.76378772032352, -121.76378772032348),26,5,2,no,m,6,m,0.9174667999996018,1,84,test1,2,0.9175656999996136,-38.0
21,chj,f,20,r,1,(1.0544208940658713e-14, 172.20000000000002),23,5,2,yes,x,5,x,0.6175868999998784,1,85,test1,2,0.6178111999997782,-40.0
21,chj,f,20,r,1,(-121.76378772032348, 121.76378772032349),24,25,4,no,m,6,m,0.970665499999086,1,86,test1,2,0.9707954999994399,-40.0
21,chj,f,20,r,1,(121.76378772032346, -121.76378772032352),28,25,4,yes,x,5,x,0.505444800000987,1,87,test1,2,0.5055768999991415,-20.0
21,chj,f,20,r,1,(-3.163262682197613e-14, -172.20000000000002),27,-3,11,no,m,6,m,0.8379079999995156,1,88,test1,2,0.8380918000002566,-20.0
21,chj,f,20,r,1,(-172.20000000000002, 2.1088417881317425e-14),25,7,3,yes,x,5,x,0.49506380000093486,1,89,test1,2,0.49522500000057335,-38.0
21,chj,f,20,r,1,(-172.20000000000002, 2.1088417881317425e-14),25,-5,12,yes,x,5,x,0.6013225999995484,1,90,test1,2,0.6015968000010616,-50.0
21,chj,f,20,r,1,(1.0544208940658713e-14, 172.20000000000002),23,3,1,yes,x,5,x,0.7075309000010748,1,91,test1,2,0.7079995000003692,-42.0
21,chj,f,20,r,1,(121.76378772032346, -121.76378772032352),28,7,3,no,m,6,m,0.8776490000000194,1,92,test1,2,0.8782756000000518,-42.0
21,chj,f,20,r,1,(121.76378772032349, 121.76378772032349),22,-5,12,no,m,6,m,0.9536115999999311,1,93,test1,2,0.9538166000002093,-42.0
21,chj,f,20,r,1,(172.20000000000002, 0.0),21,7,3,yes,x,5,x,0.6613932000000204,1,94,test1,2,0.6618825000005018,-38.0
21,chj,f,20,r,1,(-172.20000000000002, 2.1088417881317425e-14),25,7,3,no,m,6,m,0.9111647000008816,1,95,test1,2,0.9112659000002168,-38.0
21,chj,f,20,r,1,(121.76378772032349, 121.76378772032349),22,3,1,no,m,6,m,0.7181476000005205,1,96,test1,2,0.7183784999997442,-38.0
21,chj,f,20,r,1,(-121.76378772032348, 121.76378772032349),24,-5,12,yes,x,5,x,0.6901335999991716,1,1,test2,2,0.6902649000003294,-50.0
21,chj,f,20,r,1,(121.76378772032349, 121.76378772032349),22,7,3,no,m,6,m,1.34187220000058,1,2,test2,2,1.3423073000012664,-50.0
21,chj,f,20,r,1,(172.20000000000002, 0.0),21,7,3,no,m,6,m,0.7238175999991654,1,3,test2,2,0.7239140000001498,-50.0
21,chj,f,20,r,1,(-172.20000000000002, 2.1088417881317425e-14),25,25,4,no,m,6,m,0.7674021999991965,1,4,test2,2,0.7680233999999473,-50.0
21,chj,f,20,r,1,(-121.76378772032352, -121.76378772032348),26,-25,14,yes,x,5,x,0.5316419999999198,1,5,test2,2,0.5318772999999055,-70.0
21,chj,f,20,r,1,(-121.76378772032348, 121.76378772032349),24,-3,11,yes,x,5,x,1.004401099999086,1,6,test2,2,1.0045340999986365,-48.0
21,chj,f,20,r,1,(121.76378772032346, -121.76378772032352),28,-7,13,no,m,6,m,0.7521054999997432,1,7,test2,2,0.7523345999998128,-48.0
21,chj,f,20,r,1,(121.76378772032349, 121.76378772032349),22,-3,11,yes,x,5,x,0.6975450000009005,1,8,test2,2,0.6977243000001181,-48.0
21,chj,f,20,r,1,(-172.20000000000002, 2.1088417881317425e-14),25,-25,14,no,m,6,m,0.8290161000004446,1,9,test2,2,0.829299600000013,-48.0
21,chj,f,20,r,1,(-3.163262682197613e-14, -172.20000000000002),27,5,2,yes,x,5,x,0.5451063000000431,1,10,test2,2,0.5454718000000867,-40.0
21,chj,f,20,r,1,(121.76378772032346, -121.76378772032352),28,3,1,no,m,6,m,0.7835015000000567,1,11,test2,2,0.783600300001126,-40.0
21,chj,f,20,r,1,(121.76378772032346, -121.76378772032352),28,-5,12,yes,x,5,m,0.5252246000000014,0,12,test2,2,0.5257187999995949,-50.0
21,chj,f,20,r,1,(172.20000000000002, 0.0),21,7,3,yes,x,5,x,1.251060200000211,1,13,test2,2,1.2515074999992066,-38.0
21,chj,f,20,r,1,(-172.20000000000002, 2.1088417881317425e-14),25,-7,13,yes,x,5,x,0.5491023000013229,1,14,test2,2,0.5494933000009041,-52.0
21,chj,f,20,r,1,(1.0544208940658713e-14, 172.20000000000002),23,-7,13,yes,x,5,x,0.5730821000015567,1,15,test2,2,0.5731837000002997,-52.0
21,chj,f,20,r,1,(1.0544208940658713e-14, 172.20000000000002),23,-3,11,yes,x,5,x,0.5927039999987755,1,16,test2,2,0.5928054999985761,-48.0
21,chj,f,20,r,1,(1.0544208940658713e-14, 172.20000000000002),23,5,2,no,m,6,m,0.7519319000002724,1,17,test2,2,0.7521582999997918,-48.0
21,chj,f,20,r,1,(-121.76378772032348, 121.76378772032349),24,-3,11,no,m,6,m,0.7385130000002391,1,18,test2,2,0.738628900000549,-48.0
21,chj,f,20,r,1,(-3.163262682197613e-14, -172.20000000000002),27,5,2,no,m,6,m,0.6387305999996897,1,19,test2,2,0.6389240000007703,-48.0
21,chj,f,20,r,1,(121.76378772032349, 121.76378772032349),22,5,2,no,m,6,m,0.8714532000012696,1,20,test2,2,0.8715668000004371,-48.0
21,chj,f,20,r,1,(-3.163262682197613e-14, -172.20000000000002),27,-5,12,yes,x,5,x,0.5741348000010476,1,21,test2,2,0.5745798999996623,-50.0
21,chj,f,20,r,1,(-121.76378772032352, -121.76378772032348),26,-3,11,yes,x,5,x,0.708476800000426,1,22,test2,2,0.7087283999990177,-48.0
21,chj,f,20,r,1,(121.76378772032346, -121.76378772032352),28,-25,14,yes,x,5,x,0.5577188000006572,1,23,test2,2,0.5581082000007882,-70.0
21,chj,f,20,r,1,(-172.20000000000002, 2.1088417881317425e-14),25,7,3,yes,x,5,x,0.41659570000047097,1,24,test2,2,0.4166948999991291,-38.0
21,chj,f,20,r,1,(-121.76378772032348, 121.76378772032349),24,7,3,no,m,6,m,0.5477534999990894,1,25,test2,2,0.5479832000000897,-38.0
21,chj,f,20,r,1,(121.76378772032349, 121.76378772032349),22,-25,14,yes,x,5,x,0.5241409000009298,1,26,test2,2,0.5243131999995967,-70.0
21,chj,f,20,r,1,(-3.163262682197613e-14, -172.20000000000002),27,3,1,no,m,6,m,0.7140184999989287,1,27,test2,2,0.7141414000016084,-70.0
21,chj,f,20,r,1,(-172.20000000000002, 2.1088417881317425e-14),25,-5,12,no,m,6,m,0.6819283000004361,1,28,test2,2,0.6829176000010193,-70.0
21,chj,f,20,r,1,(121.76378772032346, -121.76378772032352),28,-25,14,yes,x,5,x,0.5757682000003115,1,29,test2,2,0.5759010000001581,-70.0
21,chj,f,20,r,1,(-121.76378772032352, -121.76378772032348),26,3,1,no,m,6,m,0.5893555999991804,1,30,test2,2,0.5895828000011534,-70.0
21,chj,f,20,r,1,(1.0544208940658713e-14, 172.20000000000002),23,-7,13,no,m,6,m,0.5678719999996247,1,31,test2,2,0.5680347999987134,-70.0
21,chj,f,20,r,1,(-121.76378772032352, -121.76378772032348),26,-3,11,yes,x,5,m,0.9730013999997027,0,32,test2,2,0.9731047999994189,-48.0
21,chj,f,20,r,1,(-3.163262682197613e-14, -172.20000000000002),27,-3,11,yes,x,5,x,0.8183697999993456,1,33,test2,2,0.81867819999934,-48.0
21,chj,f,20,r,1,(121.76378772032349, 121.76378772032349),22,25,4,yes,x,5,x,0.687729199999012,1,34,test2,2,0.6878561000012269,-20.0
21,chj,f,20,r,1,(121.76378772032349, 121.76378772032349),22,-3,11,no,m,6,m,0.7733124999995198,1,35,test2,2,0.7735308000010264,-20.0
21,chj,f,20,r,1,(-172.20000000000002, 2.1088417881317425e-14),25,-25,14,yes,x,5,x,0.40166409999983443,1,36,test2,2,0.4019447999999102,-70.0
21,chj,f,20,r,1,(172.20000000000002, 0.0),21,5,2,yes,x,5,x,0.6104064999999537,1,37,test2,2,0.6106065999993007,-40.0
21,chj,f,20,r,1,(-172.20000000000002, 2.1088417881317425e-14),25,3,1,yes,x,5,x,1.0738238999983878,1,38,test2,2,1.073933699999543,-42.0
21,chj,f,20,r,1,(1.0544208940658713e-14, 172.20000000000002),23,-25,14,yes,x,5,x,0.5752905999997893,1,39,test2,2,0.5755839000012202,-70.0
21,chj,f,20,r,1,(-121.76378772032348, 121.76378772032349),24,-25,14,no,m,6,m,0.6909933999995701,1,40,test2,2,0.691097400000217,-70.0
21,chj,f,20,r,1,(-3.163262682197613e-14, -172.20000000000002),27,-3,11,yes,x,5,x,0.8658391999997548,1,41,test2,2,0.8659690000004048,-48.0
21,chj,f,20,r,1,(-3.163262682197613e-14, -172.20000000000002),27,-5,12,yes,x,5,x,0.6495001000002958,1,42,test2,2,0.6495955999998841,-50.0
21,chj,f,20,r,1,(121.76378772032349, 121.76378772032349),22,-7,13,yes,x,5,x,0.6041554000003089,1,43,test2,2,0.6044309999997495,-52.0
21,chj,f,20,r,1,(1.0544208940658713e-14, 172.20000000000002),23,3,1,yes,x,5,x,0.7683355000008305,1,44,test2,2,0.7685717999993358,-42.0
21,chj,f,20,r,1,(172.20000000000002, 0.0),21,-25,14,no,m,6,m,1.4774999000001117,1,45,test2,2,1.477740399999675,-42.0
21,chj,f,20,r,1,(1.0544208940658713e-14, 172.20000000000002),23,-5,12,no,m,6,m,1.0097359999999753,1,46,test2,2,1.0102636999999959,-42.0
21,chj,f,20,r,1,(1.0544208940658713e-14, 172.20000000000002),23,-25,14,no,m,6,m,0.9069080999997823,1,47,test2,2,0.9072534000006272,-42.0
21,chj,f,20,r,1,(-121.76378772032352, -121.76378772032348),26,25,4,yes,x,5,x,0.584211299999879,1,48,test2,2,0.584602900000391,-20.0
21,chj,f,20,r,1,(121.76378772032349, 121.76378772032349),22,5,2,yes,x,5,x,0.6716878000006545,1,49,test2,2,0.6717900000003283,-40.0
21,chj,f,20,r,1,(-3.163262682197613e-14, -172.20000000000002),27,7,3,yes,x,5,x,0.6771874999994907,1,50,test2,2,0.6774869000000763,-38.0
21,chj,f,20,r,1,(121.76378772032346, -121.76378772032352),28,-7,13,yes,x,5,x,0.5046815999994578,1,51,test2,2,0.5049822999990283,-52.0
21,chj,f,20,r,1,(121.76378772032349, 121.76378772032349),22,-5,12,yes,x,5,x,0.4952057999998942,1,52,test2,2,0.49539159999949334,-50.0
21,chj,f,20,r,1,(121.76378772032346, -121.76378772032352),28,-3,11,yes,x,5,x,0.582304399998975,1,53,test2,2,0.5831718999997975,-48.0
21,chj,f,20,r,1,(-121.76378772032348, 121.76378772032349),24,7,3,yes,x,5,x,0.41437219999897934,1,54,test2,2,0.41447400000106427,-38.0
21,chj,f,20,r,1,(172.20000000000002, 0.0),21,25,4,yes,x,5,x,0.42124149999835936,1,55,test2,2,0.42142690000036964,-20.0
21,chj,f,20,r,1,(-121.76378772032348, 121.76378772032349),24,3,1,yes,x,5,x,0.5551636000000144,1,56,test2,2,0.5554386000003433,-42.0
21,chj,f,20,r,1,(-172.20000000000002, 2.1088417881317425e-14),25,3,1,yes,x,5,x,0.6155792999998084,1,57,test2,2,0.6160466000001179,-42.0
21,chj,f,20,r,1,(-121.76378772032348, 121.76378772032349),24,-7,13,yes,x,5,x,0.5626392000012856,1,58,test2,2,0.5628261000001658,-52.0
21,chj,f,20,r,1,(-3.163262682197613e-14, -172.20000000000002),27,-25,14,yes,x,5,x,0.4412380999983725,1,59,test2,2,0.4413399000004574,-70.0
21,chj,f,20,r,1,(-172.20000000000002, 2.1088417881317425e-14),25,-25,14,yes,x,5,x,0.4247006000005058,1,60,test2,2,0.4248783999992156,-70.0
21,chj,f,20,r,1,(121.76378772032349, 121.76378772032349),22,-7,13,yes,x,5,x,0.46134900000106427,1,61,test2,2,0.4615988000005018,-52.0
21,chj,f,20,r,1,(172.20000000000002, 0.0),21,5,2,yes,x,5,x,0.5703528999983973,1,62,test2,2,0.5704752999990887,-40.0
21,chj,f,20,r,1,(-3.163262682197613e-14, -172.20000000000002),27,-5,12,no,m,6,m,1.038215599999603,1,63,test2,2,1.0383909000011045,-40.0
21,chj,f,20,r,1,(-121.76378772032352, -121.76378772032348),26,-5,12,no,m,6,m,0.9390409999996336,1,64,test2,2,0.939164499999606,-40.0
21,chj,f,20,r,1,(121.76378772032349, 121.76378772032349),22,7,3,yes,x,5,x,0.5421744999985094,1,65,test2,2,0.5428388000000268,-38.0
21,chj,f,20,r,1,(-3.163262682197613e-14, -172.20000000000002),27,3,1,yes,x,5,x,0.8156017000001157,1,66,test2,2,0.8159572000004118,-42.0
21,chj,f,20,r,1,(-3.163262682197613e-14, -172.20000000000002),27,-25,14,no,m,6,m,0.8922005999993416,1,67,test2,2,0.8925366000003123,-42.0
21,chj,f,20,r,1,(-172.20000000000002, 2.1088417881317425e-14),25,25,4,yes,x,5,x,0.4325155000005907,1,68,test2,2,0.43279599999914353,-20.0
21,chj,f,20,r,1,(-3.163262682197613e-14, -172.20000000000002),27,-7,13,yes,x,5,x,0.6094505999990361,1,69,test2,2,0.6098612999994657,-52.0
21,chj,f,20,r,1,(172.20000000000002, 0.0),21,-7,13,yes,x,5,x,0.6491382000003796,1,70,test2,2,0.6492793999987043,-52.0
21,chj,f,20,r,1,(172.20000000000002, 0.0),21,5,2,no,m,6,m,0.6757985000003828,1,71,test2,2,0.6766934000006586,-52.0
21,chj,f,20,r,1,(1.0544208940658713e-14, 172.20000000000002),23,-3,11,no,m,6,m,0.7256782000004023,1,72,test2,2,0.7258407999997871,-52.0
21,chj,f,20,r,1,(-121.76378772032348, 121.76378772032349),24,5,2,no,m,6,m,1.1097473999998329,1,73,test2,2,1.1098484999984066,-52.0
21,chj,f,20,r,1,(-3.163262682197613e-14, -172.20000000000002),27,-25,14,yes,x,5,x,0.42889309999918623,1,74,test2,2,0.4292218000009598,-70.0
21,chj,f,20,r,1,(121.76378772032346, -121.76378772032352),28,3,1,yes,x,5,x,0.6465229000004911,1,75,test2,2,0.6466256000003341,-42.0
21,chj,f,20,r,1,(-121.76378772032348, 121.76378772032349),24,5,2,yes,x,5,x,0.4707035999999789,1,76,test2,2,0.47080540000024484,-40.0
21,chj,f,20,r,1,(-121.76378772032352, -121.76378772032348),26,-7,13,yes,x,5,x,0.5463911000006192,1,77,test2,2,0.5466331000006903,-52.0
21,chj,f,20,r,1,(-172.20000000000002, 2.1088417881317425e-14),25,5,2,no,m,6,m,0.8384275999997044,1,78,test2,2,0.8386405999990529,-52.0
21,chj,f,20,r,1,(172.20000000000002, 0.0),21,-25,14,yes,x,5,x,0.6191871999999421,1,79,test2,2,0.6193531999997504,-70.0
21,chj,f,20,r,1,(-172.20000000000002, 2.1088417881317425e-14),25,-7,13,no,m,6,m,0.7335531999997329,1,80,test2,2,0.7336498000004212,-70.0
21,chj,f,20,r,1,(-121.76378772032348, 121.76378772032349),24,-5,12,yes,x,5,x,0.5661118000007264,1,81,test2,2,0.5663561000001209,-50.0
21,chj,f,20,r,1,(-172.20000000000002, 2.1088417881317425e-14),25,5,2,yes,x,5,x,0.5695092000005388,1,82,test2,2,0.5699758000009751,-40.0
21,chj,f,20,r,1,(-121.76378772032352, -121.76378772032348),26,5,2,yes,x,5,x,0.5927800000008574,1,83,test2,2,0.5928784999996424,-40.0
21,chj,f,20,r,1,(1.0544208940658713e-14, 172.20000000000002),23,-3,11,yes,x,5,x,0.6339695999995456,1,84,test2,2,0.6341369999991002,-48.0
21,chj,f,20,r,1,(-121.76378772032352, -121.76378772032348),26,25,4,no,m,6,m,0.7680146999991848,1,85,test2,2,0.7681915000011941,-48.0
21,chj,f,20,r,1,(-121.76378772032348, 121.76378772032349),24,-7,13,yes,x,5,x,0.8738926000005449,1,86,test2,2,0.8739908000006835,-52.0
21,chj,f,20,r,1,(121.76378772032346, -121.76378772032352),28,-5,12,yes,x,5,x,1.2407860999992408,1,87,test2,2,1.240903800000524,-50.0
21,chj,f,20,r,1,(-3.163262682197613e-14, -172.20000000000002),27,25,4,yes,x,5,x,0.8293859999994311,1,88,test2,2,0.8295995999997103,-20.0
21,chj,f,20,r,1,(172.20000000000002, 0.0),21,-3,11,yes,x,5,x,0.8702806000001146,1,89,test2,2,0.87092660000053,-48.0
21,chj,f,20,r,1,(-121.76378772032352, -121.76378772032348),26,7,3,yes,x,5,x,0.5254679999998189,1,90,test2,2,0.5257519000006141,-38.0
21,chj,f,20,r,1,(121.76378772032346, -121.76378772032352),28,-5,12,no,m,6,m,0.8655321000005642,1,91,test2,2,0.8662899999999354,-38.0
21,chj,f,20,r,1,(121.76378772032346, -121.76378772032352),28,5,2,yes,x,5,x,0.5142089999990276,1,92,test2,2,0.514311999999336,-40.0
21,chj,f,20,r,1,(1.0544208940658713e-14, 172.20000000000002),23,7,3,no,m,6,m,0.8031876999993983,1,93,test2,2,0.8032954999998765,-40.0
21,chj,f,20,r,1,(121.76378772032349, 121.76378772032349),22,-7,13,no,m,6,m,0.9221547999986797,1,94,test2,2,0.9223756000010326,-40.0
21,chj,f,20,r,1,(-121.76378772032348, 121.76378772032349),24,-25,14,yes,x,5,x,0.6896543999991991,1,95,test2,2,0.6897750000007363,-70.0
21,chj,f,20,r,1,(172.20000000000002, 0.0),21,-3,11,yes,x,5,x,0.9472405000014987,1,96,test2,2,0.9473452000001998,-48.0
21,chj,f,20,r,1,(121.76378772032346, -121.76378772032352),28,7,3,yes,x,5,x,0.6028934000005393,1,1,test1,3,0.603035699999964,-38.0
21,chj,f,20,r,1,(121.76378772032349, 121.76378772032349),22,7,3,yes,x,5,x,0.7300360000008368,1,2,test1,3,0.7301387999996223,-38.0
21,chj,f,20,r,1,(1.0544208940658713e-14, 172.20000000000002),23,5,2,yes,x,5,x,0.48892479999994976,1,3,test1,3,0.48906089999945834,-40.0
21,chj,f,20,r,1,(1.0544208940658713e-14, 172.20000000000002),23,7,3,yes,x,5,x,0.4211845000008907,1,4,test1,3,0.4214721999996982,-38.0
21,chj,f,20,r,1,(1.0544208940658713e-14, 172.20000000000002),23,7,3,yes,x,5,x,0.4001470999992307,1,5,test1,3,0.4003527999993821,-38.0
21,chj,f,20,r,1,(-121.76378772032348, 121.76378772032349),24,7,3,yes,x,5,x,0.4574142999990727,1,6,test1,3,0.45768630000020494,-38.0
21,chj,f,20,r,1,(172.20000000000002, 0.0),21,3,1,yes,x,5,x,0.7290181999997003,1,7,test1,3,0.7291198000002623,-42.0
21,chj,f,20,r,1,(121.76378772032346, -121.76378772032352),28,-3,11,yes,x,5,x,0.8152019000008295,1,8,test1,3,0.8154242000000522,-48.0
21,chj,f,20,r,1,(-3.163262682197613e-14, -172.20000000000002),27,-7,13,no,m,6,m,0.7619407000001956,1,9,test1,3,0.7626540000001114,-48.0
21,chj,f,20,r,1,(172.20000000000002, 0.0),21,-5,12,yes,x,5,x,0.573816899999656,1,10,test1,3,0.5740314000013313,-50.0
21,chj,f,20,r,1,(121.76378772032346, -121.76378772032352),28,5,2,no,m,6,m,0.6455581999998685,1,11,test1,3,0.6457233000000997,-50.0
21,chj,f,20,r,1,(-3.163262682197613e-14, -172.20000000000002),27,25,4,yes,x,5,x,0.4597653000000719,1,12,test1,3,0.4598628000003373,-20.0
21,chj,f,20,r,1,(121.76378772032346, -121.76378772032352),28,-25,14,no,m,6,m,0.6239177000006748,1,13,test1,3,0.6242232000004151,-20.0
21,chj,f,20,r,1,(121.76378772032346, -121.76378772032352),28,-3,11,no,m,6,m,0.6656995000012103,1,14,test1,3,0.6660788999997749,-20.0
21,chj,f,20,r,1,(121.76378772032349, 121.76378772032349),22,-5,12,yes,x,5,x,0.5231960000000981,1,15,test1,3,0.5240950000006706,-50.0
21,chj,f,20,r,1,(121.76378772032346, -121.76378772032352),28,-7,13,yes,x,5,x,0.5454296999996586,1,16,test1,3,0.5455350000011094,-52.0
21,chj,f,20,r,1,(-121.76378772032348, 121.76378772032349),24,3,1,no,m,6,m,0.7660732000003918,1,17,test1,3,0.7662712000001193,-52.0
21,chj,f,20,r,1,(121.76378772032346, -121.76378772032352),28,7,3,yes,x,5,x,0.5198610999996163,1,18,test1,3,0.5199916999990819,-38.0
21,chj,f,20,r,1,(172.20000000000002, 0.0),21,25,4,yes,x,5,x,0.45426749999933236,1,19,test1,3,0.45443710000108695,-20.0
21,chj,f,20,r,1,(-121.76378772032348, 121.76378772032349),24,3,1,yes,x,5,x,0.5253405000003113,1,20,test1,3,0.5256055999998352,-42.0
21,chj,f,20,r,1,(121.76378772032349, 121.76378772032349),22,-3,11,yes,x,5,x,0.8201810999998997,1,21,test1,3,0.8205381999996462,-48.0
21,chj,f,20,r,1,(-172.20000000000002, 2.1088417881317425e-14),25,-7,13,yes,x,5,x,0.6130950000006123,1,22,test1,3,0.6133180999986507,-52.0
21,chj,f,20,r,1,(-172.20000000000002, 2.1088417881317425e-14),25,3,1,no,m,6,m,0.5245162999999593,1,23,test1,3,0.5246238999989146,-52.0
21,chj,f,20,r,1,(1.0544208940658713e-14, 172.20000000000002),23,-5,12,yes,x,5,x,0.3945900000016991,1,24,test1,3,0.3947418000007019,-50.0
21,chj,f,20,r,1,(121.76378772032349, 121.76378772032349),22,3,1,yes,x,5,x,0.6069793999995454,1,25,test1,3,0.6073436999995465,-42.0
21,chj,f,20,r,1,(-121.76378772032352, -121.76378772032348),26,-25,14,no,m,6,m,0.6061465999991924,1,26,test1,3,0.606402800000069,-42.0
21,chj,f,20,r,1,(121.76378772032349, 121.76378772032349),22,3,1,yes,x,5,x,0.6314992999996321,1,27,test1,3,0.6317209999997431,-42.0
21,chj,f,20,r,1,(1.0544208940658713e-14, 172.20000000000002),23,-25,14,yes,x,5,x,0.3621012999992672,1,28,test1,3,0.3621992999997019,-70.0
21,chj,f,20,r,1,(-121.76378772032352, -121.76378772032348),26,3,1,yes,x,5,m,0.5627896999994846,0,29,test1,3,0.5634618999993108,-42.0
21,chj,f,20,r,1,(-172.20000000000002, 2.1088417881317425e-14),25,25,4,yes,x,5,x,0.3985839000015403,1,30,test1,3,0.3988370000006398,-20.0
21,chj,f,20,r,1,(-121.76378772032348, 121.76378772032349),24,-7,13,no,m,6,m,0.6250745999986975,1,31,test1,3,0.6254508000001806,-20.0
21,chj,f,20,r,1,(172.20000000000002, 0.0),21,3,1,yes,x,5,x,0.6451636000001599,1,32,test1,3,0.6453907999984949,-42.0
21,chj,f,20,r,1,(-3.163262682197613e-14, -172.20000000000002),27,5,2,yes,x,5,x,0.4507173000001785,1,33,test1,3,0.4511411000003136,-40.0
21,chj,f,20,r,1,(-121.76378772032352, -121.76378772032348),26,25,4,yes,x,5,x,0.4082622000005358,1,34,test1,3,0.4084576000004745,-20.0
21,chj,f,20,r,1,(1.0544208940658713e-14, 172.20000000000002),23,-5,12,yes,x,5,x,0.4153284000003623,1,35,test1,3,0.4154622999994899,-50.0
21,chj,f,20,r,1,(-121.76378772032348, 121.76378772032349),24,25,4,yes,x,5,x,0.46832480000011856,1,36,test1,3,0.46842540000034205,-20.0
21,chj,f,20,r,1,(-121.76378772032348, 121.76378772032349),24,-25,14,yes,x,5,x,0.40022309999949357,1,37,test1,3,0.40035360000001674,-70.0
21,chj,f,20,r,1,(1.0544208940658713e-14, 172.20000000000002),23,25,4,no,m,6,m,0.6181659000012587,1,38,test1,3,0.6184039999989182,-70.0
21,chj,f,20,r,1,(-3.163262682197613e-14, -172.20000000000002),27,25,4,no,m,6,m,0.7302094000006036,1,39,test1,3,0.7303339000009146,-70.0
21,chj,f,20,r,1,(-121.76378772032348, 121.76378772032349),24,25,4,yes,x,5,x,0.4063731000005646,1,40,test1,3,0.4065752999995311,-20.0
21,chj,f,20,r,1,(172.20000000000002, 0.0),21,25,4,no,m,6,m,0.5438254000000597,1,41,test1,3,0.5439857000001211,-20.0
21,chj,f,20,r,1,(121.76378772032346, -121.76378772032352),28,3,1,yes,x,5,x,0.7720988999990368,1,42,test1,3,0.7723718999986886,-42.0
21,chj,f,20,r,1,(-3.163262682197613e-14, -172.20000000000002),27,3,1,yes,x,5,x,0.5080859999998211,1,43,test1,3,0.5081863000013982,-42.0
21,chj,f,20,r,1,(-121.76378772032352, -121.76378772032348),26,-7,13,yes,x,5,x,0.42697620000035386,1,44,test1,3,0.4270758999991813,-52.0
21,chj,f,20,r,1,(-3.163262682197613e-14, -172.20000000000002),27,-7,13,yes,x,5,x,0.47924070000044594,1,45,test1,3,0.4796886000003724,-52.0
21,chj,f,20,r,1,(-121.76378772032352, -121.76378772032348),26,7,3,yes,x,5,x,0.40525180000076944,1,46,test1,3,0.4053559999993013,-38.0
21,chj,f,20,r,1,(-121.76378772032352, -121.76378772032348),26,-7,13,no,m,6,m,0.6134578999990481,1,47,test1,3,0.6136144000010972,-38.0
21,chj,f,20,r,1,(172.20000000000002, 0.0),21,-5,12,yes,x,5,x,0.5271933000003628,1,48,test1,3,0.5275624000005337,-50.0
21,chj,f,20,r,1,(-172.20000000000002, 2.1088417881317425e-14),25,-3,11,no,m,6,m,0.6769678000000567,1,49,test1,3,0.6770713000005344,-50.0
21,chj,f,20,r,1,(-121.76378772032352, -121.76378772032348),26,5,2,yes,x,5,x,0.42805200000111654,1,50,test1,3,0.4284359000012046,-40.0
21,chj,f,20,r,1,(-121.76378772032348, 121.76378772032349),24,5,2,yes,x,5,x,0.5899864999992133,1,51,test1,3,0.5903816999998526,-40.0
21,chj,f,20,r,1,(121.76378772032349, 121.76378772032349),22,25,4,yes,x,5,x,0.5344870999997511,1,52,test1,3,0.5348192000001291,-20.0
21,chj,f,20,r,1,(-3.163262682197613e-14, -172.20000000000002),27,7,3,no,m,6,m,0.6098805000001448,1,53,test1,3,0.6101582999999664,-20.0
21,chj,f,20,r,1,(1.0544208940658713e-14, 172.20000000000002),23,-7,13,yes,x,5,x,0.6274056999991444,1,54,test1,3,0.6276559000016277,-52.0
21,chj,f,20,r,1,(-172.20000000000002, 2.1088417881317425e-14),25,5,2,yes,x,5,x,0.5941879000001791,1,55,test1,3,0.5942883999996411,-40.0
21,chj,f,20,r,1,(1.0544208940658713e-14, 172.20000000000002),23,25,4,yes,x,5,x,0.46176419999937934,1,56,test1,3,0.4618639999989682,-20.0
21,chj,f,20,r,1,(172.20000000000002, 0.0),21,3,1,no,m,6,m,1.2618029000004753,1,57,test1,3,1.2621171999999206,-20.0
21,chj,f,20,r,1,(-121.76378772032348, 121.76378772032349),24,-3,11,yes,x,5,x,0.7987835999992967,1,58,test1,3,0.7991031000001385,-48.0
21,chj,f,20,r,1,(-121.76378772032352, -121.76378772032348),26,3,1,yes,x,5,x,0.8782312000003003,1,59,test1,3,0.8787451000007422,-42.0
21,chj,f,20,r,1,(-172.20000000000002, 2.1088417881317425e-14),25,-3,11,yes,x,5,x,0.6151763999987452,1,60,test1,3,0.6152912000015931,-48.0
21,chj,f,20,r,1,(172.20000000000002, 0.0),21,-25,14,yes,x,5,x,0.45892649999950663,1,61,test1,3,0.4592427999996289,-70.0
21,chj,f,20,r,1,(172.20000000000002, 0.0),21,-7,13,no,m,6,m,0.6750701000000845,1,62,test1,3,0.6751710999997158,-70.0
21,chj,f,20,r,1,(121.76378772032346, -121.76378772032352),28,25,4,no,m,6,m,0.7353825999998662,1,63,test1,3,0.7355107000003045,-70.0
21,chj,f,20,r,1,(121.76378772032349, 121.76378772032349),22,-25,14,no,m,6,m,0.542893499999991,1,64,test1,3,0.5431243000002723,-70.0
21,chj,f,20,r,1,(172.20000000000002, 0.0),21,-5,12,no,m,6,m,0.5756953000000067,1,65,test1,3,0.5759787999995751,-70.0
21,chj,f,20,r,1,(1.0544208940658713e-14, 172.20000000000002),23,25,4,yes,x,5,x,0.47423999999955413,1,66,test1,3,0.4744045000006736,-20.0
21,chj,f,20,r,1,(-121.76378772032348, 121.76378772032349),24,-5,12,no,m,6,m,0.597144200000912,1,67,test1,3,0.5976654999994935,-20.0
21,chj,f,20,r,1,(121.76378772032346, -121.76378772032352),28,5,2,yes,x,5,x,0.7126918000012665,1,68,test1,3,0.7128027999988262,-40.0
21,chj,f,20,r,1,(121.76378772032346, -121.76378772032352),28,25,4,yes,x,5,x,0.6289557999989484,1,69,test1,3,0.6290547999997216,-20.0
21,chj,f,20,r,1,(121.76378772032349, 121.76378772032349),22,5,2,yes,x,5,x,0.8007881000012276,1,70,test1,3,0.8014286999987235,-40.0
21,chj,f,20,r,1,(-121.76378772032352, -121.76378772032348),26,-3,11,no,m,6,m,0.6624845999995159,1,71,test1,3,0.6626429999996617,-40.0
21,chj,f,20,r,1,(-121.76378772032352, -121.76378772032348),26,-25,14,yes,x,5,x,0.5683310000003985,1,72,test1,3,0.5687484000009135,-70.0
21,chj,f,20,r,1,(-172.20000000000002, 2.1088417881317425e-14),25,-5,12,yes,x,5,x,0.8849425000007614,1,73,test1,3,0.8855472000013833,-50.0
21,chj,f,20,r,1,(121.76378772032349, 121.76378772032349),22,25,4,no,m,6,m,0.678103899999769,1,74,test1,3,0.6782235000009678,-50.0
21,chj,f,20,r,1,(121.76378772032349, 121.76378772032349),22,-25,14,yes,x,5,x,0.625828600001114,1,75,test1,3,0.6262005000007775,-70.0
21,chj,f,20,r,1,(172.20000000000002, 0.0),21,-7,13,yes,x,5,x,0.9324642000010499,1,76,test1,3,0.9327603000001545,-52.0
21,chj,f,20,r,1,(-121.76378772032352, -121.76378772032348),26,-5,12,yes,x,5,x,0.7777982999996311,1,77,test1,3,0.778097100001105,-50.0
21,chj,f,20,r,1,(-121.76378772032352, -121.76378772032348),26,-5,12,yes,x,5,x,0.6313625999991928,1,78,test1,3,0.6315769000011642,-50.0
21,chj,f,20,r,1,(-121.76378772032352, -121.76378772032348),26,7,3,no,m,6,m,0.8824643999996624,1,79,test1,3,0.8825858000000153,-50.0
21,chj,f,20,r,1,(-172.20000000000002, 2.1088417881317425e-14),25,-3,11,yes,x,5,x,0.6839103999991494,1,80,test1,3,0.6841215999993437,-48.0
21,chj,f,20,r,1,(-3.163262682197613e-14, -172.20000000000002),27,7,3,yes,x,5,x,0.5980985000005603,1,81,test1,3,0.5982402999998158,-38.0
21,chj,f,20,r,1,(1.0544208940658713e-14, 172.20000000000002),23,3,1,no,m,6,m,0.7557429999997112,1,82,test1,3,0.7559593999994831,-38.0
21,chj,f,20,r,1,(172.20000000000002, 0.0),21,-3,11,no,m,6,m,0.5887064000016835,1,83,test1,3,0.5888341999998374,-38.0
21,chj,f,20,r,1,(-121.76378772032352, -121.76378772032348),26,5,2,no,m,6,m,0.6795132000006561,1,84,test1,3,0.6796271999992314,-38.0
21,chj,f,20,r,1,(1.0544208940658713e-14, 172.20000000000002),23,5,2,yes,x,5,x,0.5527853000003233,1,85,test1,3,0.5528857999997854,-40.0
21,chj,f,20,r,1,(-121.76378772032348, 121.76378772032349),24,25,4,no,m,6,m,1.205817100000786,1,86,test1,3,1.2061259999991307,-40.0
21,chj,f,20,r,1,(121.76378772032346, -121.76378772032352),28,25,4,yes,x,5,x,0.5443118000002869,1,87,test1,3,0.5445365000014135,-20.0
21,chj,f,20,r,1,(-3.163262682197613e-14, -172.20000000000002),27,-3,11,no,m,6,m,0.5541276000003563,1,88,test1,3,0.5542322999990574,-20.0
21,chj,f,20,r,1,(-172.20000000000002, 2.1088417881317425e-14),25,7,3,yes,x,5,x,0.40730530000109866,1,89,test1,3,0.40760079999927257,-38.0
21,chj,f,20,r,1,(-172.20000000000002, 2.1088417881317425e-14),25,-5,12,yes,x,5,x,0.5036846999992122,1,90,test1,3,0.5039312999997492,-50.0
21,chj,f,20,r,1,(1.0544208940658713e-14, 172.20000000000002),23,3,1,yes,x,5,m,0.952544100000523,0,91,test1,3,0.9526892999983829,-42.0
21,chj,f,20,r,1,(121.76378772032346, -121.76378772032352),28,7,3,no,m,6,m,0.8661267999996198,1,92,test1,3,0.8662478999995074,-42.0
21,chj,f,20,r,1,(121.76378772032349, 121.76378772032349),22,-5,12,no,m,6,m,0.7625296999995044,1,93,test1,3,0.7628865000006044,-42.0
21,chj,f,20,r,1,(172.20000000000002, 0.0),21,7,3,yes,x,5,x,0.5500785999993241,1,94,test1,3,0.5503818999986834,-38.0
21,chj,f,20,r,1,(-172.20000000000002, 2.1088417881317425e-14),25,7,3,no,m,6,m,1.1361541000005673,1,95,test1,3,1.1363646000008885,-38.0
21,chj,f,20,r,1,(121.76378772032349, 121.76378772032349),22,3,1,no,m,6,m,0.6638635999988765,1,96,test1,3,0.6640244000009261,-38.0
21,chj,f,20,r,1,(-121.76378772032348, 121.76378772032349),24,-5,12,yes,x,5,x,0.7059212000003754,1,1,test2,3,0.7060254999996687,-50.0
21,chj,f,20,r,1,(121.76378772032349, 121.76378772032349),22,7,3,no,m,6,m,0.6334428000009211,1,2,test2,3,0.6335565999997925,-50.0
21,chj,f,20,r,1,(172.20000000000002, 0.0),21,7,3,no,m,6,m,0.6416121999991447,1,3,test2,3,0.6421043999998801,-50.0
21,chj,f,20,r,1,(-172.20000000000002, 2.1088417881317425e-14),25,25,4,no,m,6,m,0.5839410999997199,1,4,test2,3,0.584055499999522,-50.0
21,chj,f,20,r,1,(-121.76378772032352, -121.76378772032348),26,-25,14,yes,x,5,x,0.4253432999994402,1,5,test2,3,0.4258776000006037,-70.0
21,chj,f,20,r,1,(-121.76378772032348, 121.76378772032349),24,-3,11,yes,x,5,x,1.1466943999985233,1,6,test2,3,1.1468002000001434,-48.0
21,chj,f,20,r,1,(121.76378772032346, -121.76378772032352),28,-7,13,no,m,6,m,0.5895753000004333,1,7,test2,3,0.589677699999811,-48.0
21,chj,f,20,r,1,(121.76378772032349, 121.76378772032349),22,-3,11,yes,x,5,x,0.8527942999990046,1,8,test2,3,0.8528986999990593,-48.0
21,chj,f,20,r,1,(-172.20000000000002, 2.1088417881317425e-14),25,-25,14,no,m,6,m,0.49215000000003783,1,9,test2,3,0.4922507000010228,-48.0
21,chj,f,20,r,1,(-3.163262682197613e-14, -172.20000000000002),27,5,2,yes,x,5,x,0.5231925000007323,1,10,test2,3,0.5233757000005426,-40.0
21,chj,f,20,r,1,(121.76378772032346, -121.76378772032352),28,3,1,no,m,6,m,0.6361972000013338,1,11,test2,3,0.6364012000012735,-40.0
21,chj,f,20,r,1,(121.76378772032346, -121.76378772032352),28,-5,12,yes,x,5,x,0.6845425999999861,1,12,test2,3,0.6851002000003064,-50.0
21,chj,f,20,r,1,(172.20000000000002, 0.0),21,7,3,yes,x,5,x,0.6958951000015077,1,13,test2,3,0.6960455000007642,-38.0
21,chj,f,20,r,1,(-172.20000000000002, 2.1088417881317425e-14),25,-7,13,yes,x,5,x,0.8011407000012696,1,14,test2,3,0.8016179999995074,-52.0
21,chj,f,20,r,1,(1.0544208940658713e-14, 172.20000000000002),23,-7,13,yes,x,5,x,0.5359285999984422,1,15,test2,3,0.5360582000012073,-52.0
21,chj,f,20,r,1,(1.0544208940658713e-14, 172.20000000000002),23,-3,11,yes,x,5,x,0.6622030999988056,1,16,test2,3,0.6625526000007085,-48.0
21,chj,f,20,r,1,(1.0544208940658713e-14, 172.20000000000002),23,5,2,no,m,6,m,1.009411299999556,1,17,test2,3,1.009976800000004,-48.0
21,chj,f,20,r,1,(-121.76378772032348, 121.76378772032349),24,-3,11,no,m,6,m,0.7797456999996939,1,18,test2,3,0.7798700999992434,-48.0
21,chj,f,20,r,1,(-3.163262682197613e-14, -172.20000000000002),27,5,2,no,m,6,m,0.6896808000001329,1,19,test2,3,0.6898099000009097,-48.0
21,chj,f,20,r,1,(121.76378772032349, 121.76378772032349),22,5,2,no,m,6,m,0.5949244000003091,1,20,test2,3,0.5950365999997302,-48.0
21,chj,f,20,r,1,(-3.163262682197613e-14, -172.20000000000002),27,-5,12,yes,x,5,x,0.6931165000005421,1,21,test2,3,0.6932446000009804,-50.0
21,chj,f,20,r,1,(-121.76378772032352, -121.76378772032348),26,-3,11,yes,x,5,x,0.7681807999997545,1,22,test2,3,0.7683422000009159,-48.0
21,chj,f,20,r,1,(121.76378772032346, -121.76378772032352),28,-25,14,yes,x,5,x,0.7572588999992149,1,23,test2,3,0.7576874999995198,-70.0
21,chj,f,20,r,1,(-172.20000000000002, 2.1088417881317425e-14),25,7,3,yes,x,5,x,0.5127931999995781,1,24,test2,3,0.5132057999999233,-38.0
21,chj,f,20,r,1,(-121.76378772032348, 121.76378772032349),24,7,3,no,m,6,m,0.9350445000000036,1,25,test2,3,0.935175500000696,-38.0
21,chj,f,20,r,1,(121.76378772032349, 121.76378772032349),22,-25,14,yes,x,5,x,0.5296323000002303,1,26,test2,3,0.5297231000004103,-70.0
21,chj,f,20,r,1,(-3.163262682197613e-14, -172.20000000000002),27,3,1,no,m,6,m,0.6441568999998708,1,27,test2,3,0.6443239000000176,-70.0
21,chj,f,20,r,1,(-172.20000000000002, 2.1088417881317425e-14),25,-5,12,no,m,6,m,0.5561629999992874,1,28,test2,3,0.5563280999995186,-70.0
21,chj,f,20,r,1,(121.76378772032346, -121.76378772032352),28,-25,14,yes,x,5,x,0.5943246000006184,1,29,test2,3,0.5945577999991656,-70.0
21,chj,f,20,r,1,(-121.76378772032352, -121.76378772032348),26,3,1,no,m,6,m,0.7156258999984857,1,30,test2,3,0.7161335999990115,-70.0
21,chj,f,20,r,1,(1.0544208940658713e-14, 172.20000000000002),23,-7,13,no,m,6,m,0.6045127000015782,1,31,test2,3,0.604614699999729,-70.0
21,chj,f,20,r,1,(-121.76378772032352, -121.76378772032348),26,-3,11,yes,x,5,x,0.9468799999995099,1,32,test2,3,0.9470005000002857,-48.0
21,chj,f,20,r,1,(-3.163262682197613e-14, -172.20000000000002),27,-3,11,yes,x,5,x,0.6841887000009592,1,33,test2,3,0.684387200000856,-48.0
21,chj,f,20,r,1,(121.76378772032349, 121.76378772032349),22,25,4,yes,x,5,x,0.5873045999996975,1,34,test2,3,0.5879055000004882,-20.0
21,chj,f,20,r,1,(121.76378772032349, 121.76378772032349),22,-3,11,no,m,6,m,0.8295908000000054,1,35,test2,3,0.8297209000011208,-20.0
21,chj,f,20,r,1,(-172.20000000000002, 2.1088417881317425e-14),25,-25,14,yes,x,5,x,0.42568219999884604,1,36,test2,3,0.42597399999976915,-70.0
21,chj,f,20,r,1,(172.20000000000002, 0.0),21,5,2,yes,x,5,x,0.7329095999994024,1,37,test2,3,0.7331242999989627,-40.0
21,chj,f,20,r,1,(-172.20000000000002, 2.1088417881317425e-14),25,3,1,yes,x,5,x,0.8156296999986807,1,38,test2,3,0.8161514999992505,-42.0
21,chj,f,20,r,1,(1.0544208940658713e-14, 172.20000000000002),23,-25,14,yes,x,5,x,0.4915597999988677,1,39,test2,3,0.4917286999989301,-70.0
21,chj,f,20,r,1,(-121.76378772032348, 121.76378772032349),24,-25,14,no,m,6,m,0.7609173000000737,1,40,test2,3,0.7610394000002998,-70.0
21,chj,f,20,r,1,(-3.163262682197613e-14, -172.20000000000002),27,-3,11,yes,x,5,x,0.7860812999988411,1,41,test2,3,0.78618219999953,-48.0
21,chj,f,20,r,1,(-3.163262682197613e-14, -172.20000000000002),27,-5,12,yes,x,5,x,0.4971298000000388,1,42,test2,3,0.49734369999896444,-50.0
21,chj,f,20,r,1,(121.76378772032349, 121.76378772032349),22,-7,13,yes,x,5,x,0.579944200000682,1,43,test2,3,0.5802638000004663,-52.0
21,chj,f,20,r,1,(1.0544208940658713e-14, 172.20000000000002),23,3,1,yes,x,5,x,0.5818102000012004,1,44,test2,3,0.5822011999989627,-42.0
21,chj,f,20,r,1,(172.20000000000002, 0.0),21,-25,14,no,m,6,m,0.7299829000003228,1,45,test2,3,0.730459599999449,-42.0
21,chj,f,20,r,1,(1.0544208940658713e-14, 172.20000000000002),23,-5,12,no,m,6,m,0.7029134999993403,1,46,test2,3,0.7030458999997791,-42.0
21,chj,f,20,r,1,(1.0544208940658713e-14, 172.20000000000002),23,-25,14,no,m,6,m,0.5877061999999569,1,47,test2,3,0.5878086000011535,-42.0
21,chj,f,20,r,1,(-121.76378772032352, -121.76378772032348),26,25,4,yes,x,5,x,0.5336095000002388,1,48,test2,3,0.5340183000007528,-20.0
21,chj,f,20,r,1,(121.76378772032349, 121.76378772032349),22,5,2,yes,x,5,x,0.8335917000003974,1,49,test2,3,0.8337677999988955,-40.0
21,chj,f,20,r,1,(-3.163262682197613e-14, -172.20000000000002),27,7,3,yes,x,5,x,0.5071609000005992,1,50,test2,3,0.5073523000010027,-38.0
21,chj,f,20,r,1,(121.76378772032346, -121.76378772032352),28,-7,13,yes,x,5,x,0.8420872999995481,1,51,test2,3,0.8422191000008752,-52.0
21,chj,f,20,r,1,(121.76378772032349, 121.76378772032349),22,-5,12,yes,x,5,x,0.5578528000005463,1,52,test2,3,0.5582134000014776,-50.0
21,chj,f,20,r,1,(121.76378772032346, -121.76378772032352),28,-3,11,yes,x,5,x,0.5990060999993148,1,53,test2,3,0.5991680999995879,-48.0
21,chj,f,20,r,1,(-121.76378772032348, 121.76378772032349),24,7,3,yes,x,5,x,0.48769630000060715,1,54,test2,3,0.48780360000091605,-38.0
21,chj,f,20,r,1,(172.20000000000002, 0.0),21,25,4,yes,x,5,x,1.1236702999995032,1,55,test2,3,1.124210399999356,-20.0
21,chj,f,20,r,1,(-121.76378772032348, 121.76378772032349),24,3,1,yes,x,5,x,0.887848500000473,1,56,test2,3,0.8890906000015093,-42.0
21,chj,f,20,r,1,(-172.20000000000002, 2.1088417881317425e-14),25,3,1,yes,x,5,x,0.6753032999986317,1,57,test2,3,0.675589200000104,-42.0
21,chj,f,20,r,1,(-121.76378772032348, 121.76378772032349),24,-7,13,yes,x,5,x,1.0457939999996597,1,58,test2,3,1.0458978000006027,-52.0
21,chj,f,20,r,1,(-3.163262682197613e-14, -172.20000000000002),27,-25,14,yes,x,5,x,0.5994801000015286,1,59,test2,3,0.5997381999986828,-70.0
21,chj,f,20,r,1,(-172.20000000000002, 2.1088417881317425e-14),25,-25,14,yes,x,5,x,0.5233382999995229,1,60,test2,3,0.5237539000008837,-70.0
21,chj,f,20,r,1,(121.76378772032349, 121.76378772032349),22,-7,13,yes,x,5,x,0.888679099998626,1,61,test2,3,0.8887825000001612,-52.0
21,chj,f,20,r,1,(172.20000000000002, 0.0),21,5,2,yes,x,5,x,0.6246592000006785,1,62,test2,3,0.624761999999464,-40.0
21,chj,f,20,r,1,(-3.163262682197613e-14, -172.20000000000002),27,-5,12,no,m,6,m,0.8302641999998741,1,63,test2,3,0.830567200000587,-40.0
21,chj,f,20,r,1,(-121.76378772032352, -121.76378772032348),26,-5,12,no,m,6,m,0.7341070000002219,1,64,test2,3,0.7342401999994763,-40.0
21,chj,f,20,r,1,(121.76378772032349, 121.76378772032349),22,7,3,yes,x,5,x,0.5705056000006152,1,65,test2,3,0.5706014999996114,-38.0
21,chj,f,20,r,1,(-3.163262682197613e-14, -172.20000000000002),27,3,1,yes,x,5,x,0.8167792000003828,1,66,test2,3,0.8170161000016378,-42.0
21,chj,f,20,r,1,(-3.163262682197613e-14, -172.20000000000002),27,-25,14,no,m,6,m,1.0219560999994428,1,67,test2,3,1.0224751999994623,-42.0
21,chj,f,20,r,1,(-172.20000000000002, 2.1088417881317425e-14),25,25,4,yes,x,5,x,0.5901475999999093,1,68,test2,3,0.5902511999993294,-20.0
21,chj,f,20,r,1,(-3.163262682197613e-14, -172.20000000000002),27,-7,13,yes,x,5,x,0.6547422999992705,1,69,test2,3,0.6548445000007632,-52.0
21,chj,f,20,r,1,(172.20000000000002, 0.0),21,-7,13,yes,x,5,x,0.5758385999997699,1,70,test2,3,0.5760587000004307,-52.0
21,chj,f,20,r,1,(172.20000000000002, 0.0),21,5,2,no,m,6,m,0.6419967000001634,1,71,test2,3,0.6420987000001332,-52.0
21,chj,f,20,r,1,(1.0544208940658713e-14, 172.20000000000002),23,-3,11,no,m,6,m,0.6059450000011566,1,72,test2,3,0.606161499999871,-52.0
21,chj,f,20,r,1,(-121.76378772032348, 121.76378772032349),24,5,2,no,m,6,m,0.6185254999982135,1,73,test2,3,0.6186871000008978,-52.0
21,chj,f,20,r,1,(-3.163262682197613e-14, -172.20000000000002),27,-25,14,yes,x,5,x,0.5421243000000686,1,74,test2,3,0.542233699999997,-70.0
21,chj,f,20,r,1,(121.76378772032346, -121.76378772032352),28,3,1,yes,x,5,x,0.7666121000002022,1,75,test2,3,0.7668640000010782,-42.0
21,chj,f,20,r,1,(-121.76378772032348, 121.76378772032349),24,5,2,yes,x,5,x,0.6961920000012469,1,76,test2,3,0.69693929999994,-40.0
21,chj,f,20,r,1,(-121.76378772032352, -121.76378772032348),26,-7,13,yes,x,5,x,0.956148100000064,1,77,test2,3,0.956282299999657,-52.0
21,chj,f,20,r,1,(-172.20000000000002, 2.1088417881317425e-14),25,5,2,no,m,6,m,0.7411195999993652,1,78,test2,3,0.7412781000002724,-52.0
21,chj,f,20,r,1,(172.20000000000002, 0.0),21,-25,14,yes,x,5,x,0.5497064999999566,1,79,test2,3,0.549817000000985,-70.0
21,chj,f,20,r,1,(-172.20000000000002, 2.1088417881317425e-14),25,-7,13,no,m,6,m,0.5810899000007339,1,80,test2,3,0.5813956000001781,-70.0
21,chj,f,20,r,1,(-121.76378772032348, 121.76378772032349),24,-5,12,yes,x,5,x,0.5913354000003892,1,81,test2,3,0.5914990000001126,-50.0
21,chj,f,20,r,1,(-172.20000000000002, 2.1088417881317425e-14),25,5,2,yes,x,5,x,0.47401580000041577,1,82,test2,3,0.47414519999983895,-40.0
21,chj,f,20,r,1,(-121.76378772032352, -121.76378772032348),26,5,2,yes,x,5,x,0.4574277000010625,1,83,test2,3,0.45780650000051537,-40.0
21,chj,f,20,r,1,(1.0544208940658713e-14, 172.20000000000002),23,-3,11,yes,x,5,x,0.7126824999995733,1,84,test2,3,0.7130837000004249,-48.0
21,chj,f,20,r,1,(-121.76378772032352, -121.76378772032348),26,25,4,no,m,6,m,0.6909617000001163,1,85,test2,3,0.6911280999993323,-48.0
21,chj,f,20,r,1,(-121.76378772032348, 121.76378772032349),24,-7,13,yes,x,5,x,0.4473070000003645,1,86,test2,3,0.4474199000014778,-52.0
21,chj,f,20,r,1,(121.76378772032346, -121.76378772032352),28,-5,12,yes,x,5,x,0.661820400000579,1,87,test2,3,0.6619913000013185,-50.0
21,chj,f,20,r,1,(-3.163262682197613e-14, -172.20000000000002),27,25,4,yes,x,5,x,0.4567650000008143,1,88,test2,3,0.45772690000012517,-20.0
21,chj,f,20,r,1,(172.20000000000002, 0.0),21,-3,11,yes,x,5,m,0.9183467000002565,0,89,test2,3,0.9184476999998878,-48.0
21,chj,f,20,r,1,(-121.76378772032352, -121.76378772032348),26,7,3,yes,x,5,x,0.5314878000008321,1,90,test2,3,0.5316155000000435,-38.0
21,chj,f,20,r,1,(121.76378772032346, -121.76378772032352),28,-5,12,no,m,6,m,0.8508686999994097,1,91,test2,3,0.8509724999985337,-38.0
21,chj,f,20,r,1,(121.76378772032346, -121.76378772032352),28,5,2,yes,x,5,x,0.5144201000002795,1,92,test2,3,0.5146519999998418,-40.0
21,chj,f,20,r,1,(1.0544208940658713e-14, 172.20000000000002),23,7,3,no,m,6,m,1.2919086000001698,1,93,test2,3,1.2920245000004797,-40.0
21,chj,f,20,r,1,(121.76378772032349, 121.76378772032349),22,-7,13,no,m,6,m,0.7120290000002569,1,94,test2,3,0.7124134000005142,-40.0
21,chj,f,20,r,1,(-121.76378772032348, 121.76378772032349),24,-25,14,yes,x,5,x,0.3989716000014596,1,95,test2,3,0.3990948999999091,-70.0
21,chj,f,20,r,1,(172.20000000000002, 0.0),21,-3,11,yes,x,5,x,0.9573576999991928,1,96,test2,3,0.9579864000006637,-48.0
21,chj,f,20,r,1,(121.76378772032346, -121.76378772032352),28,7,3,yes,x,5,x,0.5718756999995094,1,1,test1,4,0.5719807999994373,-38.0
21,chj,f,20,r,1,(121.76378772032349, 121.76378772032349),22,7,3,yes,x,5,x,0.5875374999995984,1,2,test1,4,0.5876347999983409,-38.0
21,chj,f,20,r,1,(1.0544208940658713e-14, 172.20000000000002),23,5,2,yes,x,5,x,0.4970432999998593,1,3,test1,4,0.4974036999992677,-40.0
21,chj,f,20,r,1,(1.0544208940658713e-14, 172.20000000000002),23,7,3,yes,x,5,x,0.5195617999997921,1,4,test1,4,0.5202075999986846,-38.0
21,chj,f,20,r,1,(1.0544208940658713e-14, 172.20000000000002),23,7,3,yes,x,5,x,0.45364800000061223,1,5,test1,4,0.45377490000100806,-38.0
21,chj,f,20,r,1,(-121.76378772032348, 121.76378772032349),24,7,3,yes,x,5,x,0.5400089000013395,1,6,test1,4,0.5401849999998376,-38.0
21,chj,f,20,r,1,(172.20000000000002, 0.0),21,3,1,yes,x,5,x,0.687551800001529,1,7,test1,4,0.6880629000006593,-42.0
21,chj,f,20,r,1,(121.76378772032346, -121.76378772032352),28,-3,11,yes,x,5,x,0.9538759000006394,1,8,test1,4,0.9542526000004727,-48.0
21,chj,f,20,r,1,(-3.163262682197613e-14, -172.20000000000002),27,-7,13,no,m,6,m,0.8918200000007346,1,9,test1,4,0.8919512000011309,-48.0
21,chj,f,20,r,1,(172.20000000000002, 0.0),21,-5,12,yes,x,5,x,0.5979387999996106,1,10,test1,4,0.5982239000004483,-50.0
21,chj,f,20,r,1,(121.76378772032346, -121.76378772032352),28,5,2,no,m,6,m,0.8773333000008279,1,11,test1,4,0.8776166000006924,-50.0
21,chj,f,20,r,1,(-3.163262682197613e-14, -172.20000000000002),27,25,4,yes,x,5,x,0.6221806999983528,1,12,test1,4,0.6222820000002685,-20.0
21,chj,f,20,r,1,(121.76378772032346, -121.76378772032352),28,-25,14,no,m,6,m,0.7203854999988835,1,13,test1,4,0.7206717000008211,-20.0
21,chj,f,20,r,1,(121.76378772032346, -121.76378772032352),28,-3,11,no,m,6,m,0.7027422999999544,1,14,test1,4,0.7030291000010038,-20.0
21,chj,f,20,r,1,(121.76378772032349, 121.76378772032349),22,-5,12,yes,x,5,x,0.5484218999990844,1,15,test1,4,0.5491438999997627,-50.0
21,chj,f,20,r,1,(121.76378772032346, -121.76378772032352),28,-7,13,yes,x,5,x,0.6169535999997606,1,16,test1,4,0.6172932999998011,-52.0
21,chj,f,20,r,1,(-121.76378772032348, 121.76378772032349),24,3,1,no,m,6,m,0.6894976000003226,1,17,test1,4,0.6896594999998342,-52.0
21,chj,f,20,r,1,(121.76378772032346, -121.76378772032352),28,7,3,yes,x,5,x,0.5619649999989633,1,18,test1,4,0.5622170999995433,-38.0
21,chj,f,20,r,1,(172.20000000000002, 0.0),21,25,4,yes,x,5,x,0.4674287000016193,1,19,test1,4,0.4675250000000233,-20.0
21,chj,f,20,r,1,(-121.76378772032348, 121.76378772032349),24,3,1,yes,x,5,x,0.7480993999997736,1,20,test1,4,0.7486848999997164,-42.0
21,chj,f,20,r,1,(121.76378772032349, 121.76378772032349),22,-3,11,yes,x,5,x,0.9420444000006682,1,21,test1,4,0.9422264999993786,-48.0
21,chj,f,20,r,1,(-172.20000000000002, 2.1088417881317425e-14),25,-7,13,yes,x,5,x,0.597302000000127,1,22,test1,4,0.5975909999997384,-52.0
21,chj,f,20,r,1,(-172.20000000000002, 2.1088417881317425e-14),25,3,1,no,m,6,m,1.2170468999993318,1,23,test1,4,1.2173067000003357,-52.0
21,chj,f,20,r,1,(1.0544208940658713e-14, 172.20000000000002),23,-5,12,yes,x,5,x,0.969474600000467,1,24,test1,4,0.9699122999991232,-50.0
21,chj,f,20,r,1,(121.76378772032349, 121.76378772032349),22,3,1,yes,x,5,x,0.7713841000004322,1,25,test1,4,0.7717960000009043,-42.0
21,chj,f,20,r,1,(-121.76378772032352, -121.76378772032348),26,-25,14,no,m,6,m,1.07687260000057,1,26,test1,4,1.0770044999990205,-42.0
21,chj,f,20,r,1,(121.76378772032349, 121.76378772032349),22,3,1,yes,x,5,x,0.7287842000005185,1,27,test1,4,0.7289858999993157,-42.0
21,chj,f,20,r,1,(1.0544208940658713e-14, 172.20000000000002),23,-25,14,yes,x,5,x,0.6399394000000029,1,28,test1,4,0.6400403999996342,-70.0
21,chj,f,20,r,1,(-121.76378772032352, -121.76378772032348),26,3,1,yes,x,5,x,0.7617607000011049,1,29,test1,4,0.7620007000004989,-42.0
21,chj,f,20,r,1,(-172.20000000000002, 2.1088417881317425e-14),25,25,4,yes,x,5,x,0.4321356000000378,1,30,test1,4,0.43225250000068627,-20.0
21,chj,f,20,r,1,(-121.76378772032348, 121.76378772032349),24,-7,13,no,m,6,m,0.714369399998759,1,31,test1,4,0.7144701999986864,-20.0
21,chj,f,20,r,1,(172.20000000000002, 0.0),21,3,1,yes,x,5,x,0.7654990999999427,1,32,test1,4,0.7656527999988612,-42.0
21,chj,f,20,r,1,(-3.163262682197613e-14, -172.20000000000002),27,5,2,yes,x,5,x,0.5548632999998517,1,33,test1,4,0.5549898999997822,-40.0
21,chj,f,20,r,1,(-121.76378772032352, -121.76378772032348),26,25,4,yes,x,5,x,0.4112003000009281,1,34,test1,4,0.4113030999997136,-20.0
21,chj,f,20,r,1,(1.0544208940658713e-14, 172.20000000000002),23,-5,12,yes,x,5,x,0.5434800000002724,1,35,test1,4,0.5441429999991669,-50.0
21,chj,f,20,r,1,(-121.76378772032348, 121.76378772032349),24,25,4,yes,x,5,x,0.4807682999999088,1,36,test1,4,0.48087180000038643,-20.0
21,chj,f,20,r,1,(-121.76378772032348, 121.76378772032349),24,-25,14,yes,x,5,x,0.6314764999988256,1,37,test1,4,0.6315840000006574,-70.0
21,chj,f,20,r,1,(1.0544208940658713e-14, 172.20000000000002),23,25,4,no,m,6,m,0.6919840999998996,1,38,test1,4,0.692611599999509,-70.0
21,chj,f,20,r,1,(-3.163262682197613e-14, -172.20000000000002),27,25,4,no,m,6,m,1.0005321000007825,1,39,test1,4,1.0006312000004982,-70.0
21,chj,f,20,r,1,(-121.76378772032348, 121.76378772032349),24,25,4,yes,x,5,x,0.43574699999953737,1,40,test1,4,0.4359114999988378,-20.0
21,chj,f,20,r,1,(172.20000000000002, 0.0),21,25,4,no,m,6,m,0.6358826999985467,1,41,test1,4,0.636297499999273,-20.0
21,chj,f,20,r,1,(121.76378772032346, -121.76378772032352),28,3,1,yes,x,5,x,0.6467748999984906,1,42,test1,4,0.647658699999738,-42.0
21,chj,f,20,r,1,(-3.163262682197613e-14, -172.20000000000002),27,3,1,yes,x,5,x,0.5134449999986828,1,43,test1,4,0.5139044999996258,-42.0
21,chj,f,20,r,1,(-121.76378772032352, -121.76378772032348),26,-7,13,yes,x,5,x,0.6512715999997454,1,44,test1,4,0.6515246999988449,-52.0
21,chj,f,20,r,1,(-3.163262682197613e-14, -172.20000000000002),27,-7,13,yes,x,5,x,0.5355973000005179,1,45,test1,4,0.5356985999987955,-52.0
21,chj,f,20,r,1,(-121.76378772032352, -121.76378772032348),26,7,3,yes,x,5,x,0.49253239999961806,1,46,test1,4,0.4927458000001934,-38.0
21,chj,f,20,r,1,(-121.76378772032352, -121.76378772032348),26,-7,13,no,m,6,m,0.8017348000012134,1,47,test1,4,0.8020795000011276,-38.0
21,chj,f,20,r,1,(172.20000000000002, 0.0),21,-5,12,yes,x,5,x,0.7103600999998889,1,48,test1,4,0.7104589999999007,-50.0
21,chj,f,20,r,1,(-172.20000000000002, 2.1088417881317425e-14),25,-3,11,no,m,6,m,0.8286109999990003,1,49,test1,4,0.8287134999991395,-50.0
21,chj,f,20,r,1,(-121.76378772032352, -121.76378772032348),26,5,2,yes,x,5,x,0.6831839000005857,1,50,test1,4,0.6833114999990357,-40.0
21,chj,f,20,r,1,(-121.76378772032348, 121.76378772032349),24,5,2,yes,x,5,x,0.4738558000008197,1,51,test1,4,0.4741503000004741,-40.0
21,chj,f,20,r,1,(121.76378772032349, 121.76378772032349),22,25,4,yes,x,5,x,0.5753853999995044,1,52,test1,4,0.5755146999999852,-20.0
21,chj,f,20,r,1,(-3.163262682197613e-14, -172.20000000000002),27,7,3,no,m,6,m,0.6272308999996312,1,53,test1,4,0.6274696999989828,-20.0
21,chj,f,20,r,1,(1.0544208940658713e-14, 172.20000000000002),23,-7,13,yes,x,5,x,0.635263500000292,1,54,test1,4,0.6354759999994712,-52.0
21,chj,f,20,r,1,(-172.20000000000002, 2.1088417881317425e-14),25,5,2,yes,x,5,x,0.5474869999998191,1,55,test1,4,0.547627800000555,-40.0
21,chj,f,20,r,1,(1.0544208940658713e-14, 172.20000000000002),23,25,4,yes,x,5,x,0.5493581000009726,1,56,test1,4,0.5496992000007594,-20.0
21,chj,f,20,r,1,(172.20000000000002, 0.0),21,3,1,no,m,6,m,0.6347316999999748,1,57,test1,4,0.6348350000007486,-20.0
21,chj,f,20,r,1,(-121.76378772032348, 121.76378772032349),24,-3,11,yes,x,5,x,0.7342489000002388,1,58,test1,4,0.7344293000005564,-48.0
21,chj,f,20,r,1,(-121.76378772032352, -121.76378772032348),26,3,1,yes,x,5,x,0.9374624000010954,1,59,test1,4,0.9376660000016273,-42.0
21,chj,f,20,r,1,(-172.20000000000002, 2.1088417881317425e-14),25,-3,11,yes,x,5,x,0.5895476999994571,1,60,test1,4,0.590190299999449,-48.0
21,chj,f,20,r,1,(172.20000000000002, 0.0),21,-25,14,yes,x,5,x,0.4846035999999003,1,61,test1,4,0.48492170000099577,-70.0
21,chj,f,20,r,1,(172.20000000000002, 0.0),21,-7,13,no,m,6,m,0.6297178999993776,1,62,test1,4,0.6299168999994436,-70.0
21,chj,f,20,r,1,(121.76378772032346, -121.76378772032352),28,25,4,no,m,6,m,0.833297200000743,1,63,test1,4,0.8333949999996548,-70.0
21,chj,f,20,r,1,(121.76378772032349, 121.76378772032349),22,-25,14,no,m,6,m,0.660068200000751,1,64,test1,4,0.6601673999994091,-70.0
21,chj,f,20,r,1,(172.20000000000002, 0.0),21,-5,12,no,m,6,m,0.8478548000002775,1,65,test1,4,0.8480305000011867,-70.0
21,chj,f,20,r,1,(1.0544208940658713e-14, 172.20000000000002),23,25,4,yes,x,5,x,0.592301700000462,1,66,test1,4,0.5924666999999317,-20.0
21,chj,f,20,r,1,(-121.76378772032348, 121.76378772032349),24,-5,12,no,m,6,m,0.6302150000010442,1,67,test1,4,0.6303791999998793,-20.0
21,chj,f,20,r,1,(121.76378772032346, -121.76378772032352),28,5,2,yes,x,5,x,0.6079644999990705,1,68,test1,4,0.6081340999990061,-40.0
21,chj,f,20,r,1,(121.76378772032346, -121.76378772032352),28,25,4,yes,x,5,x,0.5122264000001451,1,69,test1,4,0.5123917000000802,-20.0
21,chj,f,20,r,1,(121.76378772032349, 121.76378772032349),22,5,2,yes,x,5,x,0.6222025999995822,1,70,test1,4,0.6223590999998123,-40.0
21,chj,f,20,r,1,(-121.76378772032352, -121.76378772032348),26,-3,11,no,m,6,m,0.6726512999994156,1,71,test1,4,0.6727647999996407,-40.0
21,chj,f,20,r,1,(-121.76378772032352, -121.76378772032348),26,-25,14,yes,x,5,x,0.7493916000003082,1,72,test1,4,0.7495189000001119,-70.0
21,chj,f,20,r,1,(-172.20000000000002, 2.1088417881317425e-14),25,-5,12,yes,x,5,x,0.8577877999996417,1,73,test1,4,0.857885699999315,-50.0
21,chj,f,20,r,1,(121.76378772032349, 121.76378772032349),22,25,4,no,m,6,m,0.6806151000000682,1,74,test1,4,0.6808231999984855,-50.0
21,chj,f,20,r,1,(121.76378772032349, 121.76378772032349),22,-25,14,yes,x,5,x,0.5739071999996668,1,75,test1,4,0.5741964999997435,-70.0
21,chj,f,20,r,1,(172.20000000000002, 0.0),21,-7,13,yes,x,5,x,0.5490950000003068,1,76,test1,4,0.5493616000003385,-52.0
21,chj,f,20,r,1,(-121.76378772032352, -121.76378772032348),26,-5,12,yes,x,5,x,1.0806353999996645,1,77,test1,4,1.0808589000007487,-50.0
21,chj,f,20,r,1,(-121.76378772032352, -121.76378772032348),26,-5,12,yes,x,5,x,0.6987081000006583,1,78,test1,4,0.6991644000008819,-50.0
21,chj,f,20,r,1,(-121.76378772032352, -121.76378772032348),26,7,3,no,m,6,m,0.6624243999995088,1,79,test1,4,0.6625291000000288,-50.0
21,chj,f,20,r,1,(-172.20000000000002, 2.1088417881317425e-14),25,-3,11,yes,x,5,x,0.6340218999994249,1,80,test1,4,0.6342989999993733,-48.0
21,chj,f,20,r,1,(-3.163262682197613e-14, -172.20000000000002),27,7,3,yes,x,5,x,0.8340075999985856,1,81,test1,4,0.8345158000010997,-38.0
21,chj,f,20,r,1,(1.0544208940658713e-14, 172.20000000000002),23,3,1,no,m,6,m,0.729105399999753,1,82,test1,4,0.7293294000010064,-38.0
21,chj,f,20,r,1,(172.20000000000002, 0.0),21,-3,11,no,m,6,m,1.0839947999993456,1,83,test1,4,1.0841240999998263,-38.0
21,chj,f,20,r,1,(-121.76378772032352, -121.76378772032348),26,5,2,no,m,6,m,0.5816266000001633,1,84,test1,4,0.5817950000000565,-38.0
21,chj,f,20,r,1,(1.0544208940658713e-14, 172.20000000000002),23,5,2,yes,x,5,x,0.8224105000008421,1,85,test1,4,0.8225268999995023,-40.0
21,chj,f,20,r,1,(-121.76378772032348, 121.76378772032349),24,25,4,no,m,6,m,0.536126000000877,1,86,test1,4,0.5362402999999176,-40.0
21,chj,f,20,r,1,(121.76378772032346, -121.76378772032352),28,25,4,yes,x,5,x,0.5616967000005388,1,87,test1,4,0.5621066000003339,-20.0
21,chj,f,20,r,1,(-3.163262682197613e-14, -172.20000000000002),27,-3,11,no,m,6,m,1.2515827999995963,1,88,test1,4,1.2519967000007455,-20.0
21,chj,f,20,r,1,(-172.20000000000002, 2.1088417881317425e-14),25,7,3,yes,x,5,x,0.7646394000003056,1,89,test1,4,0.7649471000004269,-38.0
21,chj,f,20,r,1,(-172.20000000000002, 2.1088417881317425e-14),25,-5,12,yes,x,5,x,0.820354800000132,1,90,test1,4,0.8209941000004619,-50.0
21,chj,f,20,r,1,(1.0544208940658713e-14, 172.20000000000002),23,3,1,yes,x,5,x,0.7460184000010486,1,91,test1,4,0.7465881000007357,-42.0
21,chj,f,20,r,1,(121.76378772032346, -121.76378772032352),28,7,3,no,m,6,m,1.6395240999991074,1,92,test1,4,1.6398492000007536,-42.0
21,chj,f,20,r,1,(121.76378772032349, 121.76378772032349),22,-5,12,no,m,6,m,0.6733593999997538,1,93,test1,4,0.6736266999996587,-42.0
21,chj,f,20,r,1,(172.20000000000002, 0.0),21,7,3,yes,x,5,x,0.686304700000619,1,94,test1,4,0.6867056999999477,-38.0
21,chj,f,20,r,1,(-172.20000000000002, 2.1088417881317425e-14),25,7,3,no,m,6,m,1.2204915000002075,1,95,test1,4,1.2209720999999263,-38.0
21,chj,f,20,r,1,(121.76378772032349, 121.76378772032349),22,3,1,no,m,6,m,1.2008318999996845,1,96,test1,4,1.201014899999791,-38.0
21,chj,f,20,r,1,(-121.76378772032348, 121.76378772032349),24,-5,12,yes,x,5,x,0.8710656999992352,1,1,test2,4,0.8711708000009821,-50.0
21,chj,f,20,r,1,(121.76378772032349, 121.76378772032349),22,7,3,no,m,6,m,0.6224665000008827,1,2,test2,4,0.6226482999991276,-50.0
21,chj,f,20,r,1,(172.20000000000002, 0.0),21,7,3,no,m,6,m,0.7901904999998806,1,3,test2,4,0.790563899998233,-50.0
21,chj,f,20,r,1,(-172.20000000000002, 2.1088417881317425e-14),25,25,4,no,m,6,m,0.5635661999986041,1,4,test2,4,0.5637800000004063,-50.0
21,chj,f,20,r,1,(-121.76378772032352, -121.76378772032348),26,-25,14,yes,x,5,x,0.4574465000005148,1,5,test2,4,0.45788100000027043,-70.0
21,chj,f,20,r,1,(-121.76378772032348, 121.76378772032349),24,-3,11,yes,x,5,x,0.7429814000006445,1,6,test2,4,0.7435573000002478,-48.0
21,chj,f,20,r,1,(121.76378772032346, -121.76378772032352),28,-7,13,no,m,6,m,1.147909899998922,1,7,test2,4,1.148077400001057,-48.0
21,chj,f,20,r,1,(121.76378772032349, 121.76378772032349),22,-3,11,yes,x,5,x,0.5813973000003898,1,8,test2,4,0.5816854999993666,-48.0
21,chj,f,20,r,1,(-172.20000000000002, 2.1088417881317425e-14),25,-25,14,no,m,6,m,0.6352778000000399,1,9,test2,4,0.6355770000009215,-48.0
21,chj,f,20,r,1,(-3.163262682197613e-14, -172.20000000000002),27,5,2,yes,x,5,x,0.5399245000007795,1,10,test2,4,0.5401187999996182,-40.0
21,chj,f,20,r,1,(121.76378772032346, -121.76378772032352),28,3,1,no,m,6,m,0.7879372999996122,1,11,test2,4,0.7883777000006376,-40.0
21,chj,f,20,r,1,(121.76378772032346, -121.76378772032352),28,-5,12,yes,x,5,x,0.8397213999996893,1,12,test2,4,0.8399067999998806,-50.0
21,chj,f,20,r,1,(172.20000000000002, 0.0),21,7,3,yes,x,5,x,0.5470973999999842,1,13,test2,4,0.5472561999995378,-38.0
21,chj,f,20,r,1,(-172.20000000000002, 2.1088417881317425e-14),25,-7,13,yes,x,5,x,0.5792731999990792,1,14,test2,4,0.5795910999986518,-52.0
21,chj,f,20,r,1,(1.0544208940658713e-14, 172.20000000000002),23,-7,13,yes,x,5,x,0.5653204999998707,1,15,test2,4,0.5655349000007845,-52.0
21,chj,f,20,r,1,(1.0544208940658713e-14, 172.20000000000002),23,-3,11,yes,x,5,x,0.6194733000011183,1,16,test2,4,0.61976390000018,-48.0
21,chj,f,20,r,1,(1.0544208940658713e-14, 172.20000000000002),23,5,2,no,m,6,m,0.7108841999997821,1,17,test2,4,0.7112658999994892,-48.0
21,chj,f,20,r,1,(-121.76378772032348, 121.76378772032349),24,-3,11,no,m,6,m,0.5584911999994802,1,18,test2,4,0.5588843000004999,-48.0
21,chj,f,20,r,1,(-3.163262682197613e-14, -172.20000000000002),27,5,2,no,m,6,m,0.4858454000004713,1,19,test2,4,0.4859524000003148,-48.0
21,chj,f,20,r,1,(121.76378772032349, 121.76378772032349),22,5,2,no,m,6,m,0.5423962000004394,1,20,test2,4,0.542621099999451,-48.0
21,chj,f,20,r,1,(-3.163262682197613e-14, -172.20000000000002),27,-5,12,yes,x,5,x,0.5683296000006521,1,21,test2,4,0.5688797000002523,-50.0
21,chj,f,20,r,1,(-121.76378772032352, -121.76378772032348),26,-3,11,yes,x,5,x,0.810413499999413,1,22,test2,4,0.8107350999998744,-48.0
21,chj,f,20,r,1,(121.76378772032346, -121.76378772032352),28,-25,14,yes,x,5,x,0.7539687999997113,1,23,test2,4,0.7540688999997656,-70.0
21,chj,f,20,r,1,(-172.20000000000002, 2.1088417881317425e-14),25,7,3,yes,x,5,x,0.42266969999946014,1,24,test2,4,0.4229639999994106,-38.0
21,chj,f,20,r,1,(-121.76378772032348, 121.76378772032349),24,7,3,no,m,6,m,0.6029011000009632,1,25,test2,4,0.6031320999991294,-38.0
21,chj,f,20,r,1,(121.76378772032349, 121.76378772032349),22,-25,14,yes,x,5,x,0.48387559999900986,1,26,test2,4,0.48414340000090306,-70.0
21,chj,f,20,r,1,(-3.163262682197613e-14, -172.20000000000002),27,3,1,no,m,6,m,0.6500197000004846,1,27,test2,4,0.6501204000014695,-70.0
21,chj,f,20,r,1,(-172.20000000000002, 2.1088417881317425e-14),25,-5,12,no,m,6,m,0.6525914000012563,1,28,test2,4,0.6527580999991187,-70.0
21,chj,f,20,r,1,(121.76378772032346, -121.76378772032352),28,-25,14,yes,x,5,x,1.7322073000013916,1,29,test2,4,1.7323569999989559,-70.0
21,chj,f,20,r,1,(-121.76378772032352, -121.76378772032348),26,3,1,no,m,6,m,0.5404725999997027,1,30,test2,4,0.5405721999995876,-70.0
21,chj,f,20,r,1,(1.0544208940658713e-14, 172.20000000000002),23,-7,13,no,m,6,m,0.6347492999993847,1,31,test2,4,0.6348496999999043,-70.0
21,chj,f,20,r,1,(-121.76378772032352, -121.76378772032348),26,-3,11,yes,x,5,x,0.6934345999998186,1,32,test2,4,0.693576400000893,-48.0
21,chj,f,20,r,1,(-3.163262682197613e-14, -172.20000000000002),27,-3,11,yes,x,5,x,0.5119902999995247,1,33,test2,4,0.5122241000008216,-48.0
21,chj,f,20,r,1,(121.76378772032349, 121.76378772032349),22,25,4,yes,x,5,x,0.4728047999997216,1,34,test2,4,0.47297689999868453,-20.0
21,chj,f,20,r,1,(121.76378772032349, 121.76378772032349),22,-3,11,no,m,6,m,1.0131400999998732,1,35,test2,4,1.0132708000001003,-20.0
21,chj,f,20,r,1,(-172.20000000000002, 2.1088417881317425e-14),25,-25,14,yes,x,5,x,0.5192125000012311,1,36,test2,4,0.5194750999999087,-70.0
21,chj,f,20,r,1,(172.20000000000002, 0.0),21,5,2,yes,x,5,x,0.5153598999986571,1,37,test2,4,0.5155129000013403,-40.0
21,chj,f,20,r,1,(-172.20000000000002, 2.1088417881317425e-14),25,3,1,yes,x,5,x,0.9369319999987056,1,38,test2,4,0.9371580999995786,-42.0
21,chj,f,20,r,1,(1.0544208940658713e-14, 172.20000000000002),23,-25,14,yes,x,5,x,0.47196030000122846,1,39,test2,4,0.47218729999985953,-70.0
21,chj,f,20,r,1,(-121.76378772032348, 121.76378772032349),24,-25,14,no,m,6,m,0.6222770000003948,1,40,test2,4,0.6224655999994866,-70.0
21,chj,f,20,r,1,(-3.163262682197613e-14, -172.20000000000002),27,-3,11,yes,x,5,x,0.592019400000936,1,41,test2,4,0.592181599999094,-48.0
21,chj,f,20,r,1,(-3.163262682197613e-14, -172.20000000000002),27,-5,12,yes,x,5,x,0.7376367000015307,1,42,test2,4,0.7377873999994335,-50.0
21,chj,f,20,r,1,(121.76378772032349, 121.76378772032349),22,-7,13,yes,x,5,x,0.5693450999988272,1,43,test2,4,0.5695190999995248,-52.0
21,chj,f,20,r,1,(1.0544208940658713e-14, 172.20000000000002),23,3,1,yes,x,5,x,0.6344903000008344,1,44,test2,4,0.6347271999984514,-42.0
21,chj,f,20,r,1,(172.20000000000002, 0.0),21,-25,14,no,m,6,m,0.5857183999996778,1,45,test2,4,0.5858483000010892,-42.0
21,chj,f,20,r,1,(1.0544208940658713e-14, 172.20000000000002),23,-5,12,no,m,6,m,0.6671370999993087,1,46,test2,4,0.667511800000284,-42.0
21,chj,f,20,r,1,(1.0544208940658713e-14, 172.20000000000002),23,-25,14,no,m,6,m,0.6720583000005718,1,47,test2,4,0.6721753999991051,-42.0
21,chj,f,20,r,1,(-121.76378772032352, -121.76378772032348),26,25,4,yes,x,5,x,0.5534963999998581,1,48,test2,4,0.5535988000010548,-20.0
21,chj,f,20,r,1,(121.76378772032349, 121.76378772032349),22,5,2,yes,x,5,x,0.746688000001086,1,49,test2,4,0.7471774000005098,-40.0
21,chj,f,20,r,1,(-3.163262682197613e-14, -172.20000000000002),27,7,3,yes,x,5,x,0.625374200000806,1,50,test2,4,0.6255024000001868,-38.0
21,chj,f,20,r,1,(121.76378772032346, -121.76378772032352),28,-7,13,yes,x,5,x,0.9642738000002282,1,51,test2,4,0.9643730999996478,-52.0
21,chj,f,20,r,1,(121.76378772032349, 121.76378772032349),22,-5,12,yes,x,5,x,0.6268715000005614,1,52,test2,4,0.6270242999999027,-50.0
21,chj,f,20,r,1,(121.76378772032346, -121.76378772032352),28,-3,11,yes,x,5,x,0.9149142999995092,1,53,test2,4,0.9153611000001547,-48.0
21,chj,f,20,r,1,(-121.76378772032348, 121.76378772032349),24,7,3,yes,x,5,x,0.48011870000118506,1,54,test2,4,0.4804435999994894,-38.0
21,chj,f,20,r,1,(172.20000000000002, 0.0),21,25,4,yes,x,5,x,0.5216526000003796,1,55,test2,4,0.5217536000000109,-20.0
21,chj,f,20,r,1,(-121.76378772032348, 121.76378772032349),24,3,1,yes,x,5,x,0.6617346999992151,1,56,test2,4,0.6619970000010653,-42.0
21,chj,f,20,r,1,(-172.20000000000002, 2.1088417881317425e-14),25,3,1,yes,x,5,x,0.7809145000010176,1,57,test2,4,0.7811421999995218,-42.0
21,chj,f,20,r,1,(-121.76378772032348, 121.76378772032349),24,-7,13,yes,x,5,x,0.7986206999994465,1,58,test2,4,0.7987339999999676,-52.0
