subj_id,subj_name,subj_gender ,subj_age,subj_handedness,subj_runNum,tar_l_x,tar_l_y,loc_code,tar_ori,tar_code,tar_pre ,cor_response,pre_code,subj_response,RT,correct,trial_num,type,bloc_num,dur, real_tar
22,lhm,f,19,r,2,(-121.76378772032348, 121.76378772032349),24,-5,12,yes,x,5,x,0.649210800000219,1,1,test1,1,0.649378500000239,-50.0
22,lhm,f,19,r,2,(-121.76378772032348, 121.76378772032349),24,-3,11,no,m,6,m,0.9693862000003719,1,2,test1,1,0.9694786000000022,-50.0
22,lhm,f,19,r,2,(121.76378772032349, 121.76378772032349),22,-25,14,yes,x,5,x,0.4216675000006944,1,3,test1,1,0.42181840000012016,-70.0
22,lhm,f,19,r,2,(1.0544208940658713e-14, 172.20000000000002),23,-25,14,no,m,6,m,0.789804500000173,1,4,test1,1,0.7899422000000413,-70.0
22,lhm,f,19,r,2,(1.0544208940658713e-14, 172.20000000000002),23,5,2,yes,x,5,x,0.5913338999998814,1,5,test1,1,0.5915378999998211,-40.0
22,lhm,f,19,r,2,(1.0544208940658713e-14, 172.20000000000002),23,25,4,yes,x,5,x,0.48089509999954316,1,6,test1,1,0.48099550000006275,-20.0
22,lhm,f,19,r,2,(-121.76378772032348, 121.76378772032349),24,25,4,yes,x,5,x,0.4552813000000242,1,7,test1,1,0.45546830000057525,-20.0
22,lhm,f,19,r,2,(121.76378772032346, -121.76378772032352),28,25,4,no,m,6,m,0.8751996000000872,1,8,test1,1,0.875372000000425,-20.0
22,lhm,f,19,r,2,(121.76378772032349, 121.76378772032349),22,-25,14,yes,x,5,x,0.40956269999969663,1,9,test1,1,0.4096828000001551,-70.0
22,lhm,f,19,r,2,(121.76378772032346, -121.76378772032352),28,-25,14,yes,x,5,x,0.6499091000005137,1,10,test1,1,0.650053499999558,-70.0
22,lhm,f,19,r,2,(121.76378772032349, 121.76378772032349),22,-5,12,yes,x,5,x,0.45367390000046726,1,11,test1,1,0.45386880000023666,-50.0
22,lhm,f,19,r,2,(121.76378772032349, 121.76378772032349),22,5,2,yes,x,5,x,0.6356261999999333,1,12,test1,1,0.6357919000001857,-40.0
22,lhm,f,19,r,2,(-121.76378772032348, 121.76378772032349),24,5,2,no,m,6,m,0.9834493999996994,1,13,test1,1,0.9835666999997557,-40.0
22,lhm,f,19,r,2,(121.76378772032349, 121.76378772032349),22,25,4,yes,x,5,x,0.4402785000002041,1,14,test1,1,0.4404882999997426,-20.0
22,lhm,f,19,r,2,(-121.76378772032348, 121.76378772032349),24,3,1,no,m,6,m,0.7706623000003674,1,15,test1,1,0.7708104000003004,-20.0
22,lhm,f,19,r,2,(-172.20000000000002, 2.1088417881317425e-14),25,-25,14,yes,x,5,x,0.4140844000003199,1,16,test1,1,0.41432159999931173,-70.0
22,lhm,f,19,r,2,(1.0544208940658713e-14, 172.20000000000002),23,-3,11,yes,x,5,x,0.5834846999996444,1,17,test1,1,0.5836267000004227,-48.0
22,lhm,f,19,r,2,(-3.163262682197613e-14, -172.20000000000002),27,25,4,no,m,6,m,0.9146866000000955,1,18,test1,1,0.9149725999996008,-48.0
22,lhm,f,19,r,2,(-121.76378772032352, -121.76378772032348),26,7,3,yes,x,5,x,0.4707762999996703,1,19,test1,1,0.4708924999995361,-38.0
22,lhm,f,19,r,2,(-172.20000000000002, 2.1088417881317425e-14),25,5,2,yes,x,5,x,0.5448915999995734,1,20,test1,1,0.5451406000001953,-40.0
22,lhm,f,19,r,2,(-121.76378772032352, -121.76378772032348),26,-3,11,no,m,6,m,0.8958739999998215,1,21,test1,1,0.8960996999994677,-40.0
22,lhm,f,19,r,2,(121.76378772032346, -121.76378772032352),28,5,2,no,m,6,m,0.8856087000003754,1,22,test1,1,0.8862497999998595,-40.0
22,lhm,f,19,r,2,(-172.20000000000002, 2.1088417881317425e-14),25,7,3,no,m,6,m,0.9790430000002743,1,23,test1,1,0.979127100000369,-40.0
22,lhm,f,19,r,2,(121.76378772032349, 121.76378772032349),22,-7,13,yes,x,5,x,0.47799140000006446,1,24,test1,1,0.4780783000005613,-52.0
22,lhm,f,19,r,2,(-121.76378772032352, -121.76378772032348),26,-5,12,yes,x,5,None,None,0,25,test1,1,1.9800783000000592,-50.0
22,lhm,f,19,r,2,(-3.163262682197613e-14, -172.20000000000002),27,7,3,yes,x,5,x,0.5507000999996308,1,26,test1,1,0.5508772999992289,-38.0
22,lhm,f,19,r,2,(172.20000000000002, 0.0),21,7,3,no,m,6,m,0.987703099999635,1,27,test1,1,0.987845799999377,-38.0
22,lhm,f,19,r,2,(121.76378772032346, -121.76378772032352),28,-5,12,yes,x,5,x,0.991738599999735,1,28,test1,1,0.9918728000002375,-50.0
22,lhm,f,19,r,2,(-121.76378772032352, -121.76378772032348),26,5,2,no,m,6,m,0.8838949999999386,1,29,test1,1,0.8841822000003958,-50.0
22,lhm,f,19,r,2,(1.0544208940658713e-14, 172.20000000000002),23,5,2,yes,x,5,x,0.8580307000001994,1,30,test1,1,0.8582838000002084,-40.0
22,lhm,f,19,r,2,(1.0544208940658713e-14, 172.20000000000002),23,-5,12,yes,x,5,x,0.5316750000001775,1,31,test1,1,0.531883900000139,-50.0
22,lhm,f,19,r,2,(172.20000000000002, 0.0),21,-7,13,no,m,6,m,0.7355594999999084,1,32,test1,1,0.7357589000002918,-50.0
22,lhm,f,19,r,2,(-172.20000000000002, 2.1088417881317425e-14),25,3,1,yes,x,5,m,1.0836484999999811,0,33,test1,1,1.0838774000003468,-42.0
22,lhm,f,19,r,2,(1.0544208940658713e-14, 172.20000000000002),23,25,4,yes,x,5,x,0.49729589999969903,1,34,test1,1,0.4977907000002233,-20.0
22,lhm,f,19,r,2,(-172.20000000000002, 2.1088417881317425e-14),25,25,4,yes,x,5,x,0.42799359999935405,1,35,test1,1,0.4281771000005392,-20.0
22,lhm,f,19,r,2,(-121.76378772032352, -121.76378772032348),26,-5,12,no,m,6,m,0.8872499999997672,1,36,test1,1,0.8874603000003844,-20.0
22,lhm,f,19,r,2,(172.20000000000002, 0.0),21,-3,11,no,m,6,m,1.0016848000004757,1,37,test1,1,1.0018419999996695,-20.0
22,lhm,f,19,r,2,(172.20000000000002, 0.0),21,-25,14,yes,x,5,x,0.560603899999478,1,38,test1,1,0.5607178000000204,-70.0
22,lhm,f,19,r,2,(172.20000000000002, 0.0),21,25,4,yes,x,5,x,0.46496549999937997,1,39,test1,1,0.46511520000058226,-20.0
22,lhm,f,19,r,2,(-121.76378772032348, 121.76378772032349),24,7,3,yes,x,5,x,0.5304822999996759,1,40,test1,1,0.5306339999997363,-38.0
22,lhm,f,19,r,2,(-3.163262682197613e-14, -172.20000000000002),27,-3,11,yes,x,5,x,1.033218300000044,1,41,test1,1,1.0334782999998424,-48.0
22,lhm,f,19,r,2,(-121.76378772032352, -121.76378772032348),26,5,2,yes,x,5,x,1.1151132999993933,1,42,test1,1,1.1153078999996069,-40.0
22,lhm,f,19,r,2,(-121.76378772032348, 121.76378772032349),24,-7,13,no,m,6,m,1.0211396000004243,1,43,test1,1,1.0212542999997822,-40.0
22,lhm,f,19,r,2,(-3.163262682197613e-14, -172.20000000000002),27,-3,11,no,m,6,m,1.181460199999492,1,44,test1,1,1.181697300000451,-40.0
22,lhm,f,19,r,2,(121.76378772032349, 121.76378772032349),22,-3,11,yes,x,5,m,1.1323216000000684,0,45,test1,1,1.1325120999999854,-48.0
22,lhm,f,19,r,2,(1.0544208940658713e-14, 172.20000000000002),23,25,4,no,m,6,m,1.3293865000005098,1,46,test1,1,1.3295120000002498,-48.0
22,lhm,f,19,r,2,(-121.76378772032348, 121.76378772032349),24,-5,12,no,m,6,m,1.1435338999999658,1,47,test1,1,1.1437769000003755,-48.0
22,lhm,f,19,r,2,(1.0544208940658713e-14, 172.20000000000002),23,-3,11,yes,x,5,m,0.7695792000004076,0,48,test1,1,0.7697259000005943,-48.0
22,lhm,f,19,r,2,(121.76378772032346, -121.76378772032352),28,-5,12,yes,x,5,x,0.8794043999996575,1,49,test1,1,0.8795564000001832,-50.0
22,lhm,f,19,r,2,(-172.20000000000002, 2.1088417881317425e-14),25,-25,14,yes,x,5,x,0.4518588999999338,1,50,test1,1,0.45208349999938946,-70.0
22,lhm,f,19,r,2,(-3.163262682197613e-14, -172.20000000000002),27,-5,12,yes,x,5,x,0.7350781000004645,1,51,test1,1,0.7353106999999,-50.0
22,lhm,f,19,r,2,(-172.20000000000002, 2.1088417881317425e-14),25,-7,13,yes,x,5,x,0.47891689999960363,1,52,test1,1,0.4792652999994971,-52.0
22,lhm,f,19,r,2,(-3.163262682197613e-14, -172.20000000000002),27,3,1,yes,x,5,x,1.2253670000000056,1,53,test1,1,1.2256591000004846,-42.0
22,lhm,f,19,r,2,(121.76378772032346, -121.76378772032352),28,3,1,yes,x,5,x,1.4586100999995324,1,54,test1,1,1.4588145999996414,-42.0
22,lhm,f,19,r,2,(-172.20000000000002, 2.1088417881317425e-14),25,-3,11,yes,x,5,x,1.1613852999998926,1,55,test1,1,1.161613700000089,-48.0
22,lhm,f,19,r,2,(-3.163262682197613e-14, -172.20000000000002),27,5,2,yes,x,5,x,0.7143120999999155,1,56,test1,1,0.7145346999996036,-40.0
22,lhm,f,19,r,2,(1.0544208940658713e-14, 172.20000000000002),23,-7,13,yes,x,5,x,0.5069880000000921,1,57,test1,1,0.5071263999998337,-52.0
22,lhm,f,19,r,2,(1.0544208940658713e-14, 172.20000000000002),23,3,1,yes,x,5,x,0.7632332000002862,1,58,test1,1,0.7635708999996496,-42.0
22,lhm,f,19,r,2,(121.76378772032346, -121.76378772032352),28,25,4,yes,x,5,x,0.5033717000005709,1,59,test1,1,0.5035808000002362,-20.0
22,lhm,f,19,r,2,(-3.163262682197613e-14, -172.20000000000002),27,-25,14,no,m,6,x,0.6894678999997268,0,60,test1,1,0.6895866000004389,-20.0
22,lhm,f,19,r,2,(172.20000000000002, 0.0),21,-5,12,yes,x,5,x,0.5954610999997385,1,61,test1,1,0.5955820999997741,-50.0
22,lhm,f,19,r,2,(121.76378772032349, 121.76378772032349),22,3,1,yes,x,5,x,0.982980900000257,1,62,test1,1,0.9830793000000995,-42.0
22,lhm,f,19,r,2,(-172.20000000000002, 2.1088417881317425e-14),25,-3,11,yes,x,5,m,1.0497970000005807,0,63,test1,1,1.0499324000002161,-48.0
22,lhm,f,19,r,2,(121.76378772032346, -121.76378772032352),28,-7,13,yes,x,5,x,0.6814107000000149,1,64,test1,1,0.6815308000004734,-52.0
22,lhm,f,19,r,2,(172.20000000000002, 0.0),21,-3,11,yes,x,5,x,0.8643359000006967,1,65,test1,1,0.8645703000001959,-48.0
22,lhm,f,19,r,2,(-121.76378772032352, -121.76378772032348),26,-7,13,yes,x,5,x,0.5316015999997035,1,66,test1,1,0.531713000000309,-52.0
22,lhm,f,19,r,2,(121.76378772032349, 121.76378772032349),22,-5,12,no,m,6,m,1.122686299999259,1,67,test1,1,1.1228900999994949,-52.0
22,lhm,f,19,r,2,(-3.163262682197613e-14, -172.20000000000002),27,25,4,yes,x,5,x,0.49476250000043365,1,68,test1,1,0.4949103999997533,-20.0
22,lhm,f,19,r,2,(121.76378772032346, -121.76378772032352),28,7,3,no,m,6,m,1.2877186000005167,1,69,test1,1,1.2878412000000026,-20.0
22,lhm,f,19,r,2,(-121.76378772032352, -121.76378772032348),26,25,4,no,m,6,m,1.0161297000004197,1,70,test1,1,1.0162609999997585,-20.0
22,lhm,f,19,r,2,(172.20000000000002, 0.0),21,-5,12,no,m,6,m,1.118518000000222,1,71,test1,1,1.1187503999999535,-20.0
22,lhm,f,19,r,2,(121.76378772032346, -121.76378772032352),28,-5,12,no,m,6,m,1.0717904000002818,1,72,test1,1,1.071894799999427,-20.0
22,lhm,f,19,r,2,(-121.76378772032352, -121.76378772032348),26,-25,14,no,m,6,m,0.9803181999996013,1,73,test1,1,0.9805529000004753,-20.0
22,lhm,f,19,r,2,(-3.163262682197613e-14, -172.20000000000002),27,-5,12,yes,x,5,x,0.7832192000005307,1,74,test1,1,0.7837285000005068,-50.0
22,lhm,f,19,r,2,(172.20000000000002, 0.0),21,25,4,yes,x,5,x,0.4900111000006291,1,75,test1,1,0.490151899999546,-20.0
22,lhm,f,19,r,2,(-172.20000000000002, 2.1088417881317425e-14),25,-7,13,no,m,6,m,1.0634227000000465,1,76,test1,1,1.0635317999995095,-20.0
22,lhm,f,19,r,2,(121.76378772032349, 121.76378772032349),22,-7,13,no,m,6,m,1.1801476000000548,1,77,test1,1,1.180265099999815,-20.0
22,lhm,f,19,r,2,(-3.163262682197613e-14, -172.20000000000002),27,-7,13,yes,x,5,x,0.5826616000003924,1,78,test1,1,0.5828026999997746,-52.0
22,lhm,f,19,r,2,(1.0544208940658713e-14, 172.20000000000002),23,-7,13,yes,x,5,x,0.6134443000000829,1,79,test1,1,0.6137850000004619,-52.0
22,lhm,f,19,r,2,(-121.76378772032352, -121.76378772032348),26,7,3,yes,x,5,x,0.5944346999995105,1,80,test1,1,0.5946020999999746,-38.0
22,lhm,f,19,r,2,(-3.163262682197613e-14, -172.20000000000002),27,-7,13,yes,x,5,x,0.6308829999998125,1,81,test1,1,0.6310401999999158,-52.0
22,lhm,f,19,r,2,(121.76378772032346, -121.76378772032352),28,-7,13,no,m,6,m,0.9603726000004826,1,82,test1,1,0.96055669999987,-52.0
22,lhm,f,19,r,2,(-3.163262682197613e-14, -172.20000000000002),27,-3,11,yes,x,5,x,1.3283830000000307,1,83,test1,1,1.3284985999998753,-48.0
22,lhm,f,19,r,2,(-121.76378772032352, -121.76378772032348),26,-3,11,yes,x,5,x,0.9728863000000274,1,84,test1,1,0.9730371999994532,-48.0
22,lhm,f,19,r,2,(1.0544208940658713e-14, 172.20000000000002),23,5,2,no,m,6,m,1.1373090999995839,1,85,test1,1,1.1375270000007731,-48.0
22,lhm,f,19,r,2,(121.76378772032349, 121.76378772032349),22,7,3,yes,x,5,x,0.5889489999999569,1,86,test1,1,0.5891929999997956,-38.0
22,lhm,f,19,r,2,(-172.20000000000002, 2.1088417881317425e-14),25,-25,14,no,m,6,m,0.9714305999996213,1,87,test1,1,0.971530800000437,-38.0
22,lhm,f,19,r,2,(121.76378772032349, 121.76378772032349),22,7,3,no,m,6,m,1.3494756999998572,1,88,test1,1,1.3496414999999615,-38.0
22,lhm,f,19,r,2,(-121.76378772032348, 121.76378772032349),24,-25,14,no,m,6,m,1.1364060999994763,1,89,test1,1,1.1365531000001283,-38.0
22,lhm,f,19,r,2,(-121.76378772032348, 121.76378772032349),24,3,1,yes,x,5,m,1.345092300000033,0,90,test1,1,1.3456058000001576,-42.0
22,lhm,f,19,r,2,(172.20000000000002, 0.0),21,3,1,yes,x,5,x,1.2146071000006486,1,91,test1,1,1.2147985999999946,-42.0
22,lhm,f,19,r,2,(121.76378772032346, -121.76378772032352),28,-25,14,yes,x,5,x,0.45899220000046626,1,92,test1,1,0.4592459000004965,-70.0
22,lhm,f,19,r,2,(172.20000000000002, 0.0),21,-25,14,yes,x,5,x,0.48198970000066765,1,93,test1,1,0.4825731999999334,-70.0
22,lhm,f,19,r,2,(121.76378772032349, 121.76378772032349),22,25,4,no,m,6,m,1.3975288999999975,1,94,test1,1,1.3976689999999508,-70.0
22,lhm,f,19,r,2,(172.20000000000002, 0.0),21,5,2,yes,x,5,x,1.0391874999995707,1,95,test1,1,1.039395699999659,-40.0
22,lhm,f,19,r,2,(-121.76378772032352, -121.76378772032348),26,-5,12,yes,x,5,x,0.6313767000001462,1,96,test1,1,0.631489800000054,-50.0
22,lhm,f,19,r,2,(172.20000000000002, 0.0),21,-7,13,yes,x,5,x,0.44232019999981276,1,1,test2,1,0.44244979999984935,-52.0
22,lhm,f,19,r,2,(121.76378772032349, 121.76378772032349),22,-25,14,no,m,6,m,1.0765776999996888,1,2,test2,1,1.076699500000359,-52.0
22,lhm,f,19,r,2,(-3.163262682197613e-14, -172.20000000000002),27,3,1,yes,x,5,x,1.0161896999998135,1,3,test2,1,1.016548700000385,-42.0
22,lhm,f,19,r,2,(-121.76378772032348, 121.76378772032349),24,-25,14,yes,x,5,x,0.4896284000005835,1,4,test2,1,0.4901257000001351,-70.0
22,lhm,f,19,r,2,(121.76378772032349, 121.76378772032349),22,-3,11,no,m,6,m,0.9661827999998422,1,5,test2,1,0.966463499999918,-70.0
22,lhm,f,19,r,2,(-121.76378772032352, -121.76378772032348),26,3,1,yes,x,5,x,1.1051359000002776,1,6,test2,1,1.1052347000004374,-42.0
22,lhm,f,19,r,2,(-121.76378772032348, 121.76378772032349),24,-3,11,yes,x,5,m,0.9554556000002776,0,7,test2,1,0.9556861000000936,-48.0
22,lhm,f,19,r,2,(-172.20000000000002, 2.1088417881317425e-14),25,-5,12,no,m,6,m,1.420796400000654,1,8,test2,1,1.421083200000794,-48.0
22,lhm,f,19,r,2,(-121.76378772032352, -121.76378772032348),26,-7,13,yes,x,5,x,0.5623801000001549,1,9,test2,1,0.5630622999997286,-52.0
22,lhm,f,19,r,2,(-121.76378772032352, -121.76378772032348),26,5,2,yes,x,5,x,0.7935075999994297,1,10,test2,1,0.7938883999995596,-40.0
22,lhm,f,19,r,2,(-3.163262682197613e-14, -172.20000000000002),27,3,1,no,m,6,m,1.0514868000000206,1,11,test2,1,1.0522017999992386,-40.0
22,lhm,f,19,r,2,(1.0544208940658713e-14, 172.20000000000002),23,-25,14,yes,x,5,x,0.500235900000007,1,12,test2,1,0.5003636000001279,-70.0
22,lhm,f,19,r,2,(172.20000000000002, 0.0),21,5,2,yes,x,5,x,0.8341205000006084,1,13,test2,1,0.8342511000000741,-40.0
22,lhm,f,19,r,2,(121.76378772032349, 121.76378772032349),22,-7,13,yes,x,5,x,0.5151574999999866,1,14,test2,1,0.515255199999956,-52.0
22,lhm,f,19,r,2,(-3.163262682197613e-14, -172.20000000000002),27,7,3,no,m,6,m,0.9844315000000279,1,15,test2,1,0.9851310999993075,-52.0
22,lhm,f,19,r,2,(1.0544208940658713e-14, 172.20000000000002),23,-25,14,yes,x,5,x,0.46505859999979293,1,16,test2,1,0.4651574999998047,-70.0
22,lhm,f,19,r,2,(-172.20000000000002, 2.1088417881317425e-14),25,-7,13,yes,x,5,x,0.5814754999992147,1,17,test2,1,0.5817963999998028,-52.0
22,lhm,f,19,r,2,(121.76378772032349, 121.76378772032349),22,25,4,yes,x,5,x,0.5401856999997108,1,18,test2,1,0.5405836999998428,-20.0
22,lhm,f,19,r,2,(1.0544208940658713e-14, 172.20000000000002),23,3,1,yes,x,5,x,0.6880185999998503,1,19,test2,1,0.6884072000002561,-42.0
22,lhm,f,19,r,2,(-172.20000000000002, 2.1088417881317425e-14),25,3,1,no,m,6,m,1.2305514999998195,1,20,test2,1,1.2306894999992437,-42.0
22,lhm,f,19,r,2,(-3.163262682197613e-14, -172.20000000000002),27,25,4,yes,x,5,x,0.5322596999994857,1,21,test2,1,0.5324798999999985,-20.0
22,lhm,f,19,r,2,(-121.76378772032352, -121.76378772032348),26,-7,13,no,m,6,m,1.2863212000002022,1,22,test2,1,1.2866280000007464,-20.0
22,lhm,f,19,r,2,(-172.20000000000002, 2.1088417881317425e-14),25,5,2,yes,x,5,x,0.5532771000007415,1,23,test2,1,0.5535227999998824,-40.0
22,lhm,f,19,r,2,(121.76378772032346, -121.76378772032352),28,7,3,yes,x,5,x,0.8215449999997873,1,24,test2,1,0.8218209999995452,-38.0
22,lhm,f,19,r,2,(-121.76378772032348, 121.76378772032349),24,3,1,yes,x,5,x,0.8939980000004653,1,25,test2,1,0.8943323000003147,-42.0
22,lhm,f,19,r,2,(121.76378772032346, -121.76378772032352),28,-3,11,yes,x,5,x,1.1978115000001708,1,26,test2,1,1.1980355999994572,-48.0
22,lhm,f,19,r,2,(-121.76378772032348, 121.76378772032349),24,-7,13,yes,x,5,x,0.49841400000059366,1,27,test2,1,0.49851550000039424,-52.0
22,lhm,f,19,r,2,(172.20000000000002, 0.0),21,7,3,yes,x,5,x,0.602254699999321,1,28,test2,1,0.602569499999845,-38.0
22,lhm,f,19,r,2,(172.20000000000002, 0.0),21,-3,11,yes,x,5,x,0.811805600000298,1,29,test2,1,0.8122459999995044,-48.0
22,lhm,f,19,r,2,(-3.163262682197613e-14, -172.20000000000002),27,5,2,yes,x,5,x,0.7285296999998536,1,30,test2,1,0.7288516999997228,-40.0
22,lhm,f,19,r,2,(-121.76378772032348, 121.76378772032349),24,5,2,yes,x,5,x,0.5158113999996203,1,31,test2,1,0.5160878000006051,-40.0
22,lhm,f,19,r,2,(-172.20000000000002, 2.1088417881317425e-14),25,7,3,yes,x,5,x,0.4497831999997288,1,32,test2,1,0.4501551000003019,-38.0
22,lhm,f,19,r,2,(121.76378772032349, 121.76378772032349),22,7,3,yes,x,5,x,0.561058299999786,1,33,test2,1,0.5611613999999463,-38.0
22,lhm,f,19,r,2,(121.76378772032349, 121.76378772032349),22,3,1,no,m,6,x,0.83452699999998,0,34,test2,1,0.8351388999999472,-38.0
22,lhm,f,19,r,2,(-3.163262682197613e-14, -172.20000000000002),27,-25,14,yes,x,5,x,0.4570203000002948,1,35,test2,1,0.45718119999946794,-70.0
22,lhm,f,19,r,2,(121.76378772032349, 121.76378772032349),22,-5,12,yes,x,5,x,0.9352981000001819,1,36,test2,1,0.9357217999995555,-50.0
22,lhm,f,19,r,2,(-121.76378772032348, 121.76378772032349),24,7,3,no,m,6,m,1.0994338999998945,1,37,test2,1,1.0999538000005487,-50.0
22,lhm,f,19,r,2,(-121.76378772032352, -121.76378772032348),26,-25,14,yes,x,5,x,0.4614480000000185,1,38,test2,1,0.46154939999996714,-70.0
22,lhm,f,19,r,2,(1.0544208940658713e-14, 172.20000000000002),23,-5,12,no,m,6,m,0.9502086000002237,1,39,test2,1,0.9503287000006821,-70.0
22,lhm,f,19,r,2,(-121.76378772032348, 121.76378772032349),24,-25,14,yes,x,5,x,0.4376804000003176,1,40,test2,1,0.4378199999991921,-70.0
22,lhm,f,19,r,2,(172.20000000000002, 0.0),21,3,1,no,m,6,m,0.9123405000000275,1,41,test2,1,0.9129815000005692,-70.0
22,lhm,f,19,r,2,(-172.20000000000002, 2.1088417881317425e-14),25,25,4,no,m,6,m,0.9210055000003194,1,42,test2,1,0.9216638999996576,-70.0
22,lhm,f,19,r,2,(-3.163262682197613e-14, -172.20000000000002),27,-5,12,no,m,6,m,1.036902600000758,1,43,test2,1,1.0375936000000365,-70.0
22,lhm,f,19,r,2,(-172.20000000000002, 2.1088417881317425e-14),25,3,1,yes,x,5,x,0.6346800999999687,1,44,test2,1,0.6347959000004266,-42.0
22,lhm,f,19,r,2,(-3.163262682197613e-14, -172.20000000000002),27,-25,14,yes,x,5,x,0.5669987999999648,1,45,test2,1,0.5671442000002571,-70.0
22,lhm,f,19,r,2,(172.20000000000002, 0.0),21,7,3,yes,x,5,x,0.6207423000005292,1,46,test2,1,0.6208415999999488,-38.0
22,lhm,f,19,r,2,(121.76378772032349, 121.76378772032349),22,5,2,yes,x,5,x,0.8107422000002771,1,47,test2,1,0.8109747999997126,-40.0
22,lhm,f,19,r,2,(1.0544208940658713e-14, 172.20000000000002),23,7,3,no,m,6,m,0.9447536999996373,1,48,test2,1,0.945340600000236,-40.0
22,lhm,f,19,r,2,(-121.76378772032352, -121.76378772032348),26,3,1,no,m,6,m,0.871911000000182,1,49,test2,1,0.8720406000002185,-40.0
22,lhm,f,19,r,2,(121.76378772032346, -121.76378772032352),28,5,2,yes,x,5,x,0.8269546999999875,1,50,test2,1,0.8272444000003816,-40.0
22,lhm,f,19,r,2,(-172.20000000000002, 2.1088417881317425e-14),25,-5,12,yes,x,5,x,1.231945900000028,1,51,test2,1,1.2320503000000826,-50.0
22,lhm,f,19,r,2,(-121.76378772032348, 121.76378772032349),24,25,4,yes,x,5,x,0.4582769999997254,1,52,test2,1,0.45837940000001254,-20.0
22,lhm,f,19,r,2,(172.20000000000002, 0.0),21,-7,13,yes,x,5,x,0.6104426000001695,1,53,test2,1,0.6106795999994574,-52.0
22,lhm,f,19,r,2,(121.76378772032349, 121.76378772032349),22,5,2,no,m,6,m,1.2667639999999665,1,54,test2,1,1.26698370000031,-52.0
22,lhm,f,19,r,2,(-121.76378772032348, 121.76378772032349),24,7,3,yes,x,5,x,0.5092150999998921,1,55,test2,1,0.5093169999991005,-38.0
22,lhm,f,19,r,2,(172.20000000000002, 0.0),21,-5,12,yes,x,5,x,0.5245705999996062,1,56,test2,1,0.5248602000001483,-50.0
22,lhm,f,19,r,2,(-3.163262682197613e-14, -172.20000000000002),27,-7,13,no,m,6,m,0.9685198000006494,1,57,test2,1,0.9686233000002176,-50.0
22,lhm,f,19,r,2,(-172.20000000000002, 2.1088417881317425e-14),25,25,4,yes,x,5,x,0.44240480000007665,1,58,test2,1,0.44280200000048353,-20.0
22,lhm,f,19,r,2,(-121.76378772032348, 121.76378772032349),24,-7,13,yes,x,5,x,0.5060123000002932,1,59,test2,1,0.5066883999998026,-52.0
22,lhm,f,19,r,2,(172.20000000000002, 0.0),21,5,2,no,m,6,m,0.9286244000004444,1,60,test2,1,0.9288426999992225,-52.0
22,lhm,f,19,r,2,(-121.76378772032352, -121.76378772032348),26,-3,11,yes,x,5,x,0.9452650000002905,1,61,test2,1,0.9453641000000061,-48.0
22,lhm,f,19,r,2,(172.20000000000002, 0.0),21,-25,14,no,m,6,m,1.0224774999996953,1,62,test2,1,1.0229145000002973,-48.0
22,lhm,f,19,r,2,(-121.76378772032352, -121.76378772032348),26,-25,14,yes,x,5,x,0.46466249999957654,1,63,test2,1,0.4651432999999088,-70.0
22,lhm,f,19,r,2,(-121.76378772032348, 121.76378772032349),24,25,4,no,m,6,m,0.6061286999993172,1,64,test2,1,0.6064186000003247,-70.0
22,lhm,f,19,r,2,(-121.76378772032352, -121.76378772032348),26,25,4,yes,x,5,x,0.4514707999996972,1,65,test2,1,0.45208629999979166,-20.0
22,lhm,f,19,r,2,(-3.163262682197613e-14, -172.20000000000002),27,5,2,no,m,6,m,0.8692164000003686,1,66,test2,1,0.8694494999999733,-20.0
22,lhm,f,19,r,2,(121.76378772032346, -121.76378772032352),28,7,3,yes,x,5,x,0.8381692000002658,1,67,test2,1,0.8382695999998759,-38.0
22,lhm,f,19,r,2,(121.76378772032346, -121.76378772032352),28,-3,11,yes,x,5,x,0.9539890999994896,1,68,test2,1,0.9541527999999744,-48.0
22,lhm,f,19,r,2,(-3.163262682197613e-14, -172.20000000000002),27,7,3,yes,x,5,x,0.6277522999998837,1,69,test2,1,0.6279168999999456,-38.0
22,lhm,f,19,r,2,(1.0544208940658713e-14, 172.20000000000002),23,-5,12,yes,x,5,x,0.5854771000003893,1,70,test2,1,0.5856430000003456,-50.0
22,lhm,f,19,r,2,(1.0544208940658713e-14, 172.20000000000002),23,7,3,yes,x,5,x,0.557382800000596,1,71,test2,1,0.5576681999991706,-38.0
22,lhm,f,19,r,2,(121.76378772032346, -121.76378772032352),28,-25,14,no,m,6,m,1.2166360000001077,1,72,test2,1,1.2169886000001497,-38.0
22,lhm,f,19,r,2,(-121.76378772032348, 121.76378772032349),24,-3,11,yes,x,5,x,0.6385469000006196,1,73,test2,1,0.6386758000007831,-48.0
22,lhm,f,19,r,2,(121.76378772032346, -121.76378772032352),28,-7,13,yes,x,5,x,1.031482700000197,1,74,test2,1,1.0321182999996381,-52.0
22,lhm,f,19,r,2,(172.20000000000002, 0.0),21,3,1,yes,x,5,x,0.8808371000004627,1,75,test2,1,0.8809381999999459,-42.0
22,lhm,f,19,r,2,(121.76378772032346, -121.76378772032352),28,5,2,yes,x,5,x,1.253545700000359,1,76,test2,1,1.2539772000000085,-40.0
22,lhm,f,19,r,2,(121.76378772032346, -121.76378772032352),28,3,1,yes,x,5,m,1.2006805999999415,0,77,test2,1,1.2011150999996971,-42.0
22,lhm,f,19,r,2,(-121.76378772032348, 121.76378772032349),24,5,2,yes,x,5,x,0.4969460000002073,1,78,test2,1,0.497045000000071,-40.0
22,lhm,f,19,r,2,(-172.20000000000002, 2.1088417881317425e-14),25,7,3,yes,x,5,x,0.5563949999996112,1,79,test2,1,0.5569611000000805,-38.0
22,lhm,f,19,r,2,(172.20000000000002, 0.0),21,25,4,no,m,6,m,1.3982066999997187,1,80,test2,1,1.3986032000002524,-38.0
22,lhm,f,19,r,2,(-121.76378772032352, -121.76378772032348),26,7,3,no,m,6,m,1.373023799999828,1,81,test2,1,1.3731281000000308,-38.0
22,lhm,f,19,r,2,(-121.76378772032352, -121.76378772032348),26,25,4,yes,x,5,x,0.4348773000001529,1,82,test2,1,0.43510239999977784,-20.0
22,lhm,f,19,r,2,(-121.76378772032352, -121.76378772032348),26,3,1,yes,x,5,x,0.9561929999999847,1,83,test2,1,0.9563355999998748,-42.0
22,lhm,f,19,r,2,(121.76378772032346, -121.76378772032352),28,25,4,yes,x,5,x,0.5232771999999386,1,84,test2,1,0.5233800000005431,-20.0
22,lhm,f,19,r,2,(1.0544208940658713e-14, 172.20000000000002),23,3,1,no,m,6,m,1.1094856999998228,1,85,test2,1,1.1099484999995184,-20.0
22,lhm,f,19,r,2,(-172.20000000000002, 2.1088417881317425e-14),25,-3,11,no,m,6,x,1.1228062999998656,0,86,test2,1,1.1230265000003783,-20.0
22,lhm,f,19,r,2,(121.76378772032349, 121.76378772032349),22,-3,11,yes,x,5,x,0.7294339000000036,1,87,test2,1,0.729627900000196,-48.0
22,lhm,f,19,r,2,(121.76378772032346, -121.76378772032352),28,-3,11,no,m,6,m,0.9596117999999478,1,88,test2,1,0.9598900999999387,-48.0
22,lhm,f,19,r,2,(-172.20000000000002, 2.1088417881317425e-14),25,-5,12,yes,x,5,x,0.9655579999998736,1,89,test2,1,0.9656904000003124,-50.0
22,lhm,f,19,r,2,(1.0544208940658713e-14, 172.20000000000002),23,-7,13,no,m,6,m,1.1772444999996878,1,90,test2,1,1.1778942000000825,-50.0
22,lhm,f,19,r,2,(1.0544208940658713e-14, 172.20000000000002),23,7,3,yes,x,5,x,0.5648754000003464,1,91,test2,1,0.5655204999993657,-38.0
22,lhm,f,19,r,2,(-121.76378772032348, 121.76378772032349),24,-5,12,yes,x,5,x,0.5479169999998703,1,92,test2,1,0.5485666999993555,-50.0
22,lhm,f,19,r,2,(-172.20000000000002, 2.1088417881317425e-14),25,5,2,no,m,6,m,1.043369700000767,1,93,test2,1,1.0435095000002548,-50.0
22,lhm,f,19,r,2,(121.76378772032346, -121.76378772032352),28,3,1,no,m,6,m,1.1542644999999538,1,94,test2,1,1.1547740999994858,-50.0
22,lhm,f,19,r,2,(121.76378772032349, 121.76378772032349),22,3,1,yes,x,5,x,0.8342010000005757,1,95,test2,1,0.8344938000000184,-42.0
22,lhm,f,19,r,2,(1.0544208940658713e-14, 172.20000000000002),23,-3,11,no,m,6,m,1.0294576999995115,1,96,test2,1,1.0297592999995686,-42.0
22,lhm,f,19,r,2,(-121.76378772032348, 121.76378772032349),24,-5,12,yes,x,5,x,0.8361703999999008,1,1,test1,2,0.8362671000004411,-50.0
22,lhm,f,19,r,2,(-121.76378772032348, 121.76378772032349),24,-3,11,no,m,6,m,1.085834700000305,1,2,test1,2,1.0862644999997428,-50.0
22,lhm,f,19,r,2,(121.76378772032349, 121.76378772032349),22,-25,14,yes,x,5,x,0.4945084000000861,1,3,test1,2,0.49499869999999646,-70.0
22,lhm,f,19,r,2,(1.0544208940658713e-14, 172.20000000000002),23,-25,14,no,m,6,m,0.958201100000224,1,4,test1,2,0.9585243999999875,-70.0
22,lhm,f,19,r,2,(1.0544208940658713e-14, 172.20000000000002),23,5,2,yes,x,5,x,0.7606232999996791,1,5,test1,2,0.7607407000004969,-40.0
22,lhm,f,19,r,2,(1.0544208940658713e-14, 172.20000000000002),23,25,4,yes,x,5,x,0.44708129999980883,1,6,test1,2,0.44720219999999244,-20.0
22,lhm,f,19,r,2,(-121.76378772032348, 121.76378772032349),24,25,4,yes,x,5,x,0.47193350000088685,1,7,test1,2,0.4720366000001377,-20.0
22,lhm,f,19,r,2,(121.76378772032346, -121.76378772032352),28,25,4,no,m,6,m,1.1748216000005414,1,8,test1,2,1.1749619000001985,-20.0
22,lhm,f,19,r,2,(121.76378772032349, 121.76378772032349),22,-25,14,yes,x,5,x,0.4196263000003455,1,9,test1,2,0.4197549999998955,-70.0
22,lhm,f,19,r,2,(121.76378772032346, -121.76378772032352),28,-25,14,yes,x,5,x,0.6017859000003227,1,10,test1,2,0.6018876999996792,-70.0
22,lhm,f,19,r,2,(121.76378772032349, 121.76378772032349),22,-5,12,yes,x,5,x,0.5853083000001789,1,11,test1,2,0.5857943000000887,-50.0
22,lhm,f,19,r,2,(121.76378772032349, 121.76378772032349),22,5,2,yes,x,5,x,0.5905076999997618,1,12,test1,2,0.5907145999999557,-40.0
22,lhm,f,19,r,2,(-121.76378772032348, 121.76378772032349),24,5,2,no,m,6,m,0.9770016000002215,1,13,test1,2,0.9773959999993167,-40.0
22,lhm,f,19,r,2,(121.76378772032349, 121.76378772032349),22,25,4,yes,x,5,x,0.4263829000001351,1,14,test1,2,0.42662990000007994,-20.0
22,lhm,f,19,r,2,(-121.76378772032348, 121.76378772032349),24,3,1,no,m,6,m,0.8187337999997908,1,15,test1,2,0.818833899999845,-20.0
22,lhm,f,19,r,2,(-172.20000000000002, 2.1088417881317425e-14),25,-25,14,yes,x,5,x,0.4761279000003924,1,16,test1,2,0.47624529999939114,-70.0
22,lhm,f,19,r,2,(1.0544208940658713e-14, 172.20000000000002),23,-3,11,yes,x,5,x,0.7222615999999107,1,17,test1,2,0.7227279999997336,-48.0
22,lhm,f,19,r,2,(-3.163262682197613e-14, -172.20000000000002),27,25,4,no,m,6,m,1.0474692999996478,1,18,test1,2,1.0479472000006353,-48.0
22,lhm,f,19,r,2,(-121.76378772032352, -121.76378772032348),26,7,3,yes,x,5,x,0.6142989999998463,1,19,test1,2,0.6145778999998583,-38.0
22,lhm,f,19,r,2,(-172.20000000000002, 2.1088417881317425e-14),25,5,2,yes,x,5,x,0.5464114999995218,1,20,test1,2,0.546721300000172,-40.0
22,lhm,f,19,r,2,(-121.76378772032352, -121.76378772032348),26,-3,11,no,m,6,m,1.0365089000006265,1,21,test1,2,1.036800800000492,-40.0
22,lhm,f,19,r,2,(121.76378772032346, -121.76378772032352),28,5,2,no,m,6,m,0.9229936000001544,1,22,test1,2,0.9232853999992585,-40.0
22,lhm,f,19,r,2,(-172.20000000000002, 2.1088417881317425e-14),25,7,3,no,m,6,m,0.791971000000558,1,23,test1,2,0.7921312999997099,-40.0
22,lhm,f,19,r,2,(121.76378772032349, 121.76378772032349),22,-7,13,yes,x,5,x,0.49381029999949533,1,24,test1,2,0.493990500000109,-52.0
22,lhm,f,19,r,2,(-121.76378772032352, -121.76378772032348),26,-5,12,yes,x,5,x,0.6731354000003194,1,25,test1,2,0.6732689999998911,-50.0
22,lhm,f,19,r,2,(-3.163262682197613e-14, -172.20000000000002),27,7,3,yes,x,5,x,0.5830036999996082,1,26,test1,2,0.5831089000002976,-38.0
22,lhm,f,19,r,2,(172.20000000000002, 0.0),21,7,3,no,m,6,x,0.7001307000000452,0,27,test1,2,0.7004261000001861,-38.0
22,lhm,f,19,r,2,(121.76378772032346, -121.76378772032352),28,-5,12,yes,x,5,x,1.021780299999591,1,28,test1,2,1.022527699999955,-50.0
22,lhm,f,19,r,2,(-121.76378772032352, -121.76378772032348),26,5,2,no,m,6,m,1.0657282000001942,1,29,test1,2,1.065962099999524,-50.0
22,lhm,f,19,r,2,(1.0544208940658713e-14, 172.20000000000002),23,5,2,yes,x,5,x,0.5521552999998676,1,30,test1,2,0.5522579999997106,-40.0
22,lhm,f,19,r,2,(1.0544208940658713e-14, 172.20000000000002),23,-5,12,yes,x,5,x,0.5382184999998572,1,31,test1,2,0.5386064000003898,-50.0
22,lhm,f,19,r,2,(172.20000000000002, 0.0),21,-7,13,no,m,6,m,1.3312348999997994,1,32,test1,2,1.3313764000004085,-50.0
22,lhm,f,19,r,2,(-172.20000000000002, 2.1088417881317425e-14),25,3,1,yes,x,5,x,0.7414342000001852,1,33,test1,2,0.7417184999994788,-42.0
22,lhm,f,19,r,2,(1.0544208940658713e-14, 172.20000000000002),23,25,4,yes,x,5,x,0.4610726999999315,1,34,test1,2,0.4612907999999152,-20.0
22,lhm,f,19,r,2,(-172.20000000000002, 2.1088417881317425e-14),25,25,4,yes,x,5,x,0.43269299999974464,1,35,test1,2,0.4327976000004128,-20.0
22,lhm,f,19,r,2,(-121.76378772032352, -121.76378772032348),26,-5,12,no,m,6,m,0.9185797999998613,1,36,test1,2,0.9187346999997317,-20.0
22,lhm,f,19,r,2,(172.20000000000002, 0.0),21,-3,11,no,m,6,m,0.8476056999998036,1,37,test1,2,0.8477088999998159,-20.0
22,lhm,f,19,r,2,(172.20000000000002, 0.0),21,-25,14,yes,x,5,x,0.5169669999995676,1,38,test1,2,0.517373900000166,-70.0
22,lhm,f,19,r,2,(172.20000000000002, 0.0),21,25,4,yes,x,5,x,0.48597999999947206,1,39,test1,2,0.4860826999993151,-20.0
22,lhm,f,19,r,2,(-121.76378772032348, 121.76378772032349),24,7,3,yes,x,5,x,0.60083990000021,1,40,test1,2,0.6012442000001101,-38.0
22,lhm,f,19,r,2,(-3.163262682197613e-14, -172.20000000000002),27,-3,11,yes,x,5,m,1.2621555000005173,0,41,test1,2,1.2623751000000993,-48.0
22,lhm,f,19,r,2,(-121.76378772032352, -121.76378772032348),26,5,2,yes,x,5,x,0.7338314999997237,1,42,test1,2,0.7342491999997947,-40.0
22,lhm,f,19,r,2,(-121.76378772032348, 121.76378772032349),24,-7,13,no,m,6,m,1.1178292999993573,1,43,test1,2,1.1179733999997552,-40.0
22,lhm,f,19,r,2,(-3.163262682197613e-14, -172.20000000000002),27,-3,11,no,m,6,m,0.8445422999993752,1,44,test1,2,0.8446481000000858,-40.0
22,lhm,f,19,r,2,(121.76378772032349, 121.76378772032349),22,-3,11,yes,x,5,x,0.9894388000002436,1,45,test1,2,0.9895844000002398,-48.0
22,lhm,f,19,r,2,(1.0544208940658713e-14, 172.20000000000002),23,25,4,no,m,6,m,1.0978648000000248,1,46,test1,2,1.0979693999997835,-48.0
22,lhm,f,19,r,2,(-121.76378772032348, 121.76378772032349),24,-5,12,no,m,6,m,0.9131918999992195,1,47,test1,2,0.9133585999998104,-48.0
22,lhm,f,19,r,2,(1.0544208940658713e-14, 172.20000000000002),23,-3,11,yes,x,5,m,1.2293614000000161,0,48,test1,2,1.2296924000002036,-48.0
22,lhm,f,19,r,2,(121.76378772032346, -121.76378772032352),28,-5,12,yes,x,5,x,1.0645338999993328,1,49,test1,2,1.0655790000000707,-50.0
22,lhm,f,19,r,2,(-172.20000000000002, 2.1088417881317425e-14),25,-25,14,yes,x,5,x,0.4370844000004581,1,50,test1,2,0.4376347999996142,-70.0
22,lhm,f,19,r,2,(-3.163262682197613e-14, -172.20000000000002),27,-5,12,yes,x,5,x,0.7449654000001829,1,51,test1,2,0.7452000999992379,-50.0
22,lhm,f,19,r,2,(-172.20000000000002, 2.1088417881317425e-14),25,-7,13,yes,x,5,x,0.582885200000419,1,52,test1,2,0.583223700000417,-52.0
22,lhm,f,19,r,2,(-3.163262682197613e-14, -172.20000000000002),27,3,1,yes,x,5,x,1.0405630999994173,1,53,test1,2,1.0407018999994762,-42.0
22,lhm,f,19,r,2,(121.76378772032346, -121.76378772032352),28,3,1,yes,x,5,x,1.3117415000006076,1,54,test1,2,1.3118703999998615,-42.0
22,lhm,f,19,r,2,(-172.20000000000002, 2.1088417881317425e-14),25,-3,11,yes,x,5,x,0.5664090999998734,1,55,test1,2,0.5670940999998493,-48.0
22,lhm,f,19,r,2,(-3.163262682197613e-14, -172.20000000000002),27,5,2,yes,x,5,x,0.6917370000001029,1,56,test1,2,0.6918369000004532,-40.0
22,lhm,f,19,r,2,(1.0544208940658713e-14, 172.20000000000002),23,-7,13,yes,x,5,x,0.49137919999975566,1,57,test1,2,0.49172809999981837,-52.0
22,lhm,f,19,r,2,(1.0544208940658713e-14, 172.20000000000002),23,3,1,yes,x,5,x,0.5621143999997003,1,58,test1,2,0.5623126000000411,-42.0
22,lhm,f,19,r,2,(121.76378772032346, -121.76378772032352),28,25,4,yes,x,5,x,0.5746720000006462,1,59,test1,2,0.5747943000005762,-20.0
22,lhm,f,19,r,2,(-3.163262682197613e-14, -172.20000000000002),27,-25,14,no,m,6,m,1.2190945000002102,1,60,test1,2,1.2193202999997084,-20.0
22,lhm,f,19,r,2,(172.20000000000002, 0.0),21,-5,12,yes,x,5,x,0.5685750000002372,1,61,test1,2,0.5687367999998969,-50.0
22,lhm,f,19,r,2,(121.76378772032349, 121.76378772032349),22,3,1,yes,x,5,x,0.7502450000001772,1,62,test1,2,0.7506829999992988,-42.0
22,lhm,f,19,r,2,(-172.20000000000002, 2.1088417881317425e-14),25,-3,11,yes,x,5,x,0.6463014999999359,1,63,test1,2,0.6464200000000346,-48.0
22,lhm,f,19,r,2,(121.76378772032346, -121.76378772032352),28,-7,13,yes,x,5,x,0.7771924999997282,1,64,test1,2,0.7782581000001301,-52.0
22,lhm,f,19,r,2,(172.20000000000002, 0.0),21,-3,11,yes,x,5,x,0.6726824999996097,1,65,test1,2,0.6730888000001869,-48.0
22,lhm,f,19,r,2,(-121.76378772032352, -121.76378772032348),26,-7,13,yes,x,5,x,0.5578073000006043,1,66,test1,2,0.5579093000005741,-52.0
22,lhm,f,19,r,2,(121.76378772032349, 121.76378772032349),22,-5,12,no,m,6,m,1.0494411999998192,1,67,test1,2,1.0496821000006094,-52.0
22,lhm,f,19,r,2,(-3.163262682197613e-14, -172.20000000000002),27,25,4,yes,x,5,x,0.4850622000003568,1,68,test1,2,0.48543750000044383,-20.0
22,lhm,f,19,r,2,(121.76378772032346, -121.76378772032352),28,7,3,no,m,6,m,0.8736542999995436,1,69,test1,2,0.8738681000004362,-20.0
22,lhm,f,19,r,2,(-121.76378772032352, -121.76378772032348),26,25,4,no,m,6,m,1.1964594999999463,1,70,test1,2,1.1967474000002767,-20.0
22,lhm,f,19,r,2,(172.20000000000002, 0.0),21,-5,12,no,m,6,m,1.056933000000754,1,71,test1,2,1.0573495999997249,-20.0
22,lhm,f,19,r,2,(121.76378772032346, -121.76378772032352),28,-5,12,no,m,6,m,0.9355446999998094,1,72,test1,2,0.9356450999994195,-20.0
22,lhm,f,19,r,2,(-121.76378772032352, -121.76378772032348),26,-25,14,no,m,6,m,0.8432282000003397,1,73,test1,2,0.8435223999995287,-20.0
22,lhm,f,19,r,2,(-3.163262682197613e-14, -172.20000000000002),27,-5,12,yes,x,5,x,1.2582154000001537,1,74,test1,2,1.258514600000126,-50.0
22,lhm,f,19,r,2,(172.20000000000002, 0.0),21,25,4,yes,x,5,x,0.4990469000003941,1,75,test1,2,0.4991594000002806,-20.0
22,lhm,f,19,r,2,(-172.20000000000002, 2.1088417881317425e-14),25,-7,13,no,m,6,m,0.7179380999996283,1,76,test1,2,0.7182130000001052,-20.0
22,lhm,f,19,r,2,(121.76378772032349, 121.76378772032349),22,-7,13,no,m,6,m,0.7361295999999129,1,77,test1,2,0.7364078999999037,-20.0
22,lhm,f,19,r,2,(-3.163262682197613e-14, -172.20000000000002),27,-7,13,yes,x,5,x,0.6553997000000891,1,78,test1,2,0.6555051999994248,-52.0
22,lhm,f,19,r,2,(1.0544208940658713e-14, 172.20000000000002),23,-7,13,yes,x,5,x,0.5404705999999351,1,79,test1,2,0.5405687000002217,-52.0
22,lhm,f,19,r,2,(-121.76378772032352, -121.76378772032348),26,7,3,yes,x,5,x,0.6833224000001792,1,80,test1,2,0.6836776999998619,-38.0
22,lhm,f,19,r,2,(-3.163262682197613e-14, -172.20000000000002),27,-7,13,yes,x,5,x,0.5729567999997016,1,81,test1,2,0.5733436999998958,-52.0
22,lhm,f,19,r,2,(121.76378772032346, -121.76378772032352),28,-7,13,no,m,6,m,1.0420740999998088,1,82,test1,2,1.0421749999995882,-52.0
22,lhm,f,19,r,2,(-3.163262682197613e-14, -172.20000000000002),27,-3,11,yes,x,5,x,1.1680931999999302,1,83,test1,2,1.168191900000238,-48.0
22,lhm,f,19,r,2,(-121.76378772032352, -121.76378772032348),26,-3,11,yes,x,5,x,0.5621381000000838,1,84,test1,2,0.562426399999822,-48.0
22,lhm,f,19,r,2,(1.0544208940658713e-14, 172.20000000000002),23,5,2,no,m,6,x,0.6025792999998885,0,85,test1,2,0.6026746999996249,-48.0
22,lhm,f,19,r,2,(121.76378772032349, 121.76378772032349),22,7,3,yes,x,5,x,0.6766112000004796,1,86,test1,2,0.6767133000003014,-38.0
22,lhm,f,19,r,2,(-172.20000000000002, 2.1088417881317425e-14),25,-25,14,no,m,6,m,0.8600701000004847,1,87,test1,2,0.8602646999997887,-38.0
22,lhm,f,19,r,2,(121.76378772032349, 121.76378772032349),22,7,3,no,m,6,m,1.0967184000000998,1,88,test1,2,1.096918999999616,-38.0
22,lhm,f,19,r,2,(-121.76378772032348, 121.76378772032349),24,-25,14,no,m,6,m,0.8439221000007819,1,89,test1,2,0.8442267999998876,-38.0
22,lhm,f,19,r,2,(-121.76378772032348, 121.76378772032349),24,3,1,yes,x,5,x,0.5962666000004901,1,90,test1,2,0.5966405999997733,-42.0
22,lhm,f,19,r,2,(172.20000000000002, 0.0),21,3,1,yes,x,5,x,1.091105399999833,1,91,test1,2,1.0913277999998172,-42.0
22,lhm,f,19,r,2,(121.76378772032346, -121.76378772032352),28,-25,14,yes,x,5,x,0.5294059999996534,1,92,test1,2,0.5295344000005571,-70.0
22,lhm,f,19,r,2,(172.20000000000002, 0.0),21,-25,14,yes,x,5,x,0.48680069999954867,1,93,test1,2,0.48703540000042267,-70.0
22,lhm,f,19,r,2,(121.76378772032349, 121.76378772032349),22,25,4,no,m,6,m,0.9245623000006162,1,94,test1,2,0.9246628999999302,-70.0
22,lhm,f,19,r,2,(172.20000000000002, 0.0),21,5,2,yes,x,5,x,0.5752312999993592,1,95,test1,2,0.5754093999994438,-40.0
22,lhm,f,19,r,2,(-121.76378772032352, -121.76378772032348),26,-5,12,yes,x,5,x,0.5892808999997214,1,96,test1,2,0.5896210999999312,-50.0
22,lhm,f,19,r,2,(172.20000000000002, 0.0),21,-7,13,yes,x,5,x,0.5303610000000845,1,1,test2,2,0.530740600000172,-52.0
22,lhm,f,19,r,2,(121.76378772032349, 121.76378772032349),22,-25,14,no,m,6,m,1.064422000000377,1,2,test2,2,1.0646541999994952,-52.0
22,lhm,f,19,r,2,(-3.163262682197613e-14, -172.20000000000002),27,3,1,yes,x,5,x,0.8552036999999473,1,3,test2,2,0.8553257999992638,-42.0
22,lhm,f,19,r,2,(-121.76378772032348, 121.76378772032349),24,-25,14,yes,x,5,x,0.4707365000003847,1,4,test2,2,0.4708322999995289,-70.0
22,lhm,f,19,r,2,(121.76378772032349, 121.76378772032349),22,-3,11,no,m,6,m,1.264041499999621,1,5,test2,2,1.2642486999993707,-70.0
22,lhm,f,19,r,2,(-121.76378772032352, -121.76378772032348),26,3,1,yes,x,5,x,0.8014923999999155,1,6,test2,2,0.8017323000003671,-42.0
22,lhm,f,19,r,2,(-121.76378772032348, 121.76378772032349),24,-3,11,yes,x,5,x,0.7608571999999185,1,7,test2,2,0.760975099999996,-48.0
22,lhm,f,19,r,2,(-172.20000000000002, 2.1088417881317425e-14),25,-5,12,no,m,6,m,0.9126760000008289,1,8,test2,2,0.9129180999998425,-48.0
22,lhm,f,19,r,2,(-121.76378772032352, -121.76378772032348),26,-7,13,yes,x,5,x,0.5204225000006772,1,9,test2,2,0.5209338999993633,-52.0
22,lhm,f,19,r,2,(-121.76378772032352, -121.76378772032348),26,5,2,yes,x,5,x,0.6531940000004397,1,10,test2,2,0.6535162999998647,-40.0
22,lhm,f,19,r,2,(-3.163262682197613e-14, -172.20000000000002),27,3,1,no,m,6,m,1.122474300000249,1,11,test2,2,1.1227773999999044,-40.0
22,lhm,f,19,r,2,(1.0544208940658713e-14, 172.20000000000002),23,-25,14,yes,x,5,x,0.47110330000032263,1,12,test2,2,0.47131679999984044,-70.0
22,lhm,f,19,r,2,(172.20000000000002, 0.0),21,5,2,yes,x,5,x,0.6805587999997442,1,13,test2,2,0.6807336000001669,-40.0
22,lhm,f,19,r,2,(121.76378772032349, 121.76378772032349),22,-7,13,yes,x,5,x,0.5364497000000483,1,14,test2,2,0.5366382000001977,-52.0
22,lhm,f,19,r,2,(-3.163262682197613e-14, -172.20000000000002),27,7,3,no,m,6,m,0.9781986999996661,1,15,test2,2,0.9784654000004593,-52.0
22,lhm,f,19,r,2,(1.0544208940658713e-14, 172.20000000000002),23,-25,14,yes,x,5,x,0.514430999999604,1,16,test2,2,0.5145307000002504,-70.0
22,lhm,f,19,r,2,(-172.20000000000002, 2.1088417881317425e-14),25,-7,13,yes,x,5,x,0.5345145999999659,1,17,test2,2,0.5348242999998547,-52.0
22,lhm,f,19,r,2,(121.76378772032349, 121.76378772032349),22,25,4,yes,x,5,x,0.47454990000005637,1,18,test2,2,0.4750680999995893,-20.0
22,lhm,f,19,r,2,(1.0544208940658713e-14, 172.20000000000002),23,3,1,yes,x,5,x,0.8488698999999542,1,19,test2,2,0.8492769000004046,-42.0
22,lhm,f,19,r,2,(-172.20000000000002, 2.1088417881317425e-14),25,3,1,no,m,6,m,0.9682992999996713,1,20,test2,2,0.9684509999997317,-42.0
22,lhm,f,19,r,2,(-3.163262682197613e-14, -172.20000000000002),27,25,4,yes,x,5,x,0.4796996000004583,1,21,test2,2,0.4798178999999436,-20.0
22,lhm,f,19,r,2,(-121.76378772032352, -121.76378772032348),26,-7,13,no,m,6,m,1.2093468000002758,1,22,test2,2,1.2095860999997967,-20.0
22,lhm,f,19,r,2,(-172.20000000000002, 2.1088417881317425e-14),25,5,2,yes,x,5,x,0.4587378999995053,1,23,test2,2,0.45903809999981604,-40.0
22,lhm,f,19,r,2,(121.76378772032346, -121.76378772032352),28,7,3,yes,x,5,x,0.6038971000007223,1,24,test2,2,0.6042968000001565,-38.0
22,lhm,f,19,r,2,(-121.76378772032348, 121.76378772032349),24,3,1,yes,x,5,x,0.8660129999998389,1,25,test2,2,0.8662242000000333,-42.0
22,lhm,f,19,r,2,(121.76378772032346, -121.76378772032352),28,-3,11,yes,x,5,m,0.8689238999995723,0,26,test2,2,0.8692900000005466,-48.0
22,lhm,f,19,r,2,(-121.76378772032348, 121.76378772032349),24,-7,13,yes,x,5,x,0.51473150000038,1,27,test2,2,0.5148489000002883,-52.0
22,lhm,f,19,r,2,(172.20000000000002, 0.0),21,7,3,yes,x,5,x,0.6270856999999523,1,28,test2,2,0.6274470999996993,-38.0
22,lhm,f,19,r,2,(172.20000000000002, 0.0),21,-3,11,yes,x,5,x,0.8020974000000933,1,29,test2,2,0.802233299999898,-48.0
22,lhm,f,19,r,2,(-3.163262682197613e-14, -172.20000000000002),27,5,2,yes,x,5,x,0.8917954999997164,1,30,test2,2,0.8919850000002043,-40.0
22,lhm,f,19,r,2,(-121.76378772032348, 121.76378772032349),24,5,2,yes,x,5,x,0.5066920999997819,1,31,test2,2,0.5069940000003044,-40.0
22,lhm,f,19,r,2,(-172.20000000000002, 2.1088417881317425e-14),25,7,3,yes,x,5,x,0.5093268000000535,1,32,test2,2,0.5094970000000103,-38.0
22,lhm,f,19,r,2,(121.76378772032349, 121.76378772032349),22,7,3,yes,x,5,x,0.5335221000004822,1,33,test2,2,0.5339115999995556,-38.0
22,lhm,f,19,r,2,(121.76378772032349, 121.76378772032349),22,3,1,no,m,6,m,1.1713994000001549,1,34,test2,2,1.1717883000001166,-38.0
22,lhm,f,19,r,2,(-3.163262682197613e-14, -172.20000000000002),27,-25,14,yes,x,5,x,0.5232450000003155,1,35,test2,2,0.523358499999631,-70.0
22,lhm,f,19,r,2,(121.76378772032349, 121.76378772032349),22,-5,12,yes,x,5,x,0.5987652000003436,1,36,test2,2,0.5988827000001038,-50.0
22,lhm,f,19,r,2,(-121.76378772032348, 121.76378772032349),24,7,3,no,m,6,m,1.2591519999996308,1,37,test2,2,1.2593346000003294,-50.0
22,lhm,f,19,r,2,(-121.76378772032352, -121.76378772032348),26,-25,14,yes,x,5,x,0.49427529999957187,1,38,test2,2,0.49490049999985786,-70.0
22,lhm,f,19,r,2,(1.0544208940658713e-14, 172.20000000000002),23,-5,12,no,m,6,m,0.9751126999999542,1,39,test2,2,0.975253800000246,-70.0
22,lhm,f,19,r,2,(-121.76378772032348, 121.76378772032349),24,-25,14,yes,x,5,x,0.4373452999998335,1,40,test2,2,0.43744650000007823,-70.0
22,lhm,f,19,r,2,(172.20000000000002, 0.0),21,3,1,no,m,6,m,0.7828883000001952,1,41,test2,2,0.7835394000003362,-70.0
22,lhm,f,19,r,2,(-172.20000000000002, 2.1088417881317425e-14),25,25,4,no,m,6,m,0.8971484000003329,1,42,test2,2,0.8974000999996861,-70.0
22,lhm,f,19,r,2,(-3.163262682197613e-14, -172.20000000000002),27,-5,12,no,m,6,m,0.9262582999999722,1,43,test2,2,0.9266109000000142,-70.0
22,lhm,f,19,r,2,(-172.20000000000002, 2.1088417881317425e-14),25,3,1,yes,x,5,x,1.0728847000000314,1,44,test2,2,1.0729983000001084,-42.0
22,lhm,f,19,r,2,(-3.163262682197613e-14, -172.20000000000002),27,-25,14,yes,x,5,x,0.5548423999998704,1,45,test2,2,0.5549980000005235,-70.0
22,lhm,f,19,r,2,(172.20000000000002, 0.0),21,7,3,yes,x,5,x,0.5763736999997491,1,46,test2,2,0.5765395999997054,-38.0
22,lhm,f,19,r,2,(121.76378772032349, 121.76378772032349),22,5,2,yes,x,5,x,0.6393477999999959,1,47,test2,2,0.6396437000003061,-40.0
22,lhm,f,19,r,2,(1.0544208940658713e-14, 172.20000000000002),23,7,3,no,m,6,m,0.857139200000347,1,48,test2,2,0.85748969999986,-40.0
22,lhm,f,19,r,2,(-121.76378772032352, -121.76378772032348),26,3,1,no,m,6,m,1.0325863999996727,1,49,test2,2,1.0328228000007584,-40.0
22,lhm,f,19,r,2,(121.76378772032346, -121.76378772032352),28,5,2,yes,x,5,x,0.9165495999995983,1,50,test2,2,0.9168182999992496,-40.0
22,lhm,f,19,r,2,(-172.20000000000002, 2.1088417881317425e-14),25,-5,12,yes,x,5,x,0.8208021999998891,1,51,test2,2,0.8210995999997976,-50.0
22,lhm,f,19,r,2,(-121.76378772032348, 121.76378772032349),24,25,4,yes,x,5,x,0.47891619999973045,1,52,test2,2,0.4792185000005702,-20.0
22,lhm,f,19,r,2,(172.20000000000002, 0.0),21,-7,13,yes,x,5,x,0.5951515999995536,1,53,test2,2,0.5952550000001793,-52.0
22,lhm,f,19,r,2,(121.76378772032349, 121.76378772032349),22,5,2,no,m,6,m,0.9394013000000996,1,54,test2,2,0.9396323999999368,-52.0
22,lhm,f,19,r,2,(-121.76378772032348, 121.76378772032349),24,7,3,yes,x,5,x,0.4824332999996841,1,55,test2,2,0.4827132000000347,-38.0
22,lhm,f,19,r,2,(172.20000000000002, 0.0),21,-5,12,yes,x,5,x,0.6027031000003262,1,56,test2,2,0.602989200000593,-50.0
22,lhm,f,19,r,2,(-3.163262682197613e-14, -172.20000000000002),27,-7,13,no,m,6,m,0.9303844000005483,1,57,test2,2,0.9306053000000247,-50.0
22,lhm,f,19,r,2,(-172.20000000000002, 2.1088417881317425e-14),25,25,4,yes,x,5,x,0.4725631000001158,1,58,test2,2,0.4727244999994582,-20.0
22,lhm,f,19,r,2,(-121.76378772032348, 121.76378772032349),24,-7,13,yes,x,5,x,0.4803162999996857,1,59,test2,2,0.4806782000005114,-52.0
22,lhm,f,19,r,2,(172.20000000000002, 0.0),21,5,2,no,m,6,m,0.9660537999998269,1,60,test2,2,0.966349999999693,-52.0
22,lhm,f,19,r,2,(-121.76378772032352, -121.76378772032348),26,-3,11,yes,x,5,x,1.2506204999999682,1,61,test2,2,1.2507382000003417,-48.0
22,lhm,f,19,r,2,(172.20000000000002, 0.0),21,-25,14,no,m,6,m,0.7170610999992277,1,62,test2,2,0.7173447000004671,-48.0
22,lhm,f,19,r,2,(-121.76378772032352, -121.76378772032348),26,-25,14,yes,x,5,x,0.4521822999995493,1,63,test2,2,0.4524363999998968,-70.0
22,lhm,f,19,r,2,(-121.76378772032348, 121.76378772032349),24,25,4,no,m,6,m,0.9503833999997369,1,64,test2,2,0.950605899999573,-70.0
22,lhm,f,19,r,2,(-121.76378772032352, -121.76378772032348),26,25,4,yes,x,5,x,0.47107640000012907,1,65,test2,2,0.47165289999975357,-20.0
22,lhm,f,19,r,2,(-3.163262682197613e-14, -172.20000000000002),27,5,2,no,m,6,m,0.7670483000001695,1,66,test2,2,0.7673367999996117,-20.0
22,lhm,f,19,r,2,(121.76378772032346, -121.76378772032352),28,7,3,yes,x,5,x,0.6898557000004075,1,67,test2,2,0.6899826999997458,-38.0
22,lhm,f,19,r,2,(121.76378772032346, -121.76378772032352),28,-3,11,yes,x,5,x,0.7697745000004943,1,68,test2,2,0.7702809000002162,-48.0
22,lhm,f,19,r,2,(-3.163262682197613e-14, -172.20000000000002),27,7,3,yes,x,5,x,0.5669305999999779,1,69,test2,2,0.567294800000127,-38.0
22,lhm,f,19,r,2,(1.0544208940658713e-14, 172.20000000000002),23,-5,12,yes,x,5,x,0.5844213999998829,1,70,test2,2,0.5848150000001624,-50.0
22,lhm,f,19,r,2,(1.0544208940658713e-14, 172.20000000000002),23,7,3,yes,x,5,x,0.47514400000000023,1,71,test2,2,0.47525129999939963,-38.0
22,lhm,f,19,r,2,(121.76378772032346, -121.76378772032352),28,-25,14,no,m,6,x,1.0196685000000798,0,72,test2,2,1.020004300000437,-38.0
22,lhm,f,19,r,2,(-121.76378772032348, 121.76378772032349),24,-3,11,yes,x,5,m,1.1919953999995414,0,73,test2,2,1.1922110999994402,-48.0
22,lhm,f,19,r,2,(121.76378772032346, -121.76378772032352),28,-7,13,yes,x,5,x,0.9017977000003157,1,74,test2,2,0.9021188999995502,-52.0
22,lhm,f,19,r,2,(172.20000000000002, 0.0),21,3,1,yes,x,5,x,1.0012226999997438,1,75,test2,2,1.001457099999243,-42.0
22,lhm,f,19,r,2,(121.76378772032346, -121.76378772032352),28,5,2,yes,x,5,x,0.7628846000006888,1,76,test2,2,0.7630079999998998,-40.0
22,lhm,f,19,r,2,(121.76378772032346, -121.76378772032352),28,3,1,yes,x,5,x,0.6701419000000897,1,77,test2,2,0.6702987999997276,-42.0
22,lhm,f,19,r,2,(-121.76378772032348, 121.76378772032349),24,5,2,yes,x,5,x,0.5605176999997639,1,78,test2,2,0.56091429999924,-40.0
22,lhm,f,19,r,2,(-172.20000000000002, 2.1088417881317425e-14),25,7,3,yes,x,5,x,0.5833259999999427,1,79,test2,2,0.5838879000002635,-38.0
22,lhm,f,19,r,2,(172.20000000000002, 0.0),21,25,4,no,m,6,m,1.0403392000007443,1,80,test2,2,1.0409725999998045,-38.0
22,lhm,f,19,r,2,(-121.76378772032352, -121.76378772032348),26,7,3,no,m,6,m,1.205106700000215,1,81,test2,2,1.2052696000000651,-38.0
22,lhm,f,19,r,2,(-121.76378772032352, -121.76378772032348),26,25,4,yes,x,5,x,0.49698799999987386,1,82,test2,2,0.4975646000002598,-20.0
22,lhm,f,19,r,2,(-121.76378772032352, -121.76378772032348),26,3,1,yes,x,5,x,1.1337358999999196,1,83,test2,2,1.1339484999998604,-42.0
22,lhm,f,19,r,2,(121.76378772032346, -121.76378772032352),28,25,4,yes,x,5,x,0.49884750000001077,1,84,test2,2,0.499516500000027,-20.0
22,lhm,f,19,r,2,(1.0544208940658713e-14, 172.20000000000002),23,3,1,no,m,6,m,1.1756247000002986,1,85,test2,2,1.17585759999929,-20.0
22,lhm,f,19,r,2,(-172.20000000000002, 2.1088417881317425e-14),25,-3,11,no,m,6,m,0.8639647999998488,1,86,test2,2,0.8642743000000337,-20.0
22,lhm,f,19,r,2,(121.76378772032349, 121.76378772032349),22,-3,11,yes,x,5,m,0.9298817999997482,0,87,test2,2,0.9299861999998029,-48.0
22,lhm,f,19,r,2,(121.76378772032346, -121.76378772032352),28,-3,11,no,m,6,m,1.0417440999999599,1,88,test2,2,1.0420295000003534,-48.0
22,lhm,f,19,r,2,(-172.20000000000002, 2.1088417881317425e-14),25,-5,12,yes,x,5,x,0.521523000000343,1,89,test2,2,0.5221299000004365,-50.0
22,lhm,f,19,r,2,(1.0544208940658713e-14, 172.20000000000002),23,-7,13,no,m,6,m,0.9209406999998464,1,90,test2,2,0.9216206000000966,-50.0
22,lhm,f,19,r,2,(1.0544208940658713e-14, 172.20000000000002),23,7,3,yes,x,5,x,0.5197185000006357,1,91,test2,2,0.5199056000001292,-38.0
22,lhm,f,19,r,2,(-121.76378772032348, 121.76378772032349),24,-5,12,yes,x,5,x,0.7840994000007413,1,92,test2,2,0.7846306000001277,-50.0
22,lhm,f,19,r,2,(-172.20000000000002, 2.1088417881317425e-14),25,5,2,no,m,6,m,0.8303573999992295,1,93,test2,2,0.8304552999998123,-50.0
22,lhm,f,19,r,2,(121.76378772032346, -121.76378772032352),28,3,1,no,m,6,m,0.9180874999992739,1,94,test2,2,0.9185448000007455,-50.0
22,lhm,f,19,r,2,(121.76378772032349, 121.76378772032349),22,3,1,yes,x,5,x,0.7631191999998919,1,95,test2,2,0.7633220999996411,-42.0
22,lhm,f,19,r,2,(1.0544208940658713e-14, 172.20000000000002),23,-3,11,no,m,6,m,0.9045244000008097,1,96,test2,2,0.9046238000000812,-42.0
22,lhm,f,19,r,2,(-121.76378772032348, 121.76378772032349),24,-5,12,yes,x,5,x,0.641208000000006,1,1,test1,3,0.6419300000006842,-50.0
22,lhm,f,19,r,2,(-121.76378772032348, 121.76378772032349),24,-3,11,no,m,6,m,0.9115639000001465,1,2,test1,3,0.9119454000001497,-50.0
22,lhm,f,19,r,2,(121.76378772032349, 121.76378772032349),22,-25,14,yes,x,5,x,0.501517500000773,1,3,test1,3,0.5017745999994077,-70.0
22,lhm,f,19,r,2,(1.0544208940658713e-14, 172.20000000000002),23,-25,14,no,m,6,m,0.7380407999999079,1,4,test1,3,0.7382187000002887,-70.0
22,lhm,f,19,r,2,(1.0544208940658713e-14, 172.20000000000002),23,5,2,yes,x,5,x,0.5669609999995373,1,5,test1,3,0.5670651999998881,-40.0
22,lhm,f,19,r,2,(1.0544208940658713e-14, 172.20000000000002),23,25,4,yes,x,5,x,0.45073059999958787,1,6,test1,3,0.45116649999999936,-20.0
22,lhm,f,19,r,2,(-121.76378772032348, 121.76378772032349),24,25,4,yes,x,5,x,0.48722689999976865,1,7,test1,3,0.4873320999995485,-20.0
22,lhm,f,19,r,2,(121.76378772032346, -121.76378772032352),28,25,4,no,m,6,m,0.836803900000632,1,8,test1,3,0.8369064999997136,-20.0
22,lhm,f,19,r,2,(121.76378772032349, 121.76378772032349),22,-25,14,yes,x,5,x,0.40036739999959536,1,9,test1,3,0.40054109999982757,-70.0
22,lhm,f,19,r,2,(121.76378772032346, -121.76378772032352),28,-25,14,yes,x,5,x,0.4833343000000241,1,10,test1,3,0.48368500000015047,-70.0
22,lhm,f,19,r,2,(121.76378772032349, 121.76378772032349),22,-5,12,yes,x,5,x,0.544065000000046,1,11,test1,3,0.5441633000000365,-50.0
22,lhm,f,19,r,2,(121.76378772032349, 121.76378772032349),22,5,2,yes,x,5,x,0.6649844999992638,1,12,test1,3,0.6652138999997987,-40.0
22,lhm,f,19,r,2,(-121.76378772032348, 121.76378772032349),24,5,2,no,m,6,x,0.7916604000001826,0,13,test1,3,0.7919632000002821,-40.0
22,lhm,f,19,r,2,(121.76378772032349, 121.76378772032349),22,25,4,yes,x,5,x,0.41609470000003057,1,14,test1,3,0.41637900000023365,-20.0
22,lhm,f,19,r,2,(-121.76378772032348, 121.76378772032349),24,3,1,no,m,6,m,0.6923637999998391,1,15,test1,3,0.6927597000003516,-20.0
22,lhm,f,19,r,2,(-172.20000000000002, 2.1088417881317425e-14),25,-25,14,yes,x,5,x,0.5987633999993704,1,16,test1,3,0.5990474999998696,-70.0
22,lhm,f,19,r,2,(1.0544208940658713e-14, 172.20000000000002),23,-3,11,yes,x,5,x,0.8666972000000897,1,17,test1,3,0.8669326999997793,-48.0
22,lhm,f,19,r,2,(-3.163262682197613e-14, -172.20000000000002),27,25,4,no,m,6,m,0.9431562999998278,1,18,test1,3,0.9434555000007094,-48.0
22,lhm,f,19,r,2,(-121.76378772032352, -121.76378772032348),26,7,3,yes,x,5,x,0.5788389999997889,1,19,test1,3,0.5790786999996271,-38.0
22,lhm,f,19,r,2,(-172.20000000000002, 2.1088417881317425e-14),25,5,2,yes,x,5,x,0.5448941999993622,1,20,test1,3,0.5455620000002455,-40.0
22,lhm,f,19,r,2,(-121.76378772032352, -121.76378772032348),26,-3,11,no,m,6,m,1.1596645999998145,1,21,test1,3,1.15976529999989,-40.0
22,lhm,f,19,r,2,(121.76378772032346, -121.76378772032352),28,5,2,no,m,6,m,0.9253100000005361,1,22,test1,3,0.9255238999994617,-40.0
22,lhm,f,19,r,2,(-172.20000000000002, 2.1088417881317425e-14),25,7,3,no,m,6,m,0.9365741000001435,1,23,test1,3,0.9368676000003688,-40.0
22,lhm,f,19,r,2,(121.76378772032349, 121.76378772032349),22,-7,13,yes,x,5,x,0.49057840000023134,1,24,test1,3,0.4906997999996747,-52.0
22,lhm,f,19,r,2,(-121.76378772032352, -121.76378772032348),26,-5,12,yes,x,5,x,0.7356808999993518,1,25,test1,3,0.7358348999996451,-50.0
22,lhm,f,19,r,2,(-3.163262682197613e-14, -172.20000000000002),27,7,3,yes,x,5,x,0.866746100000455,1,26,test1,3,0.8670887999996921,-38.0
22,lhm,f,19,r,2,(172.20000000000002, 0.0),21,7,3,no,m,6,m,0.9289177000000564,1,27,test1,3,0.9290166999999201,-38.0
22,lhm,f,19,r,2,(121.76378772032346, -121.76378772032352),28,-5,12,yes,x,5,x,1.0429345000002286,1,28,test1,3,1.0434257000006255,-50.0
22,lhm,f,19,r,2,(-121.76378772032352, -121.76378772032348),26,5,2,no,m,6,m,0.927848699999231,1,29,test1,3,0.9282380000004196,-50.0
22,lhm,f,19,r,2,(1.0544208940658713e-14, 172.20000000000002),23,5,2,yes,x,5,x,0.5253395999998247,1,30,test1,3,0.5256497000000309,-40.0
22,lhm,f,19,r,2,(1.0544208940658713e-14, 172.20000000000002),23,-5,12,yes,x,5,x,0.5112901000002239,1,31,test1,3,0.5115111000004617,-50.0
22,lhm,f,19,r,2,(172.20000000000002, 0.0),21,-7,13,no,m,6,m,1.253738900000826,1,32,test1,3,1.2541965999998865,-50.0
22,lhm,f,19,r,2,(-172.20000000000002, 2.1088417881317425e-14),25,3,1,yes,x,5,x,0.6918035999997301,1,33,test1,3,0.6922205000000758,-42.0
22,lhm,f,19,r,2,(1.0544208940658713e-14, 172.20000000000002),23,25,4,yes,x,5,x,0.4615072999995391,1,34,test1,3,0.4621333000004597,-20.0
22,lhm,f,19,r,2,(-172.20000000000002, 2.1088417881317425e-14),25,25,4,yes,x,5,x,0.512062199999491,1,35,test1,3,0.5123595999993995,-20.0
22,lhm,f,19,r,2,(-121.76378772032352, -121.76378772032348),26,-5,12,no,m,6,m,1.0272414000000936,1,36,test1,3,1.027370100000553,-20.0
22,lhm,f,19,r,2,(172.20000000000002, 0.0),21,-3,11,no,m,6,m,1.018399199999294,1,37,test1,3,1.0188723000001119,-20.0
22,lhm,f,19,r,2,(172.20000000000002, 0.0),21,-25,14,yes,x,5,x,0.5079003999999259,1,38,test1,3,0.5084810999996989,-70.0
22,lhm,f,19,r,2,(172.20000000000002, 0.0),21,25,4,yes,x,5,x,0.44767439999941416,1,39,test1,3,0.4478032999995776,-20.0
22,lhm,f,19,r,2,(-121.76378772032348, 121.76378772032349),24,7,3,yes,x,5,x,0.4805844000002253,1,40,test1,3,0.48100049999993644,-38.0
22,lhm,f,19,r,2,(-3.163262682197613e-14, -172.20000000000002),27,-3,11,yes,x,5,m,0.7765681999990193,0,41,test1,3,0.7767218000008143,-48.0
22,lhm,f,19,r,2,(-121.76378772032352, -121.76378772032348),26,5,2,yes,x,5,x,0.5939863000003243,1,42,test1,3,0.5940904999988561,-40.0
22,lhm,f,19,r,2,(-121.76378772032348, 121.76378772032349),24,-7,13,no,m,6,m,0.9576458999999886,1,43,test1,3,0.9579729000015504,-40.0
22,lhm,f,19,r,2,(-3.163262682197613e-14, -172.20000000000002),27,-3,11,no,m,6,m,0.7652631000000838,1,44,test1,3,0.7657799999997223,-40.0
22,lhm,f,19,r,2,(121.76378772032349, 121.76378772032349),22,-3,11,yes,x,5,x,1.0822031999996398,1,45,test1,3,1.0824076999997487,-48.0
22,lhm,f,19,r,2,(1.0544208940658713e-14, 172.20000000000002),23,25,4,no,m,6,m,0.7990031000008457,1,46,test1,3,0.799358399999619,-48.0
22,lhm,f,19,r,2,(-121.76378772032348, 121.76378772032349),24,-5,12,no,m,6,m,0.84824959999969,1,47,test1,3,0.8486803000014334,-48.0
22,lhm,f,19,r,2,(1.0544208940658713e-14, 172.20000000000002),23,-3,11,yes,x,5,x,0.6198825999999826,1,48,test1,3,0.620109900000898,-48.0
22,lhm,f,19,r,2,(121.76378772032346, -121.76378772032352),28,-5,12,yes,x,5,x,1.073764900000242,1,49,test1,3,1.0739830999991682,-50.0
22,lhm,f,19,r,2,(-172.20000000000002, 2.1088417881317425e-14),25,-25,14,yes,x,5,x,0.44250690000080795,1,50,test1,3,0.4430484000004071,-70.0
22,lhm,f,19,r,2,(-3.163262682197613e-14, -172.20000000000002),27,-5,12,yes,x,5,x,0.8825752000011562,1,51,test1,3,0.8828629999989062,-50.0
22,lhm,f,19,r,2,(-172.20000000000002, 2.1088417881317425e-14),25,-7,13,yes,x,5,x,0.5122021999995923,1,52,test1,3,0.5128499000002193,-52.0
22,lhm,f,19,r,2,(-3.163262682197613e-14, -172.20000000000002),27,3,1,yes,x,5,m,1.0470829000005324,0,53,test1,3,1.0475377000002482,-42.0
22,lhm,f,19,r,2,(121.76378772032346, -121.76378772032352),28,3,1,yes,x,5,x,1.2472287000000506,1,54,test1,3,1.2473284999996395,-42.0
22,lhm,f,19,r,2,(-172.20000000000002, 2.1088417881317425e-14),25,-3,11,yes,x,5,x,0.7841748000009829,1,55,test1,3,0.7842777000005299,-48.0
22,lhm,f,19,r,2,(-3.163262682197613e-14, -172.20000000000002),27,5,2,yes,x,5,x,0.7695349000005081,1,56,test1,3,0.7696728999999323,-40.0
22,lhm,f,19,r,2,(1.0544208940658713e-14, 172.20000000000002),23,-7,13,yes,x,5,x,0.5762918999989779,1,57,test1,3,0.5764444999986154,-52.0
22,lhm,f,19,r,2,(1.0544208940658713e-14, 172.20000000000002),23,3,1,yes,x,5,x,0.6302727000002051,1,58,test1,3,0.6304067000000941,-42.0
22,lhm,f,19,r,2,(121.76378772032346, -121.76378772032352),28,25,4,yes,x,5,x,0.5585053999984666,1,59,test1,3,0.5587160999984917,-20.0
22,lhm,f,19,r,2,(-3.163262682197613e-14, -172.20000000000002),27,-25,14,no,m,6,m,1.5927802999995038,1,60,test1,3,1.5930162000004202,-20.0
22,lhm,f,19,r,2,(172.20000000000002, 0.0),21,-5,12,yes,x,5,x,0.615108699999837,1,61,test1,3,0.6152098999991722,-50.0
22,lhm,f,19,r,2,(121.76378772032349, 121.76378772032349),22,3,1,yes,x,5,x,0.9340992999987066,1,62,test1,3,0.9342003999990993,-42.0
22,lhm,f,19,r,2,(-172.20000000000002, 2.1088417881317425e-14),25,-3,11,yes,x,5,x,0.9214701000000787,1,63,test1,3,0.9215762999992876,-48.0
22,lhm,f,19,r,2,(121.76378772032346, -121.76378772032352),28,-7,13,yes,x,5,x,0.5908655000002909,1,64,test1,3,0.590994000000137,-52.0
22,lhm,f,19,r,2,(172.20000000000002, 0.0),21,-3,11,yes,x,5,x,0.8509446999996726,1,65,test1,3,0.8513868999998522,-48.0
22,lhm,f,19,r,2,(-121.76378772032352, -121.76378772032348),26,-7,13,yes,x,5,x,0.5886237999984587,1,66,test1,3,0.5887296000000788,-52.0
22,lhm,f,19,r,2,(121.76378772032349, 121.76378772032349),22,-5,12,no,m,6,m,1.1024853999988409,1,67,test1,3,1.10289290000037,-52.0
22,lhm,f,19,r,2,(-3.163262682197613e-14, -172.20000000000002),27,25,4,yes,x,5,x,0.46837090000008175,1,68,test1,3,0.46848559999853023,-20.0
22,lhm,f,19,r,2,(121.76378772032346, -121.76378772032352),28,7,3,no,m,6,m,1.0108502000002773,1,69,test1,3,1.0111415999999736,-20.0
22,lhm,f,19,r,2,(-121.76378772032352, -121.76378772032348),26,25,4,no,m,6,m,1.1651857000015298,1,70,test1,3,1.1652806000001874,-20.0
22,lhm,f,19,r,2,(172.20000000000002, 0.0),21,-5,12,no,m,6,m,0.9299076000006608,1,71,test1,3,0.9300060999994457,-20.0
22,lhm,f,19,r,2,(121.76378772032346, -121.76378772032352),28,-5,12,no,m,6,m,0.9642784999996366,1,72,test1,3,0.9647186000001966,-20.0
22,lhm,f,19,r,2,(-121.76378772032352, -121.76378772032348),26,-25,14,no,m,6,m,1.2702063999986422,1,73,test1,3,1.270422999999937,-20.0
22,lhm,f,19,r,2,(-3.163262682197613e-14, -172.20000000000002),27,-5,12,yes,x,5,x,0.8738467000002856,1,74,test1,3,0.873947500000213,-50.0
22,lhm,f,19,r,2,(172.20000000000002, 0.0),21,25,4,yes,x,5,x,0.48599259999900823,1,75,test1,3,0.4861049000010098,-20.0
22,lhm,f,19,r,2,(-172.20000000000002, 2.1088417881317425e-14),25,-7,13,no,m,6,m,0.8549798999993072,1,76,test1,3,0.8553472000003239,-20.0
22,lhm,f,19,r,2,(121.76378772032349, 121.76378772032349),22,-7,13,no,m,6,m,0.9823670000005222,1,77,test1,3,0.9824656000000687,-20.0
22,lhm,f,19,r,2,(-3.163262682197613e-14, -172.20000000000002),27,-7,13,yes,x,5,x,0.5905941000000894,1,78,test1,3,0.5906935000002704,-52.0
22,lhm,f,19,r,2,(1.0544208940658713e-14, 172.20000000000002),23,-7,13,yes,x,5,x,0.5963714000008622,1,79,test1,3,0.5969053999997413,-52.0
22,lhm,f,19,r,2,(-121.76378772032352, -121.76378772032348),26,7,3,yes,x,5,x,0.6483970999997837,1,80,test1,3,0.648673300000155,-38.0
22,lhm,f,19,r,2,(-3.163262682197613e-14, -172.20000000000002),27,-7,13,yes,x,5,x,0.5364902999990591,1,81,test1,3,0.5366372999997111,-52.0
22,lhm,f,19,r,2,(121.76378772032346, -121.76378772032352),28,-7,13,no,m,6,m,1.045375800000329,1,82,test1,3,1.0458613999999216,-52.0
22,lhm,f,19,r,2,(-3.163262682197613e-14, -172.20000000000002),27,-3,11,yes,x,5,x,0.890312499999709,1,83,test1,3,0.8909756999983074,-48.0
22,lhm,f,19,r,2,(-121.76378772032352, -121.76378772032348),26,-3,11,yes,x,5,m,1.1417462999997952,0,84,test1,3,1.1420738999986497,-48.0
22,lhm,f,19,r,2,(1.0544208940658713e-14, 172.20000000000002),23,5,2,no,m,6,x,1.3542248000012478,0,85,test1,3,1.354382199999236,-48.0
22,lhm,f,19,r,2,(121.76378772032349, 121.76378772032349),22,7,3,yes,x,5,x,0.5008034999991651,1,86,test1,3,0.5014766999993299,-38.0
22,lhm,f,19,r,2,(-172.20000000000002, 2.1088417881317425e-14),25,-25,14,no,m,6,m,1.2271930999995675,1,87,test1,3,1.2275761000000784,-38.0
22,lhm,f,19,r,2,(121.76378772032349, 121.76378772032349),22,7,3,no,m,6,m,1.408742200001143,1,88,test1,3,1.4088735000004817,-38.0
22,lhm,f,19,r,2,(-121.76378772032348, 121.76378772032349),24,-25,14,no,m,6,m,1.0142801000001782,1,89,test1,3,1.0145623000007618,-38.0
22,lhm,f,19,r,2,(-121.76378772032348, 121.76378772032349),24,3,1,yes,x,5,x,0.5801735000004555,1,90,test1,3,0.5802889999995386,-42.0
22,lhm,f,19,r,2,(172.20000000000002, 0.0),21,3,1,yes,x,5,x,1.1680942999992112,1,91,test1,3,1.1683896999984427,-42.0
22,lhm,f,19,r,2,(121.76378772032346, -121.76378772032352),28,-25,14,yes,x,5,x,0.5155544000008376,1,92,test1,3,0.5158871999992698,-70.0
22,lhm,f,19,r,2,(172.20000000000002, 0.0),21,-25,14,yes,x,5,x,0.5078403999996226,1,93,test1,3,0.507958400001371,-70.0
22,lhm,f,19,r,2,(121.76378772032349, 121.76378772032349),22,25,4,no,m,6,m,0.8229601000002731,1,94,test1,3,0.8230624999996508,-70.0
22,lhm,f,19,r,2,(172.20000000000002, 0.0),21,5,2,yes,x,5,x,0.5626062999999704,1,95,test1,3,0.5627058000009129,-40.0
22,lhm,f,19,r,2,(-121.76378772032352, -121.76378772032348),26,-5,12,yes,x,5,x,0.5775923000001058,1,96,test1,3,0.577831900000092,-50.0
22,lhm,f,19,r,2,(172.20000000000002, 0.0),21,-7,13,yes,x,5,x,0.5039624000000913,1,1,test2,3,0.5044376999994711,-52.0
22,lhm,f,19,r,2,(121.76378772032349, 121.76378772032349),22,-25,14,no,m,6,m,1.032449300000735,1,2,test2,3,1.0327127000000473,-52.0
22,lhm,f,19,r,2,(-3.163262682197613e-14, -172.20000000000002),27,3,1,yes,x,5,x,1.4024208000009821,1,3,test2,3,1.4026412000002892,-42.0
22,lhm,f,19,r,2,(-121.76378772032348, 121.76378772032349),24,-25,14,yes,x,5,x,0.5078954000000522,1,4,test2,3,0.5080219000010402,-70.0
22,lhm,f,19,r,2,(121.76378772032349, 121.76378772032349),22,-3,11,no,m,6,m,1.1282181999995373,1,5,test2,3,1.128475100000287,-70.0
22,lhm,f,19,r,2,(-121.76378772032352, -121.76378772032348),26,3,1,yes,x,5,m,0.9571794000003138,0,6,test2,3,0.9574150999997073,-42.0
22,lhm,f,19,r,2,(-121.76378772032348, 121.76378772032349),24,-3,11,yes,x,5,x,1.294036999999662,1,7,test2,3,1.2944279999992432,-48.0
22,lhm,f,19,r,2,(-172.20000000000002, 2.1088417881317425e-14),25,-5,12,no,m,6,m,1.0762862999999925,1,8,test2,3,1.0764132999993308,-48.0
22,lhm,f,19,r,2,(-121.76378772032352, -121.76378772032348),26,-7,13,yes,x,5,x,0.5492414000000281,1,9,test2,3,0.5493730999987747,-52.0
22,lhm,f,19,r,2,(-121.76378772032352, -121.76378772032348),26,5,2,yes,x,5,x,0.6928895000000921,1,10,test2,3,0.6932080999995378,-40.0
22,lhm,f,19,r,2,(-3.163262682197613e-14, -172.20000000000002),27,3,1,no,m,6,m,1.2580180000004475,1,11,test2,3,1.2585075999995752,-40.0
22,lhm,f,19,r,2,(1.0544208940658713e-14, 172.20000000000002),23,-25,14,yes,x,5,x,0.45030229999974836,1,12,test2,3,0.45042100000137,-70.0
22,lhm,f,19,r,2,(172.20000000000002, 0.0),21,5,2,yes,x,5,x,0.9421676000001753,1,13,test2,3,0.9424609999987297,-40.0
22,lhm,f,19,r,2,(121.76378772032349, 121.76378772032349),22,-7,13,yes,x,5,x,0.5383689000009326,1,14,test2,3,0.538786600000094,-52.0
22,lhm,f,19,r,2,(-3.163262682197613e-14, -172.20000000000002),27,7,3,no,m,6,m,1.045990400001756,1,15,test2,3,1.0461857000009331,-52.0
22,lhm,f,19,r,2,(1.0544208940658713e-14, 172.20000000000002),23,-25,14,yes,x,5,x,0.4436909000014566,1,16,test2,3,0.4437891999987187,-70.0
22,lhm,f,19,r,2,(-172.20000000000002, 2.1088417881317425e-14),25,-7,13,yes,x,5,x,0.6008235000008426,1,17,test2,3,0.6009218999988661,-52.0
22,lhm,f,19,r,2,(121.76378772032349, 121.76378772032349),22,25,4,yes,x,5,x,0.5045031000008748,1,18,test2,3,0.5047950000007404,-20.0
22,lhm,f,19,r,2,(1.0544208940658713e-14, 172.20000000000002),23,3,1,yes,x,5,x,0.728110199999719,1,19,test2,3,0.728209799999604,-42.0
22,lhm,f,19,r,2,(-172.20000000000002, 2.1088417881317425e-14),25,3,1,no,m,6,m,1.0348695000011503,1,20,test2,3,1.0350255000012112,-42.0
22,lhm,f,19,r,2,(-3.163262682197613e-14, -172.20000000000002),27,25,4,yes,x,5,x,0.48576630000025034,1,21,test2,3,0.48600290000103996,-20.0
22,lhm,f,19,r,2,(-121.76378772032352, -121.76378772032348),26,-7,13,no,m,6,m,1.2424151999985042,1,22,test2,3,1.2427036999997654,-20.0
22,lhm,f,19,r,2,(-172.20000000000002, 2.1088417881317425e-14),25,5,2,yes,x,5,x,0.5443426000001637,1,23,test2,3,0.5444721999992908,-40.0
22,lhm,f,19,r,2,(121.76378772032346, -121.76378772032352),28,7,3,yes,x,5,x,0.5091296999999031,1,24,test2,3,0.5092294000005495,-38.0
22,lhm,f,19,r,2,(-121.76378772032348, 121.76378772032349),24,3,1,yes,x,5,x,0.6422228000010364,1,25,test2,3,0.6424802000001364,-42.0
22,lhm,f,19,r,2,(121.76378772032346, -121.76378772032352),28,-3,11,yes,x,5,m,1.0440001000006305,0,26,test2,3,1.0442265000001498,-48.0
22,lhm,f,19,r,2,(-121.76378772032348, 121.76378772032349),24,-7,13,yes,x,5,x,0.5165027000002738,1,27,test2,3,0.5167461000000912,-52.0
22,lhm,f,19,r,2,(172.20000000000002, 0.0),21,7,3,yes,x,5,x,0.4322118000000046,1,28,test2,3,0.43243770000117365,-38.0
22,lhm,f,19,r,2,(172.20000000000002, 0.0),21,-3,11,yes,x,5,x,0.6645367999990412,1,29,test2,3,0.6646365999986301,-48.0
22,lhm,f,19,r,2,(-3.163262682197613e-14, -172.20000000000002),27,5,2,yes,x,5,x,0.743736499998704,1,30,test2,3,0.7440747999989981,-40.0
22,lhm,f,19,r,2,(-121.76378772032348, 121.76378772032349),24,5,2,yes,x,5,x,0.4685319000000163,1,31,test2,3,0.46865799999977753,-40.0
22,lhm,f,19,r,2,(-172.20000000000002, 2.1088417881317425e-14),25,7,3,yes,x,5,x,0.48403529999995953,1,32,test2,3,0.48455699999976787,-38.0
22,lhm,f,19,r,2,(121.76378772032349, 121.76378772032349),22,7,3,yes,x,5,x,0.6132974000011018,1,33,test2,3,0.6133976000000985,-38.0
22,lhm,f,19,r,2,(121.76378772032349, 121.76378772032349),22,3,1,no,m,6,m,1.2686094000000594,1,34,test2,3,1.2690022999995563,-38.0
22,lhm,f,19,r,2,(-3.163262682197613e-14, -172.20000000000002),27,-25,14,yes,x,5,x,0.3805153000012069,1,35,test2,3,0.38074389999928826,-70.0
22,lhm,f,19,r,2,(121.76378772032349, 121.76378772032349),22,-5,12,yes,x,5,x,0.5218189000006532,1,36,test2,3,0.5219268000000739,-50.0
22,lhm,f,19,r,2,(-121.76378772032348, 121.76378772032349),24,7,3,no,m,6,m,1.27991320000001,1,37,test2,3,1.2801522000008845,-50.0
22,lhm,f,19,r,2,(-121.76378772032352, -121.76378772032348),26,-25,14,yes,x,5,x,0.4501827999993111,1,38,test2,3,0.450393900000563,-70.0
22,lhm,f,19,r,2,(1.0544208940658713e-14, 172.20000000000002),23,-5,12,no,m,6,m,0.8456007999993744,1,39,test2,3,0.845938100001149,-70.0
22,lhm,f,19,r,2,(-121.76378772032348, 121.76378772032349),24,-25,14,yes,x,5,x,0.4376534000002721,1,40,test2,3,0.43775109999842243,-70.0
22,lhm,f,19,r,2,(172.20000000000002, 0.0),21,3,1,no,m,6,m,1.086013300000559,1,41,test2,3,1.0861771999989287,-70.0
22,lhm,f,19,r,2,(-172.20000000000002, 2.1088417881317425e-14),25,25,4,no,m,6,m,1.240163999998913,1,42,test2,3,1.2402617999996437,-70.0
22,lhm,f,19,r,2,(-3.163262682197613e-14, -172.20000000000002),27,-5,12,no,m,6,m,1.0101093000012042,1,43,test2,3,1.0103056999996625,-70.0
22,lhm,f,19,r,2,(-172.20000000000002, 2.1088417881317425e-14),25,3,1,yes,x,5,x,0.821118400001069,1,44,test2,3,0.8213328000001638,-42.0
22,lhm,f,19,r,2,(-3.163262682197613e-14, -172.20000000000002),27,-25,14,yes,x,5,x,0.5285433999997622,1,45,test2,3,0.5287715000013122,-70.0
22,lhm,f,19,r,2,(172.20000000000002, 0.0),21,7,3,yes,x,5,x,0.5995006000011927,1,46,test2,3,0.5996003000000201,-38.0
22,lhm,f,19,r,2,(121.76378772032349, 121.76378772032349),22,5,2,yes,x,5,x,0.5903777999992599,1,47,test2,3,0.5904847999991034,-40.0
22,lhm,f,19,r,2,(1.0544208940658713e-14, 172.20000000000002),23,7,3,no,m,6,m,1.2186589000011736,1,48,test2,3,1.219003000000157,-40.0
22,lhm,f,19,r,2,(-121.76378772032352, -121.76378772032348),26,3,1,no,m,6,m,1.4243815999998333,1,49,test2,3,1.424479599998449,-40.0
22,lhm,f,19,r,2,(121.76378772032346, -121.76378772032352),28,5,2,yes,x,5,x,0.7783796999992774,1,50,test2,3,0.7784936999996717,-40.0
22,lhm,f,19,r,2,(-172.20000000000002, 2.1088417881317425e-14),25,-5,12,yes,x,5,x,0.514278299999205,1,51,test2,3,0.5144913000003726,-50.0
22,lhm,f,19,r,2,(-121.76378772032348, 121.76378772032349),24,25,4,yes,x,5,x,0.44472289999976056,1,52,test2,3,0.4451096000011603,-20.0
22,lhm,f,19,r,2,(172.20000000000002, 0.0),21,-7,13,yes,x,5,x,0.5070361000016419,1,53,test2,3,0.5071348000001308,-52.0
22,lhm,f,19,r,2,(121.76378772032349, 121.76378772032349),22,5,2,no,m,6,m,0.8057301999997435,1,54,test2,3,0.806025399999271,-52.0
22,lhm,f,19,r,2,(-121.76378772032348, 121.76378772032349),24,7,3,yes,x,5,x,0.4109545999999682,1,55,test2,3,0.4113348999999289,-38.0
22,lhm,f,19,r,2,(172.20000000000002, 0.0),21,-5,12,yes,x,5,x,0.5168692000006558,1,56,test2,3,0.5169740999990609,-50.0
22,lhm,f,19,r,2,(-3.163262682197613e-14, -172.20000000000002),27,-7,13,no,m,6,m,0.8565275000000838,1,57,test2,3,0.8566289999998844,-50.0
22,lhm,f,19,r,2,(-172.20000000000002, 2.1088417881317425e-14),25,25,4,yes,x,5,x,0.3945048000005045,1,58,test2,3,0.39497470000060275,-20.0
22,lhm,f,19,r,2,(-121.76378772032348, 121.76378772032349),24,-7,13,yes,x,5,x,0.43775950000053854,1,59,test2,3,0.43785810000008496,-52.0
22,lhm,f,19,r,2,(172.20000000000002, 0.0),21,5,2,no,m,6,m,1.0323503999989043,1,60,test2,3,1.0327890000007756,-52.0
22,lhm,f,19,r,2,(-121.76378772032352, -121.76378772032348),26,-3,11,yes,x,5,x,1.2811688000001595,1,61,test2,3,1.2814183999998932,-48.0
22,lhm,f,19,r,2,(172.20000000000002, 0.0),21,-25,14,no,m,6,m,0.9918359000002965,1,62,test2,3,0.9919950000003155,-48.0
22,lhm,f,19,r,2,(-121.76378772032352, -121.76378772032348),26,-25,14,yes,x,5,x,0.43532279999999446,1,63,test2,3,0.43561899999986053,-70.0
22,lhm,f,19,r,2,(-121.76378772032348, 121.76378772032349),24,25,4,no,m,6,m,0.9147921000003407,1,64,test2,3,0.9150611999993998,-70.0
22,lhm,f,19,r,2,(-121.76378772032352, -121.76378772032348),26,25,4,yes,x,5,x,0.43196659999921394,1,65,test2,3,0.4321865000001708,-20.0
22,lhm,f,19,r,2,(-3.163262682197613e-14, -172.20000000000002),27,5,2,no,m,6,m,0.9420079999999871,1,66,test2,3,0.9428416999999172,-20.0
22,lhm,f,19,r,2,(121.76378772032346, -121.76378772032352),28,7,3,yes,x,5,x,0.5285519000008208,1,67,test2,3,0.5288354999993317,-38.0
22,lhm,f,19,r,2,(121.76378772032346, -121.76378772032352),28,-3,11,yes,x,5,x,1.4901149999986956,1,68,test2,3,1.4902208000003156,-48.0
22,lhm,f,19,r,2,(-3.163262682197613e-14, -172.20000000000002),27,7,3,yes,x,5,x,0.6131789999999455,1,69,test2,3,0.613826800001334,-38.0
22,lhm,f,19,r,2,(1.0544208940658713e-14, 172.20000000000002),23,-5,12,yes,x,5,x,0.5682997000003525,1,70,test2,3,0.5685326000002533,-50.0
22,lhm,f,19,r,2,(1.0544208940658713e-14, 172.20000000000002),23,7,3,yes,x,5,x,0.4386754999995901,1,71,test2,3,0.43877710000015213,-38.0
22,lhm,f,19,r,2,(121.76378772032346, -121.76378772032352),28,-25,14,no,m,6,m,1.606175599999915,1,72,test2,3,1.6062873999999283,-38.0
22,lhm,f,19,r,2,(-121.76378772032348, 121.76378772032349),24,-3,11,yes,x,5,x,0.7844113000010111,1,73,test2,3,0.784911300001113,-48.0
22,lhm,f,19,r,2,(121.76378772032346, -121.76378772032352),28,-7,13,yes,x,5,x,0.7345218000009481,1,74,test2,3,0.7346192999993946,-52.0
22,lhm,f,19,r,2,(172.20000000000002, 0.0),21,3,1,yes,x,5,x,0.9735319999999774,1,75,test2,3,0.973627999999735,-42.0
22,lhm,f,19,r,2,(121.76378772032346, -121.76378772032352),28,5,2,yes,x,5,x,0.9100068000007013,1,76,test2,3,0.9102148000001762,-40.0
22,lhm,f,19,r,2,(121.76378772032346, -121.76378772032352),28,3,1,yes,x,5,x,1.0405617999986134,1,77,test2,3,1.0409156000005169,-42.0
22,lhm,f,19,r,2,(-121.76378772032348, 121.76378772032349),24,5,2,yes,x,5,x,0.47043479999956617,1,78,test2,3,0.4706695999993826,-40.0
22,lhm,f,19,r,2,(-172.20000000000002, 2.1088417881317425e-14),25,7,3,yes,x,5,x,0.4376332000010734,1,79,test2,3,0.43792779999967024,-38.0
22,lhm,f,19,r,2,(172.20000000000002, 0.0),21,25,4,no,m,6,m,1.0917974000003596,1,80,test2,3,1.0923860000002605,-38.0
22,lhm,f,19,r,2,(-121.76378772032352, -121.76378772032348),26,7,3,no,m,6,m,1.27233410000008,1,81,test2,3,1.2726060999993933,-38.0
22,lhm,f,19,r,2,(-121.76378772032352, -121.76378772032348),26,25,4,yes,x,5,x,0.5047336000006908,1,82,test2,3,0.5048310000001948,-20.0
22,lhm,f,19,r,2,(-121.76378772032352, -121.76378772032348),26,3,1,yes,x,5,m,0.8835489000011876,0,83,test2,3,0.8836645000010321,-42.0
22,lhm,f,19,r,2,(121.76378772032346, -121.76378772032352),28,25,4,yes,x,5,x,0.5326438000010967,1,84,test2,3,0.5328023000001849,-20.0
22,lhm,f,19,r,2,(1.0544208940658713e-14, 172.20000000000002),23,3,1,no,m,6,m,1.219493100001273,1,85,test2,3,1.2199491000010312,-20.0
22,lhm,f,19,r,2,(-172.20000000000002, 2.1088417881317425e-14),25,-3,11,no,m,6,m,1.085949599999367,1,86,test2,3,1.086175299999013,-20.0
22,lhm,f,19,r,2,(121.76378772032349, 121.76378772032349),22,-3,11,yes,x,5,m,0.9929009999996197,0,87,test2,3,0.9931572999994387,-48.0
22,lhm,f,19,r,2,(121.76378772032346, -121.76378772032352),28,-3,11,no,m,6,m,1.0184052000004158,1,88,test2,3,1.0188942999993742,-48.0
22,lhm,f,19,r,2,(-172.20000000000002, 2.1088417881317425e-14),25,-5,12,yes,x,5,x,0.6419473000005382,1,89,test2,3,0.6421735000003537,-50.0
22,lhm,f,19,r,2,(1.0544208940658713e-14, 172.20000000000002),23,-7,13,no,m,6,m,1.35584370000106,1,90,test2,3,1.3559432999991259,-50.0
22,lhm,f,19,r,2,(1.0544208940658713e-14, 172.20000000000002),23,7,3,yes,x,5,x,0.46844550000059826,1,91,test2,3,0.4685453999991296,-38.0
22,lhm,f,19,r,2,(-121.76378772032348, 121.76378772032349),24,-5,12,yes,x,5,x,0.5471252999996068,1,92,test2,3,0.547228699999323,-50.0
22,lhm,f,19,r,2,(-172.20000000000002, 2.1088417881317425e-14),25,5,2,no,m,6,m,0.8865347999999358,1,93,test2,3,0.886769099999583,-50.0
22,lhm,f,19,r,2,(121.76378772032346, -121.76378772032352),28,3,1,no,m,6,m,1.0738528999991104,1,94,test2,3,1.0740086999994674,-50.0
22,lhm,f,19,r,2,(121.76378772032349, 121.76378772032349),22,3,1,yes,x,5,x,0.6900897999985318,1,95,test2,3,0.6907374999991589,-42.0
22,lhm,f,19,r,2,(1.0544208940658713e-14, 172.20000000000002),23,-3,11,no,m,6,m,0.8978172999995877,1,96,test2,3,0.8981710999996722,-42.0
22,lhm,f,19,r,2,(-121.76378772032348, 121.76378772032349),24,-5,12,yes,x,5,x,0.581942099999651,1,1,test1,4,0.5824821000005613,-50.0
22,lhm,f,19,r,2,(-121.76378772032348, 121.76378772032349),24,-3,11,no,m,6,x,0.5565978000013274,0,2,test1,4,0.5567321999988053,-50.0
22,lhm,f,19,r,2,(121.76378772032349, 121.76378772032349),22,-25,14,yes,x,5,x,0.6387996000012208,1,3,test1,4,0.6390234999998938,-70.0
22,lhm,f,19,r,2,(1.0544208940658713e-14, 172.20000000000002),23,-25,14,no,m,6,m,0.9917067999995197,1,4,test1,4,0.9920658000010008,-70.0
22,lhm,f,19,r,2,(1.0544208940658713e-14, 172.20000000000002),23,5,2,yes,x,5,x,0.6743748999997479,1,5,test1,4,0.6748282999997173,-40.0
22,lhm,f,19,r,2,(1.0544208940658713e-14, 172.20000000000002),23,25,4,yes,x,5,x,0.48248919999969075,1,6,test1,4,0.4826045999998314,-20.0
22,lhm,f,19,r,2,(-121.76378772032348, 121.76378772032349),24,25,4,yes,x,5,x,0.43685310000000754,1,7,test1,4,0.4373063999992155,-20.0
22,lhm,f,19,r,2,(121.76378772032346, -121.76378772032352),28,25,4,no,m,6,m,1.1056910999996035,1,8,test1,4,1.1057958000001236,-20.0
22,lhm,f,19,r,2,(121.76378772032349, 121.76378772032349),22,-25,14,yes,x,5,x,0.49812720000045374,1,9,test1,4,0.49822279999898456,-70.0
22,lhm,f,19,r,2,(121.76378772032346, -121.76378772032352),28,-25,14,yes,x,5,x,0.5245833999997558,1,10,test1,4,0.5246837999984564,-70.0
22,lhm,f,19,r,2,(121.76378772032349, 121.76378772032349),22,-5,12,yes,x,5,x,0.4971227000005456,1,11,test1,4,0.4972459999989951,-50.0
22,lhm,f,19,r,2,(121.76378772032349, 121.76378772032349),22,5,2,yes,x,5,x,0.5149166999999579,1,12,test1,4,0.5154175000006944,-40.0
22,lhm,f,19,r,2,(-121.76378772032348, 121.76378772032349),24,5,2,no,m,6,m,1.132814899998266,1,13,test1,4,1.1334275999997772,-40.0
22,lhm,f,19,r,2,(121.76378772032349, 121.76378772032349),22,25,4,yes,x,5,x,0.4442103000001225,1,14,test1,4,0.44431059999988065,-20.0
22,lhm,f,19,r,2,(-121.76378772032348, 121.76378772032349),24,3,1,no,m,6,m,1.0130566999996518,1,15,test1,4,1.01323020000018,-20.0
22,lhm,f,19,r,2,(-172.20000000000002, 2.1088417881317425e-14),25,-25,14,yes,x,5,x,0.46170969999911904,1,16,test1,4,0.4619386999984272,-70.0
22,lhm,f,19,r,2,(1.0544208940658713e-14, 172.20000000000002),23,-3,11,yes,x,5,x,0.5257003999995504,1,17,test1,4,0.5258253000010882,-48.0
22,lhm,f,19,r,2,(-3.163262682197613e-14, -172.20000000000002),27,25,4,no,m,6,x,1.4009068999985175,0,18,test1,4,1.4010292999992089,-48.0
22,lhm,f,19,r,2,(-121.76378772032352, -121.76378772032348),26,7,3,yes,x,5,x,0.8252441000004183,1,19,test1,4,0.8255511999996088,-38.0
22,lhm,f,19,r,2,(-172.20000000000002, 2.1088417881317425e-14),25,5,2,yes,x,5,x,0.6234801000009611,1,20,test1,4,0.6239026999992348,-40.0
22,lhm,f,19,r,2,(-121.76378772032352, -121.76378772032348),26,-3,11,no,m,6,m,1.1041418000004342,1,21,test1,4,1.1042683999985456,-40.0
22,lhm,f,19,r,2,(121.76378772032346, -121.76378772032352),28,5,2,no,m,6,m,1.3243870999995124,1,22,test1,4,1.3244880000002013,-40.0
22,lhm,f,19,r,2,(-172.20000000000002, 2.1088417881317425e-14),25,7,3,no,m,6,m,1.0661263999991206,1,23,test1,4,1.066351499999655,-40.0
22,lhm,f,19,r,2,(121.76378772032349, 121.76378772032349),22,-7,13,yes,x,5,x,0.530458199998975,1,24,test1,4,0.530573000000004,-52.0
22,lhm,f,19,r,2,(-121.76378772032352, -121.76378772032348),26,-5,12,yes,x,5,x,0.6292763000001287,1,25,test1,4,0.6294464000002336,-50.0
22,lhm,f,19,r,2,(-3.163262682197613e-14, -172.20000000000002),27,7,3,yes,x,5,x,0.6021964999999909,1,26,test1,4,0.6024024999987887,-38.0
22,lhm,f,19,r,2,(172.20000000000002, 0.0),21,7,3,no,m,6,m,1.16043929999978,1,27,test1,4,1.1607796999996935,-38.0
22,lhm,f,19,r,2,(121.76378772032346, -121.76378772032352),28,-5,12,yes,x,5,x,0.6712063000013586,1,28,test1,4,0.6713865000001533,-50.0
22,lhm,f,19,r,2,(-121.76378772032352, -121.76378772032348),26,5,2,no,m,6,m,0.9834627999989607,1,29,test1,4,0.9837498999986565,-50.0
22,lhm,f,19,r,2,(1.0544208940658713e-14, 172.20000000000002),23,5,2,yes,x,5,x,0.5341819999994186,1,30,test1,4,0.5344762000004266,-40.0
22,lhm,f,19,r,2,(1.0544208940658713e-14, 172.20000000000002),23,-5,12,yes,x,5,x,0.5441099999989092,1,31,test1,4,0.5443227999985538,-50.0
22,lhm,f,19,r,2,(172.20000000000002, 0.0),21,-7,13,no,m,6,m,1.0871440000009898,1,32,test1,4,1.0874230999997962,-50.0
22,lhm,f,19,r,2,(-172.20000000000002, 2.1088417881317425e-14),25,3,1,yes,x,5,x,1.1564736000000266,1,33,test1,4,1.1570441000003484,-42.0
22,lhm,f,19,r,2,(1.0544208940658713e-14, 172.20000000000002),23,25,4,yes,x,5,x,0.46422119999988354,1,34,test1,4,0.4643216000004031,-20.0
22,lhm,f,19,r,2,(-172.20000000000002, 2.1088417881317425e-14),25,25,4,yes,x,5,x,0.45276900000135356,1,35,test1,4,0.4528692999992927,-20.0
22,lhm,f,19,r,2,(-121.76378772032352, -121.76378772032348),26,-5,12,no,m,6,m,1.2193096999999398,1,36,test1,4,1.2196622000010393,-20.0
22,lhm,f,19,r,2,(172.20000000000002, 0.0),21,-3,11,no,m,6,m,0.910385999999562,1,37,test1,4,0.9104834999998275,-20.0
22,lhm,f,19,r,2,(172.20000000000002, 0.0),21,-25,14,yes,x,5,x,0.5065681999985827,1,38,test1,4,0.5067982999989908,-70.0
22,lhm,f,19,r,2,(172.20000000000002, 0.0),21,25,4,yes,x,5,x,0.4807584999998653,1,39,test1,4,0.48085709999941173,-20.0
22,lhm,f,19,r,2,(-121.76378772032348, 121.76378772032349),24,7,3,yes,x,5,x,0.4833099999996193,1,40,test1,4,0.48380189999988943,-38.0
22,lhm,f,19,r,2,(-3.163262682197613e-14, -172.20000000000002),27,-3,11,yes,x,5,x,1.3303054999996675,1,41,test1,4,1.3306867999999668,-48.0
22,lhm,f,19,r,2,(-121.76378772032352, -121.76378772032348),26,5,2,yes,x,5,x,0.7323274000009405,1,42,test1,4,0.7326663000003464,-40.0
22,lhm,f,19,r,2,(-121.76378772032348, 121.76378772032349),24,-7,13,no,m,6,m,1.2473358000006556,1,43,test1,4,1.2475108999988151,-40.0
22,lhm,f,19,r,2,(-3.163262682197613e-14, -172.20000000000002),27,-3,11,no,m,6,m,1.0586563000015303,1,44,test1,4,1.0587603000003583,-40.0
22,lhm,f,19,r,2,(121.76378772032349, 121.76378772032349),22,-3,11,yes,x,5,x,1.2583928000003652,1,45,test1,4,1.2584956999999122,-48.0
22,lhm,f,19,r,2,(1.0544208940658713e-14, 172.20000000000002),23,25,4,no,m,6,m,1.000221700000111,1,46,test1,4,1.0004539999990811,-48.0
22,lhm,f,19,r,2,(-121.76378772032348, 121.76378772032349),24,-5,12,no,m,6,m,1.0881682999988698,1,47,test1,4,1.0883787000002485,-48.0
22,lhm,f,19,r,2,(1.0544208940658713e-14, 172.20000000000002),23,-3,11,yes,x,5,x,1.2981763999996474,1,48,test1,4,1.2988107000001037,-48.0
22,lhm,f,19,r,2,(121.76378772032346, -121.76378772032352),28,-5,12,yes,x,5,x,0.6269974000006187,1,49,test1,4,0.6272282999998424,-50.0
22,lhm,f,19,r,2,(-172.20000000000002, 2.1088417881317425e-14),25,-25,14,yes,x,5,x,0.4635957000009512,1,50,test1,4,0.4639268999999331,-70.0
22,lhm,f,19,r,2,(-3.163262682197613e-14, -172.20000000000002),27,-5,12,yes,x,5,x,0.7268825000010111,1,51,test1,4,0.7273913999997603,-50.0
22,lhm,f,19,r,2,(-172.20000000000002, 2.1088417881317425e-14),25,-7,13,yes,x,5,x,0.4849467999993067,1,52,test1,4,0.4852473999999347,-52.0
22,lhm,f,19,r,2,(-3.163262682197613e-14, -172.20000000000002),27,3,1,yes,x,5,x,0.9448176999994757,1,53,test1,4,0.9449208000005456,-42.0
22,lhm,f,19,r,2,(121.76378772032346, -121.76378772032352),28,3,1,yes,x,5,x,1.0031999000002543,1,54,test1,4,1.0033144000008178,-42.0
22,lhm,f,19,r,2,(-172.20000000000002, 2.1088417881317425e-14),25,-3,11,yes,x,5,x,0.5652118999987579,1,55,test1,4,0.5655215000006137,-48.0
22,lhm,f,19,r,2,(-3.163262682197613e-14, -172.20000000000002),27,5,2,yes,x,5,x,0.6090457000009337,1,56,test1,4,0.6092867000006663,-40.0
22,lhm,f,19,r,2,(1.0544208940658713e-14, 172.20000000000002),23,-7,13,yes,x,5,x,0.5040994999999384,1,57,test1,4,0.5042391999995743,-52.0
22,lhm,f,19,r,2,(1.0544208940658713e-14, 172.20000000000002),23,3,1,yes,x,5,x,0.6263562999993155,1,58,test1,4,0.6264971999989939,-42.0
22,lhm,f,19,r,2,(121.76378772032346, -121.76378772032352),28,25,4,yes,x,5,x,0.46643979999862495,1,59,test1,4,0.4666882000001351,-20.0
22,lhm,f,19,r,2,(-3.163262682197613e-14, -172.20000000000002),27,-25,14,no,m,6,x,0.7133928999992349,0,60,test1,4,0.7136680000003253,-20.0
22,lhm,f,19,r,2,(172.20000000000002, 0.0),21,-5,12,yes,x,5,x,0.7602555999983451,1,61,test1,4,0.760349000000133,-50.0
22,lhm,f,19,r,2,(121.76378772032349, 121.76378772032349),22,3,1,yes,x,5,x,0.9499287999988155,1,62,test1,4,0.9501447999991797,-42.0
22,lhm,f,19,r,2,(-172.20000000000002, 2.1088417881317425e-14),25,-3,11,yes,x,5,m,1.8687389000006078,0,63,test1,4,1.8688417999983358,-48.0
22,lhm,f,19,r,2,(121.76378772032346, -121.76378772032352),28,-7,13,yes,x,5,x,0.5209288000005472,1,64,test1,4,0.5212931999994908,-52.0
22,lhm,f,19,r,2,(172.20000000000002, 0.0),21,-3,11,yes,x,5,m,1.8562411000002612,0,65,test1,4,1.8564591000013024,-48.0
22,lhm,f,19,r,2,(-121.76378772032352, -121.76378772032348),26,-7,13,yes,x,5,x,0.7491193000005296,1,66,test1,4,0.7492246999991039,-52.0
22,lhm,f,19,r,2,(121.76378772032349, 121.76378772032349),22,-5,12,no,m,6,m,1.5718923000003997,1,67,test1,4,1.5720080000010057,-52.0
22,lhm,f,19,r,2,(-3.163262682197613e-14, -172.20000000000002),27,25,4,yes,x,5,x,0.5107681999998022,1,68,test1,4,0.5110728999989078,-20.0
22,lhm,f,19,r,2,(121.76378772032346, -121.76378772032352),28,7,3,no,m,6,m,1.0904612999984238,1,69,test1,4,1.0907021000002715,-20.0
22,lhm,f,19,r,2,(-121.76378772032352, -121.76378772032348),26,25,4,no,m,6,m,1.0382449999997334,1,70,test1,4,1.038702200001353,-20.0
22,lhm,f,19,r,2,(172.20000000000002, 0.0),21,-5,12,no,m,6,m,1.2639060000001336,1,71,test1,4,1.2643470999992132,-20.0
22,lhm,f,19,r,2,(121.76378772032346, -121.76378772032352),28,-5,12,no,m,6,m,1.0688698999983899,1,72,test1,4,1.0689750999990792,-20.0
22,lhm,f,19,r,2,(-121.76378772032352, -121.76378772032348),26,-25,14,no,m,6,m,0.9941191999987495,1,73,test1,4,0.9944747000008647,-20.0
22,lhm,f,19,r,2,(-3.163262682197613e-14, -172.20000000000002),27,-5,12,yes,x,5,x,1.0720567000007577,1,74,test1,4,1.0726842000003671,-50.0
22,lhm,f,19,r,2,(172.20000000000002, 0.0),21,25,4,yes,x,5,x,0.568698700000823,1,75,test1,4,0.5690646000002744,-20.0
22,lhm,f,19,r,2,(-172.20000000000002, 2.1088417881317425e-14),25,-7,13,no,m,6,m,0.9179984999991575,1,76,test1,4,0.9180981000008615,-20.0
22,lhm,f,19,r,2,(121.76378772032349, 121.76378772032349),22,-7,13,no,m,6,m,1.454373000000487,1,77,test1,4,1.454613199999585,-20.0
22,lhm,f,19,r,2,(-3.163262682197613e-14, -172.20000000000002),27,-7,13,yes,x,5,x,0.4805780999995477,1,78,test1,4,0.4807985000006738,-52.0
22,lhm,f,19,r,2,(1.0544208940658713e-14, 172.20000000000002),23,-7,13,yes,x,5,x,0.5680840000004537,1,79,test1,4,0.5687818999995216,-52.0
22,lhm,f,19,r,2,(-121.76378772032352, -121.76378772032348),26,7,3,yes,x,5,x,0.6557241000009526,1,80,test1,4,0.6558397999997396,-38.0
22,lhm,f,19,r,2,(-3.163262682197613e-14, -172.20000000000002),27,-7,13,yes,x,5,x,0.6374952000005578,1,81,test1,4,0.6377517999990232,-52.0
22,lhm,f,19,r,2,(121.76378772032346, -121.76378772032352),28,-7,13,no,m,6,m,1.6538022000004275,1,82,test1,4,1.6545153000006394,-52.0
22,lhm,f,19,r,2,(-3.163262682197613e-14, -172.20000000000002),27,-3,11,yes,x,5,x,0.8573875000001863,1,83,test1,4,0.8574892999986332,-48.0
22,lhm,f,19,r,2,(-121.76378772032352, -121.76378772032348),26,-3,11,yes,x,5,m,1.7446627999997872,0,84,test1,4,1.7447957000003953,-48.0
22,lhm,f,19,r,2,(1.0544208940658713e-14, 172.20000000000002),23,5,2,no,m,6,m,1.5750447000009444,1,85,test1,4,1.5751519999994343,-48.0
22,lhm,f,19,r,2,(121.76378772032349, 121.76378772032349),22,7,3,yes,x,5,x,0.5493417999987287,1,86,test1,4,0.5494675999998435,-38.0
22,lhm,f,19,r,2,(-172.20000000000002, 2.1088417881317425e-14),25,-25,14,no,m,6,m,1.3577224999989994,1,87,test1,4,1.3580363000000943,-38.0
22,lhm,f,19,r,2,(121.76378772032349, 121.76378772032349),22,7,3,no,m,6,m,0.8802768000005017,1,88,test1,4,0.8804012000000512,-38.0
22,lhm,f,19,r,2,(-121.76378772032348, 121.76378772032349),24,-25,14,no,m,6,m,1.1225459999986924,1,89,test1,4,1.1227591999995639,-38.0
22,lhm,f,19,r,2,(-121.76378772032348, 121.76378772032349),24,3,1,yes,x,5,x,0.5391309999995428,1,90,test1,4,0.5393335999997362,-42.0
22,lhm,f,19,r,2,(172.20000000000002, 0.0),21,3,1,yes,x,5,x,0.7362513000007311,1,91,test1,4,0.7368821000000025,-42.0
22,lhm,f,19,r,2,(121.76378772032346, -121.76378772032352),28,-25,14,yes,x,5,x,0.51827719999892,1,92,test1,4,0.518502000000808,-70.0
22,lhm,f,19,r,2,(172.20000000000002, 0.0),21,-25,14,yes,x,5,x,0.4652776000002632,1,93,test1,4,0.46557860000029905,-70.0
22,lhm,f,19,r,2,(121.76378772032349, 121.76378772032349),22,25,4,no,m,6,m,1.393012300000919,1,94,test1,4,1.3932681000005687,-70.0
22,lhm,f,19,r,2,(172.20000000000002, 0.0),21,5,2,yes,x,5,x,0.6407928999997239,1,95,test1,4,0.6409143000000768,-40.0
22,lhm,f,19,r,2,(-121.76378772032352, -121.76378772032348),26,-5,12,yes,x,5,x,0.546940899999754,1,96,test1,4,0.5470676999993884,-50.0
22,lhm,f,19,r,2,(172.20000000000002, 0.0),21,-7,13,yes,x,5,x,0.5831476000003022,1,1,test2,4,0.5834763999991992,-52.0
22,lhm,f,19,r,2,(121.76378772032349, 121.76378772032349),22,-25,14,no,m,6,m,1.1031466999993427,1,2,test2,4,1.103246799999397,-52.0
22,lhm,f,19,r,2,(-3.163262682197613e-14, -172.20000000000002),27,3,1,yes,x,5,x,1.070093899999847,1,3,test2,4,1.0701974000003247,-42.0
22,lhm,f,19,r,2,(-121.76378772032348, 121.76378772032349),24,-25,14,yes,x,5,x,0.45496559999992314,1,4,test2,4,0.4553797000007762,-70.0
22,lhm,f,19,r,2,(121.76378772032349, 121.76378772032349),22,-3,11,no,m,6,m,1.166437699999733,1,5,test2,4,1.1666819000001851,-70.0
22,lhm,f,19,r,2,(-121.76378772032352, -121.76378772032348),26,3,1,yes,x,5,x,0.685329099998853,1,6,test2,4,0.685559600000488,-42.0
22,lhm,f,19,r,2,(-121.76378772032348, 121.76378772032349),24,-3,11,yes,x,5,x,0.9858220000005531,1,7,test2,4,0.9859228000004805,-48.0
22,lhm,f,19,r,2,(-172.20000000000002, 2.1088417881317425e-14),25,-5,12,no,m,6,m,1.0481906999993953,1,8,test2,4,1.0482936999997037,-48.0
22,lhm,f,19,r,2,(-121.76378772032352, -121.76378772032348),26,-7,13,yes,x,5,x,0.4429062999988673,1,9,test2,4,0.44307429999935266,-52.0
22,lhm,f,19,r,2,(-121.76378772032352, -121.76378772032348),26,5,2,yes,x,5,x,0.5524081999992632,1,10,test2,4,0.5525072999989789,-40.0
22,lhm,f,19,r,2,(-3.163262682197613e-14, -172.20000000000002),27,3,1,no,m,6,m,0.8243655999995099,1,11,test2,4,0.8244954000001599,-40.0
22,lhm,f,19,r,2,(1.0544208940658713e-14, 172.20000000000002),23,-25,14,yes,x,5,x,0.4187141000002157,1,12,test2,4,0.4189786999995704,-70.0
22,lhm,f,19,r,2,(172.20000000000002, 0.0),21,5,2,yes,x,5,x,0.4785669000011694,1,13,test2,4,0.4786970000004658,-40.0
22,lhm,f,19,r,2,(121.76378772032349, 121.76378772032349),22,-7,13,yes,x,5,x,0.5048925000010058,1,14,test2,4,0.5053308000005927,-52.0
22,lhm,f,19,r,2,(-3.163262682197613e-14, -172.20000000000002),27,7,3,no,m,6,m,1.1462706000002072,1,15,test2,4,1.1463875999997981,-52.0
22,lhm,f,19,r,2,(1.0544208940658713e-14, 172.20000000000002),23,-25,14,yes,x,5,x,0.4348288000001048,1,16,test2,4,0.43533150000075693,-70.0
22,lhm,f,19,r,2,(-172.20000000000002, 2.1088417881317425e-14),25,-7,13,yes,x,5,x,0.49623090000022785,1,17,test2,4,0.496504200000345,-52.0
22,lhm,f,19,r,2,(121.76378772032349, 121.76378772032349),22,25,4,yes,x,5,x,0.4614959999998973,1,18,test2,4,0.46161839999876975,-20.0
22,lhm,f,19,r,2,(1.0544208940658713e-14, 172.20000000000002),23,3,1,yes,x,5,x,0.5996777999989718,1,19,test2,4,0.5997988999988593,-42.0
22,lhm,f,19,r,2,(-172.20000000000002, 2.1088417881317425e-14),25,3,1,no,m,6,m,1.4263866000001144,1,20,test2,4,1.4267076999985875,-42.0
22,lhm,f,19,r,2,(-3.163262682197613e-14, -172.20000000000002),27,25,4,yes,x,5,x,0.41048310000041965,1,21,test2,4,0.41059369999857154,-20.0
22,lhm,f,19,r,2,(-121.76378772032352, -121.76378772032348),26,-7,13,no,m,6,m,0.9707006999997247,1,22,test2,4,0.9710746000000654,-20.0
22,lhm,f,19,r,2,(-172.20000000000002, 2.1088417881317425e-14),25,5,2,yes,x,5,x,0.41598850000082166,1,23,test2,4,0.4162794000003487,-40.0
22,lhm,f,19,r,2,(121.76378772032346, -121.76378772032352),28,7,3,yes,x,5,x,0.5979587000001629,1,24,test2,4,0.5981766999993852,-38.0
22,lhm,f,19,r,2,(-121.76378772032348, 121.76378772032349),24,3,1,yes,x,5,x,0.7397566999989067,1,25,test2,4,0.739862100001119,-42.0
22,lhm,f,19,r,2,(121.76378772032346, -121.76378772032352),28,-3,11,yes,x,5,x,0.8174925000002986,1,26,test2,4,0.817639799999597,-48.0
22,lhm,f,19,r,2,(-121.76378772032348, 121.76378772032349),24,-7,13,yes,x,5,x,0.48446640000111074,1,27,test2,4,0.4846061999996891,-52.0
22,lhm,f,19,r,2,(172.20000000000002, 0.0),21,7,3,yes,x,5,x,0.5742155999996612,1,28,test2,4,0.5743597000000591,-38.0
22,lhm,f,19,r,2,(172.20000000000002, 0.0),21,-3,11,yes,x,5,x,0.6024029000000155,1,29,test2,4,0.6025653999986389,-48.0
22,lhm,f,19,r,2,(-3.163262682197613e-14, -172.20000000000002),27,5,2,yes,x,5,x,0.8069120000000112,1,30,test2,4,0.8074030999996467,-40.0
22,lhm,f,19,r,2,(-121.76378772032348, 121.76378772032349),24,5,2,yes,x,5,x,0.5071883000000525,1,31,test2,4,0.5074194999997417,-40.0
22,lhm,f,19,r,2,(-172.20000000000002, 2.1088417881317425e-14),25,7,3,yes,x,5,x,0.44535569999970903,1,32,test2,4,0.44559560000016063,-38.0
22,lhm,f,19,r,2,(121.76378772032349, 121.76378772032349),22,7,3,yes,x,5,x,0.4822459000006347,1,33,test2,4,0.48246219999964524,-38.0
22,lhm,f,19,r,2,(121.76378772032349, 121.76378772032349),22,3,1,no,m,6,m,1.49611460000051,1,34,test2,4,1.4962290000003122,-38.0
22,lhm,f,19,r,2,(-3.163262682197613e-14, -172.20000000000002),27,-25,14,yes,x,5,x,0.4379209999988234,1,35,test2,4,0.43829399999958696,-70.0
22,lhm,f,19,r,2,(121.76378772032349, 121.76378772032349),22,-5,12,yes,x,5,x,0.695164400000067,1,36,test2,4,0.6952812999988964,-50.0
22,lhm,f,19,r,2,(-121.76378772032348, 121.76378772032349),24,7,3,no,m,6,m,1.2422203000005538,1,37,test2,4,1.2424989999999525,-50.0
22,lhm,f,19,r,2,(-121.76378772032352, -121.76378772032348),26,-25,14,yes,x,5,x,0.4614134000003105,1,38,test2,4,0.46157639999910316,-70.0
22,lhm,f,19,r,2,(1.0544208940658713e-14, 172.20000000000002),23,-5,12,no,m,6,m,1.2063381000007212,1,39,test2,4,1.2066431000002922,-70.0
22,lhm,f,19,r,2,(-121.76378772032348, 121.76378772032349),24,-25,14,yes,x,5,x,0.43995689999974275,1,40,test2,4,0.44027550000100746,-70.0
22,lhm,f,19,r,2,(172.20000000000002, 0.0),21,3,1,no,m,6,m,1.1450523000003159,1,41,test2,4,1.1454819000009593,-70.0
22,lhm,f,19,r,2,(-172.20000000000002, 2.1088417881317425e-14),25,25,4,no,m,6,m,0.9300794999999198,1,42,test2,4,0.9304915000011533,-70.0
22,lhm,f,19,r,2,(-3.163262682197613e-14, -172.20000000000002),27,-5,12,no,m,6,m,1.034289200000785,1,43,test2,4,1.0345281999998406,-70.0
22,lhm,f,19,r,2,(-172.20000000000002, 2.1088417881317425e-14),25,3,1,yes,x,5,x,0.7798364999998739,1,44,test2,4,0.7799992999989627,-42.0
22,lhm,f,19,r,2,(-3.163262682197613e-14, -172.20000000000002),27,-25,14,yes,x,5,x,0.44397269999899436,1,45,test2,4,0.444128199998886,-70.0
22,lhm,f,19,r,2,(172.20000000000002, 0.0),21,7,3,yes,x,5,x,0.5908390000004147,1,46,test2,4,0.5910240000011981,-38.0
22,lhm,f,19,r,2,(121.76378772032349, 121.76378772032349),22,5,2,yes,x,5,x,0.8366315000002942,1,47,test2,4,0.836748699999589,-40.0
22,lhm,f,19,r,2,(1.0544208940658713e-14, 172.20000000000002),23,7,3,no,m,6,m,1.1157369000011386,1,48,test2,4,1.1159772999999404,-40.0
22,lhm,f,19,r,2,(-121.76378772032352, -121.76378772032348),26,3,1,no,m,6,m,1.2337480000005598,1,49,test2,4,1.2346120000001974,-40.0
22,lhm,f,19,r,2,(121.76378772032346, -121.76378772032352),28,5,2,yes,x,5,x,0.7621914999999717,1,50,test2,4,0.7626593999993929,-40.0
22,lhm,f,19,r,2,(-172.20000000000002, 2.1088417881317425e-14),25,-5,12,yes,x,5,x,0.5535101000004943,1,51,test2,4,0.554109900000185,-50.0
22,lhm,f,19,r,2,(-121.76378772032348, 121.76378772032349),24,25,4,yes,x,5,x,0.4521655999997165,1,52,test2,4,0.4522790000009991,-20.0
22,lhm,f,19,r,2,(172.20000000000002, 0.0),21,-7,13,yes,x,5,x,0.5198878999999579,1,53,test2,4,0.5206511999986105,-52.0
22,lhm,f,19,r,2,(121.76378772032349, 121.76378772032349),22,5,2,no,m,6,m,1.0544444999995903,1,54,test2,4,1.0545721999988018,-52.0
22,lhm,f,19,r,2,(-121.76378772032348, 121.76378772032349),24,7,3,yes,x,5,x,0.4348523999997269,1,55,test2,4,0.4352383999994345,-38.0
22,lhm,f,19,r,2,(172.20000000000002, 0.0),21,-5,12,yes,x,5,x,0.548090800000864,1,56,test2,4,0.5482186999997793,-50.0
22,lhm,f,19,r,2,(-3.163262682197613e-14, -172.20000000000002),27,-7,13,no,m,6,m,1.0331476999999722,1,57,test2,4,1.0332441000009567,-50.0
22,lhm,f,19,r,2,(-172.20000000000002, 2.1088417881317425e-14),25,25,4,yes,x,5,x,0.4195337000001018,1,58,test2,4,0.41966689999935625,-20.0
22,lhm,f,19,r,2,(-121.76378772032348, 121.76378772032349),24,-7,13,yes,x,5,x,0.5114822000014101,1,59,test2,4,0.5115827999998146,-52.0
22,lhm,f,19,r,2,(172.20000000000002, 0.0),21,5,2,no,m,6,m,0.7471994999996241,1,60,test2,4,0.74730129999989,-52.0
22,lhm,f,19,r,2,(-121.76378772032352, -121.76378772032348),26,-3,11,yes,x,5,x,0.5946127000006527,1,61,test2,4,0.5948702999994566,-48.0
22,lhm,f,19,r,2,(172.20000000000002, 0.0),21,-25,14,no,m,6,m,1.0177101000008406,1,62,test2,4,1.0178416999988258,-48.0
22,lhm,f,19,r,2,(-121.76378772032352, -121.76378772032348),26,-25,14,yes,x,5,x,0.42347309999968274,1,63,test2,4,0.4241700000002311,-70.0
22,lhm,f,19,r,2,(-121.76378772032348, 121.76378772032349),24,25,4,no,m,6,m,0.969506099998398,1,64,test2,4,0.9702006999996229,-70.0
22,lhm,f,19,r,2,(-121.76378772032352, -121.76378772032348),26,25,4,yes,x,5,x,0.49280670000007376,1,65,test2,4,0.4930267999989155,-20.0
22,lhm,f,19,r,2,(-3.163262682197613e-14, -172.20000000000002),27,5,2,no,m,6,m,1.0206615000006423,1,66,test2,4,1.0212637999993603,-20.0
22,lhm,f,19,r,2,(121.76378772032346, -121.76378772032352),28,7,3,yes,x,5,x,0.594329800000196,1,67,test2,4,0.5948367000000871,-38.0
22,lhm,f,19,r,2,(121.76378772032346, -121.76378772032352),28,-3,11,yes,x,5,x,1.2552049000005354,1,68,test2,4,1.2554474999997183,-48.0
22,lhm,f,19,r,2,(-3.163262682197613e-14, -172.20000000000002),27,7,3,yes,x,5,x,0.5202858000011474,1,69,test2,4,0.5205152999988059,-38.0
22,lhm,f,19,r,2,(1.0544208940658713e-14, 172.20000000000002),23,-5,12,yes,x,5,x,0.5628366000000824,1,70,test2,4,0.5630498000009538,-50.0
22,lhm,f,19,r,2,(1.0544208940658713e-14, 172.20000000000002),23,7,3,yes,x,5,x,0.48823319999974046,1,71,test2,4,0.48834870000064257,-38.0
22,lhm,f,19,r,2,(121.76378772032346, -121.76378772032352),28,-25,14,no,m,6,m,1.4745159999984025,1,72,test2,4,1.4746302999992622,-38.0
22,lhm,f,19,r,2,(-121.76378772032348, 121.76378772032349),24,-3,11,yes,x,5,x,0.6852734999993118,1,73,test2,4,0.6854407000009815,-48.0
22,lhm,f,19,r,2,(121.76378772032346, -121.76378772032352),28,-7,13,yes,x,5,x,0.679340200000297,1,74,test2,4,0.6798013999996328,-52.0
22,lhm,f,19,r,2,(172.20000000000002, 0.0),21,3,1,yes,x,5,x,1.0535975999991933,1,75,test2,4,1.053699799998867,-42.0
22,lhm,f,19,r,2,(121.76378772032346, -121.76378772032352),28,5,2,yes,x,5,x,0.5199217000008503,1,76,test2,4,0.5202157000003353,-40.0
22,lhm,f,19,r,2,(121.76378772032346, -121.76378772032352),28,3,1,yes,x,5,x,0.9558669999987615,1,77,test2,4,0.956381699999838,-42.0
22,lhm,f,19,r,2,(-121.76378772032348, 121.76378772032349),24,5,2,yes,x,5,x,0.5003068000005442,1,78,test2,4,0.5004838999993808,-40.0
