subj_id,subj_name,subj_gender ,subj_age,subj_handedness,subj_runNum,tar_l_x,tar_l_y,loc_code,tar_ori,tar_code,tar_pre ,cor_response,pre_code,subj_response,RT,correct,trial_num,type,bloc_num,dur, real_tar
22,lhm,f,19,r,1,(121.76378772032346, -121.76378772032352),28,-5,12,yes,x,5,m,1.1260907000005318,0,1,prac,0,1.1262909999995827,-50.0
22,lhm,f,19,r,1,(-121.76378772032348, 121.76378772032349),24,3,1,no,m,6,m,1.5095713000000615,1,2,prac,0,1.5097364000002926,-50.0
22,lhm,f,19,r,1,(1.0544208940658713e-14, 172.20000000000002),23,-7,13,yes,x,5,x,1.0094704999992246,1,3,prac,0,1.0099464000004446,-52.0
22,lhm,f,19,r,1,(-121.76378772032352, -121.76378772032348),26,-7,13,yes,x,5,x,1.3780798000007053,1,4,prac,0,1.3783129999992525,-52.0
22,lhm,f,19,r,1,(-172.20000000000002, 2.1088417881317425e-14),25,-7,13,yes,x,5,x,0.6984355000004143,1,5,prac,0,0.6985354000007646,-52.0
22,lhm,f,19,r,1,(-172.20000000000002, 2.1088417881317425e-14),25,25,4,yes,x,5,x,0.7068236999994042,1,6,prac,0,0.7071126000000731,-20.0
22,lhm,f,19,r,1,(121.76378772032349, 121.76378772032349),22,7,3,yes,x,5,x,0.8438390000001164,1,7,prac,0,0.8440738999997848,-38.0
22,lhm,f,19,r,1,(-121.76378772032352, -121.76378772032348),26,25,4,yes,x,5,x,0.578001700000641,1,8,prac,0,0.5782821000002514,-20.0
22,lhm,f,19,r,1,(-121.76378772032348, 121.76378772032349),24,-25,14,yes,x,5,x,0.5369579999996859,1,9,prac,0,0.537057300000015,-70.0
22,lhm,f,19,r,1,(-121.76378772032352, -121.76378772032348),26,5,2,no,m,6,m,1.3205037000006996,1,10,prac,0,1.320602200000394,-70.0
22,lhm,f,19,r,1,(121.76378772032346, -121.76378772032352),28,-7,13,yes,x,5,m,1.4104317000001174,0,11,prac,0,1.4107192000001305,-52.0
22,lhm,f,19,r,1,(-121.76378772032352, -121.76378772032348),26,-7,13,no,m,6,m,1.5382825999995475,1,12,prac,0,1.5384616999999707,-52.0
22,lhm,f,19,r,1,(-3.163262682197613e-14, -172.20000000000002),27,3,1,yes,x,5,x,1.5595793000002232,1,13,prac,0,1.559955199999422,-42.0
22,lhm,f,19,r,1,(121.76378772032349, 121.76378772032349),22,-3,11,no,m,6,m,1.9788152000000991,1,14,prac,0,1.9791202000005796,-42.0
22,lhm,f,19,r,1,(172.20000000000002, 0.0),21,-25,14,yes,x,5,x,0.6513310999998794,1,15,prac,0,0.6516170999993847,-70.0
22,lhm,f,19,r,1,(1.0544208940658713e-14, 172.20000000000002),23,7,3,no,m,6,m,1.9048563999995167,1,16,prac,0,1.9049864999997226,-70.0
22,lhm,f,19,r,1,(172.20000000000002, 0.0),21,-3,11,yes,x,5,None,None,0,17,prac,0,1.9800852999997005,-48.0
22,lhm,f,19,r,1,(-121.76378772032352, -121.76378772032348),26,-25,14,yes,x,5,x,0.5672230999998646,1,18,prac,0,0.5673987999998644,-70.0
22,lhm,f,19,r,1,(121.76378772032349, 121.76378772032349),22,-7,13,yes,x,5,x,0.53700630000003,1,19,prac,0,0.5371130999992602,-52.0
22,lhm,f,19,r,1,(1.0544208940658713e-14, 172.20000000000002),23,-25,14,yes,x,5,x,0.48825810000016645,1,20,prac,0,0.4883569000003263,-70.0
22,lhm,f,19,r,1,(121.76378772032346, -121.76378772032352),28,-25,14,yes,x,5,x,0.5710439000004044,1,1,test1,1,0.5714465000000928,-70.0
22,lhm,f,19,r,1,(121.76378772032349, 121.76378772032349),22,3,1,yes,x,5,x,0.9384931000004144,1,2,test1,1,0.938592399999834,-42.0
22,lhm,f,19,r,1,(121.76378772032346, -121.76378772032352),28,25,4,yes,x,5,x,0.5706336000002921,1,3,test1,1,0.5707738999999492,-20.0
22,lhm,f,19,r,1,(121.76378772032346, -121.76378772032352),28,-25,14,yes,x,5,x,0.4608009999992646,1,4,test1,1,0.46099080000021786,-70.0
22,lhm,f,19,r,1,(-3.163262682197613e-14, -172.20000000000002),27,25,4,yes,x,5,x,0.47378500000013446,1,5,test1,1,0.4738858999999138,-20.0
22,lhm,f,19,r,1,(-121.76378772032348, 121.76378772032349),24,25,4,yes,x,5,x,0.44172639999942476,1,6,test1,1,0.4419503999997687,-20.0
22,lhm,f,19,r,1,(-3.163262682197613e-14, -172.20000000000002),27,-25,14,no,m,6,m,1.4969162999996115,1,7,test1,1,1.4971496999996816,-20.0
22,lhm,f,19,r,1,(-3.163262682197613e-14, -172.20000000000002),27,5,2,no,m,6,m,1.43153810000058,1,8,test1,1,1.431743500000266,-20.0
22,lhm,f,19,r,1,(172.20000000000002, 0.0),21,-3,11,yes,x,5,m,1.8344960999993418,0,9,test1,1,1.8347804000004544,-48.0
22,lhm,f,19,r,1,(121.76378772032349, 121.76378772032349),22,-25,14,yes,x,5,x,0.5195880999999645,1,10,test1,1,0.5197381000007226,-70.0
22,lhm,f,19,r,1,(121.76378772032349, 121.76378772032349),22,-7,13,yes,x,5,x,0.5968874000000142,1,11,test1,1,0.5972891999999774,-52.0
22,lhm,f,19,r,1,(121.76378772032349, 121.76378772032349),22,-7,13,yes,x,5,x,0.5788320999999996,1,12,test1,1,0.5791932000001907,-52.0
22,lhm,f,19,r,1,(-172.20000000000002, 2.1088417881317425e-14),25,5,2,no,m,6,m,1.7618584000001647,1,13,test1,1,1.7620044000004782,-52.0
22,lhm,f,19,r,1,(1.0544208940658713e-14, 172.20000000000002),23,25,4,yes,x,5,x,0.5120224000002054,1,14,test1,1,0.5122608000001492,-20.0
22,lhm,f,19,r,1,(172.20000000000002, 0.0),21,-25,14,no,m,6,m,1.3862707000007504,1,15,test1,1,1.3866842000006727,-20.0
22,lhm,f,19,r,1,(-3.163262682197613e-14, -172.20000000000002),27,7,3,yes,x,5,x,1.2626594000003024,1,16,test1,1,1.2629925999999614,-38.0
22,lhm,f,19,r,1,(-172.20000000000002, 2.1088417881317425e-14),25,3,1,no,m,6,m,1.4421289000001707,1,17,test1,1,1.4422248000000764,-38.0
22,lhm,f,19,r,1,(172.20000000000002, 0.0),21,7,3,yes,x,5,x,0.6875503999999637,1,18,test1,1,0.6876494999996794,-38.0
22,lhm,f,19,r,1,(121.76378772032346, -121.76378772032352),28,-3,11,yes,x,5,m,1.369252299999971,0,19,test1,1,1.3693759999996473,-48.0
22,lhm,f,19,r,1,(1.0544208940658713e-14, 172.20000000000002),23,-25,14,yes,x,5,x,0.5163392999993448,1,20,test1,1,0.5169882000000143,-70.0
22,lhm,f,19,r,1,(-121.76378772032352, -121.76378772032348),26,-5,12,yes,x,5,x,1.0046154999999999,1,21,test1,1,1.0050192999997307,-50.0
22,lhm,f,19,r,1,(121.76378772032349, 121.76378772032349),22,-5,12,no,m,6,None,None,0,22,test1,1,1.980080799999996,-50.0
22,lhm,f,19,r,1,(-121.76378772032348, 121.76378772032349),24,-3,11,yes,x,5,x,1.0304404999997132,1,23,test1,1,1.0311094999997295,-48.0
22,lhm,f,19,r,1,(1.0544208940658713e-14, 172.20000000000002),23,-7,13,yes,x,5,x,0.5436913000003187,1,24,test1,1,0.5437945999992735,-52.0
22,lhm,f,19,r,1,(1.0544208940658713e-14, 172.20000000000002),23,7,3,no,m,6,m,1.2286060999995243,1,25,test1,1,1.2287075000003824,-52.0
22,lhm,f,19,r,1,(121.76378772032349, 121.76378772032349),22,3,1,yes,x,5,m,1.325684700000238,0,26,test1,1,1.3257884000004196,-42.0
22,lhm,f,19,r,1,(-172.20000000000002, 2.1088417881317425e-14),25,-5,12,yes,x,5,x,0.6119939000000159,1,27,test1,1,0.612097399999584,-50.0
22,lhm,f,19,r,1,(172.20000000000002, 0.0),21,-5,12,yes,x,5,x,0.7452716999996483,1,28,test1,1,0.7454280000001745,-50.0
22,lhm,f,19,r,1,(-121.76378772032348, 121.76378772032349),24,3,1,no,m,6,m,1.6067646000001332,1,29,test1,1,1.6071302999998807,-50.0
22,lhm,f,19,r,1,(121.76378772032349, 121.76378772032349),22,7,3,no,m,6,m,1.4332291000000623,1,30,test1,1,1.4333317000000534,-50.0
22,lhm,f,19,r,1,(121.76378772032346, -121.76378772032352),28,-5,12,no,m,6,m,1.3082402999998521,1,31,test1,1,1.3084111999996821,-50.0
22,lhm,f,19,r,1,(-172.20000000000002, 2.1088417881317425e-14),25,-3,11,yes,x,5,x,0.9705903999993097,1,32,test1,1,0.9711293000000296,-48.0
22,lhm,f,19,r,1,(121.76378772032349, 121.76378772032349),22,-5,12,yes,x,5,x,0.6673915999999736,1,33,test1,1,0.6675261000000319,-50.0
22,lhm,f,19,r,1,(121.76378772032349, 121.76378772032349),22,5,2,yes,x,5,x,0.625910799999474,1,34,test1,1,0.6261991000001217,-40.0
22,lhm,f,19,r,1,(121.76378772032346, -121.76378772032352),28,-3,11,yes,x,5,m,1.1604787000005672,0,35,test1,1,1.1605778000002829,-48.0
22,lhm,f,19,r,1,(1.0544208940658713e-14, 172.20000000000002),23,5,2,no,m,6,m,1.1542435000001205,1,36,test1,1,1.1543658999999025,-48.0
22,lhm,f,19,r,1,(-172.20000000000002, 2.1088417881317425e-14),25,5,2,yes,x,5,x,0.6585948000001736,1,37,test1,1,0.6587521000001288,-40.0
22,lhm,f,19,r,1,(121.76378772032346, -121.76378772032352),28,25,4,no,m,6,m,1.2701554999994187,1,38,test1,1,1.2703239000002213,-40.0
22,lhm,f,19,r,1,(1.0544208940658713e-14, 172.20000000000002),23,-7,13,no,m,6,m,1.3284426999998686,1,39,test1,1,1.328831199999513,-40.0
22,lhm,f,19,r,1,(-121.76378772032348, 121.76378772032349),24,-7,13,no,m,6,m,1.3701531999995495,1,40,test1,1,1.3705130999996982,-40.0
22,lhm,f,19,r,1,(-3.163262682197613e-14, -172.20000000000002),27,25,4,no,m,6,m,1.2201025999993362,1,41,test1,1,1.2202400000005582,-40.0
22,lhm,f,19,r,1,(-121.76378772032348, 121.76378772032349),24,-25,14,yes,x,5,x,0.5364695000007487,1,42,test1,1,0.5365670999999566,-70.0
22,lhm,f,19,r,1,(172.20000000000002, 0.0),21,25,4,yes,x,5,x,0.5403641000002608,1,43,test1,1,0.540479299999788,-20.0
22,lhm,f,19,r,1,(-172.20000000000002, 2.1088417881317425e-14),25,25,4,yes,x,5,x,0.5337937000003876,1,44,test1,1,0.5343743000003087,-20.0
22,lhm,f,19,r,1,(1.0544208940658713e-14, 172.20000000000002),23,7,3,yes,x,5,x,0.9449094000001423,1,45,test1,1,0.9453776000000289,-38.0
22,lhm,f,19,r,1,(-121.76378772032348, 121.76378772032349),24,-5,12,yes,x,5,x,0.5341832000003706,1,46,test1,1,0.5343087999999625,-50.0
22,lhm,f,19,r,1,(-3.163262682197613e-14, -172.20000000000002),27,-25,14,yes,x,5,x,0.6076908000004551,1,47,test1,1,0.6078169000002163,-70.0
22,lhm,f,19,r,1,(1.0544208940658713e-14, 172.20000000000002),23,3,1,no,m,6,m,1.4241674999993847,1,48,test1,1,1.4243105000005016,-70.0
22,lhm,f,19,r,1,(-172.20000000000002, 2.1088417881317425e-14),25,-25,14,yes,x,5,x,0.5379945999993652,1,49,test1,1,0.5381783000002542,-70.0
22,lhm,f,19,r,1,(-121.76378772032352, -121.76378772032348),26,7,3,yes,x,5,x,0.9595650999999634,1,50,test1,1,0.95998469999995,-38.0
22,lhm,f,19,r,1,(1.0544208940658713e-14, 172.20000000000002),23,-7,13,yes,x,5,x,0.580107599999792,1,51,test1,1,0.5803526999998212,-52.0
22,lhm,f,19,r,1,(-3.163262682197613e-14, -172.20000000000002),27,-25,14,yes,x,5,x,0.5224097000000256,1,52,test1,1,0.5227058000000397,-70.0
22,lhm,f,19,r,1,(1.0544208940658713e-14, 172.20000000000002),23,-5,12,no,m,6,m,1.467606500000329,1,53,test1,1,1.4677119999996648,-70.0
22,lhm,f,19,r,1,(121.76378772032349, 121.76378772032349),22,-25,14,yes,x,5,x,0.5350556999992477,1,54,test1,1,0.535480099999404,-70.0
22,lhm,f,19,r,1,(1.0544208940658713e-14, 172.20000000000002),23,5,2,yes,x,5,x,0.6955010000001494,1,55,test1,1,0.6957907999994859,-40.0
22,lhm,f,19,r,1,(-121.76378772032352, -121.76378772032348),26,-3,11,yes,x,5,m,1.4242653000001155,0,56,test1,1,1.4244639999997162,-48.0
22,lhm,f,19,r,1,(121.76378772032349, 121.76378772032349),22,-3,11,no,m,6,m,1.39806309999949,1,57,test1,1,1.398184499999843,-48.0
22,lhm,f,19,r,1,(-121.76378772032348, 121.76378772032349),24,-3,11,no,m,6,m,1.3533127999999124,1,58,test1,1,1.353476799999953,-48.0
22,lhm,f,19,r,1,(-172.20000000000002, 2.1088417881317425e-14),25,-7,13,yes,x,5,x,0.5182156000000759,1,59,test1,1,0.5183117999995375,-52.0
22,lhm,f,19,r,1,(-121.76378772032348, 121.76378772032349),24,7,3,yes,x,5,x,0.5342233000001215,1,60,test1,1,0.5343480999999883,-38.0
22,lhm,f,19,r,1,(-121.76378772032348, 121.76378772032349),24,-25,14,no,m,6,m,1.2982699000003777,1,61,test1,1,1.298393500000202,-38.0
22,lhm,f,19,r,1,(-121.76378772032352, -121.76378772032348),26,25,4,yes,x,5,x,0.5643903000000137,1,62,test1,1,0.5645025000003443,-20.0
22,lhm,f,19,r,1,(-172.20000000000002, 2.1088417881317425e-14),25,-5,12,no,m,6,m,1.2589060000000245,1,63,test1,1,1.25930629999948,-20.0
22,lhm,f,19,r,1,(-121.76378772032348, 121.76378772032349),24,5,2,yes,x,5,x,0.5872011999999813,1,64,test1,1,0.5877608000000691,-40.0
22,lhm,f,19,r,1,(172.20000000000002, 0.0),21,-3,11,no,m,6,m,1.2707221000000573,1,65,test1,1,1.270852200000263,-40.0
22,lhm,f,19,r,1,(121.76378772032346, -121.76378772032352),28,5,2,yes,x,5,x,1.307150399999955,1,66,test1,1,1.307329700000082,-40.0
22,lhm,f,19,r,1,(121.76378772032349, 121.76378772032349),22,25,4,yes,x,5,x,0.4933861999998044,1,67,test1,1,0.4935363000004145,-20.0
22,lhm,f,19,r,1,(121.76378772032346, -121.76378772032352),28,-7,13,yes,x,5,x,1.1556190000001152,1,68,test1,1,1.1558208999995259,-52.0
22,lhm,f,19,r,1,(-3.163262682197613e-14, -172.20000000000002),27,7,3,yes,x,5,x,1.0649368999993385,1,69,test1,1,1.0650636999998824,-38.0
22,lhm,f,19,r,1,(-3.163262682197613e-14, -172.20000000000002),27,-7,13,yes,x,5,x,0.8163835999994262,1,70,test1,1,0.8174136999996335,-52.0
22,lhm,f,19,r,1,(-121.76378772032348, 121.76378772032349),24,-3,11,yes,x,5,m,1.4469232999999804,0,71,test1,1,1.4470805999999357,-48.0
22,lhm,f,19,r,1,(121.76378772032346, -121.76378772032352),28,25,4,yes,x,5,x,0.5139899000005244,1,72,test1,1,0.5142040999999153,-20.0
22,lhm,f,19,r,1,(-172.20000000000002, 2.1088417881317425e-14),25,3,1,yes,x,5,x,1.3653524999999718,1,73,test1,1,1.3654529999994338,-42.0
22,lhm,f,19,r,1,(121.76378772032349, 121.76378772032349),22,-25,14,no,m,6,None,None,0,74,test1,1,1.9800828999996156,-42.0
22,lhm,f,19,r,1,(-3.163262682197613e-14, -172.20000000000002),27,3,1,yes,x,5,x,1.2641132999997353,1,75,test1,1,1.264241800000491,-42.0
22,lhm,f,19,r,1,(121.76378772032349, 121.76378772032349),22,7,3,yes,x,5,x,0.7522208000000319,1,76,test1,1,0.7526103999998668,-38.0
22,lhm,f,19,r,1,(172.20000000000002, 0.0),21,3,1,no,m,6,m,1.4001189999999042,1,77,test1,1,1.400247099999433,-38.0
22,lhm,f,19,r,1,(121.76378772032349, 121.76378772032349),22,25,4,no,m,6,m,1.8685312999996313,1,78,test1,1,1.868774300000041,-38.0
22,lhm,f,19,r,1,(-121.76378772032352, -121.76378772032348),26,-7,13,yes,x,5,x,0.6927559000005203,1,79,test1,1,0.6928539000000455,-52.0
22,lhm,f,19,r,1,(121.76378772032349, 121.76378772032349),22,-7,13,no,m,6,m,1.5419388000000254,1,80,test1,1,1.5421939000007114,-52.0
22,lhm,f,19,r,1,(121.76378772032346, -121.76378772032352),28,3,1,yes,x,5,m,1.48180610000054,0,81,test1,1,1.4820472999999765,-42.0
22,lhm,f,19,r,1,(1.0544208940658713e-14, 172.20000000000002),23,3,1,yes,x,5,m,1.0805741000003763,0,82,test1,1,1.080673299999944,-42.0
22,lhm,f,19,r,1,(1.0544208940658713e-14, 172.20000000000002),23,-25,14,yes,x,5,x,0.5812707999994018,1,83,test1,1,0.5814118999996936,-70.0
22,lhm,f,19,r,1,(172.20000000000002, 0.0),21,-5,12,no,m,6,m,1.5398319000005358,1,84,test1,1,1.5399639000006573,-70.0
22,lhm,f,19,r,1,(121.76378772032346, -121.76378772032352),28,7,3,yes,x,5,x,0.7072803999999451,1,85,test1,1,0.7074076999997487,-38.0
22,lhm,f,19,r,1,(-3.163262682197613e-14, -172.20000000000002),27,-5,12,yes,x,5,x,1.3272746000002371,1,86,test1,1,1.3273767999999109,-50.0
22,lhm,f,19,r,1,(172.20000000000002, 0.0),21,-5,12,yes,x,5,x,0.8677940999996281,1,87,test1,1,0.868012699999781,-50.0
22,lhm,f,19,r,1,(-172.20000000000002, 2.1088417881317425e-14),25,-5,12,yes,x,5,x,0.7062940000005256,1,88,test1,1,0.7064233999999487,-50.0
22,lhm,f,19,r,1,(-121.76378772032352, -121.76378772032348),26,3,1,no,m,6,m,1.5607223000006343,1,89,test1,1,1.5609474999992017,-50.0
22,lhm,f,19,r,1,(121.76378772032346, -121.76378772032352),28,-5,12,yes,x,5,x,1.227788099999998,1,90,test1,1,1.228021699999772,-50.0
22,lhm,f,19,r,1,(-121.76378772032352, -121.76378772032348),26,25,4,no,m,6,m,1.6144004000007044,1,91,test1,1,1.6146767000000182,-50.0
22,lhm,f,19,r,1,(-121.76378772032348, 121.76378772032349),24,5,2,yes,x,5,x,0.8959483999997246,1,92,test1,1,0.8960508000000118,-40.0
22,lhm,f,19,r,1,(1.0544208940658713e-14, 172.20000000000002),23,25,4,no,m,6,m,1.497451799999908,1,93,test1,1,1.4976701999994475,-40.0
22,lhm,f,19,r,1,(1.0544208940658713e-14, 172.20000000000002),23,-3,11,yes,x,5,x,1.3062294000001202,1,94,test1,1,1.3063453000004301,-48.0
22,lhm,f,19,r,1,(172.20000000000002, 0.0),21,7,3,yes,x,5,x,0.7324969000001147,1,95,test1,1,0.7326210999999603,-38.0
22,lhm,f,19,r,1,(172.20000000000002, 0.0),21,-25,14,yes,x,5,x,0.4846791999998459,1,96,test1,1,0.485242400000061,-70.0
22,lhm,f,19,r,1,(172.20000000000002, 0.0),21,-3,11,yes,x,5,x,0.5452878000005512,1,1,test2,1,0.5453871999998228,-48.0
22,lhm,f,19,r,1,(-121.76378772032352, -121.76378772032348),26,5,2,no,m,6,m,1.2997997000002215,1,2,test2,1,1.2998999999999796,-48.0
22,lhm,f,19,r,1,(172.20000000000002, 0.0),21,25,4,yes,x,5,x,0.5527663000002576,1,3,test2,1,0.552863800000523,-20.0
22,lhm,f,19,r,1,(-121.76378772032352, -121.76378772032348),26,5,2,yes,x,5,x,0.8194805000002816,1,4,test2,1,0.8196087999995143,-40.0
22,lhm,f,19,r,1,(1.0544208940658713e-14, 172.20000000000002),23,-3,11,yes,x,5,x,0.6790664999998626,1,5,test2,1,0.6793037000006734,-48.0
22,lhm,f,19,r,1,(-3.163262682197613e-14, -172.20000000000002),27,3,1,yes,x,5,x,1.2306257000000187,1,6,test2,1,1.2314329999999245,-42.0
22,lhm,f,19,r,1,(1.0544208940658713e-14, 172.20000000000002),23,-25,14,no,m,6,m,1.6705504999999903,1,7,test2,1,1.670805400000063,-42.0
22,lhm,f,19,r,1,(172.20000000000002, 0.0),21,-7,13,yes,x,5,x,0.6891436999994767,1,8,test2,1,0.6892962000001717,-52.0
22,lhm,f,19,r,1,(-121.76378772032352, -121.76378772032348),26,-5,12,yes,x,5,x,1.1670836000002964,1,9,test2,1,1.1681926999999632,-50.0
22,lhm,f,19,r,1,(121.76378772032346, -121.76378772032352),28,-7,13,no,m,6,m,1.244571199999882,1,10,test2,1,1.244701200000236,-50.0
22,lhm,f,19,r,1,(-3.163262682197613e-14, -172.20000000000002),27,-3,11,yes,x,5,m,1.1357600000001185,0,11,test2,1,1.1359187000007296,-48.0
22,lhm,f,19,r,1,(-121.76378772032352, -121.76378772032348),26,25,4,yes,x,5,x,0.5776052000001073,1,12,test2,1,0.5779500000007829,-20.0
22,lhm,f,19,r,1,(-172.20000000000002, 2.1088417881317425e-14),25,7,3,yes,x,5,x,0.5828219000004538,1,13,test2,1,0.5832978999997067,-38.0
22,lhm,f,19,r,1,(-121.76378772032348, 121.76378772032349),24,-25,14,yes,x,5,x,0.6140544999998383,1,14,test2,1,0.6141856999993252,-70.0
22,lhm,f,19,r,1,(172.20000000000002, 0.0),21,5,2,yes,x,5,x,0.7470858999995471,1,15,test2,1,0.7476282999996329,-40.0
22,lhm,f,19,r,1,(121.76378772032346, -121.76378772032352),28,-25,14,no,m,6,m,1.6746845999996367,1,16,test2,1,1.6748185999995258,-40.0
22,lhm,f,19,r,1,(-121.76378772032352, -121.76378772032348),26,-25,14,yes,x,5,x,0.5891796999994767,1,17,test2,1,0.5893404000007649,-70.0
22,lhm,f,19,r,1,(-3.163262682197613e-14, -172.20000000000002),27,5,2,yes,x,5,x,1.5196834999997009,1,18,test2,1,1.5199038999999175,-40.0
22,lhm,f,19,r,1,(-121.76378772032352, -121.76378772032348),26,5,2,yes,x,5,x,0.935576900000342,1,19,test2,1,0.9357395999995788,-40.0
22,lhm,f,19,r,1,(172.20000000000002, 0.0),21,3,1,yes,x,5,m,1.571349900000314,0,20,test2,1,1.571640899999693,-42.0
22,lhm,f,19,r,1,(-121.76378772032352, -121.76378772032348),26,-5,12,no,m,6,m,1.4416000000001077,1,21,test2,1,1.4417614000003596,-42.0
22,lhm,f,19,r,1,(-121.76378772032352, -121.76378772032348),26,-25,14,no,m,6,m,1.3782854999999472,1,22,test2,1,1.3784881999999925,-42.0
22,lhm,f,19,r,1,(-172.20000000000002, 2.1088417881317425e-14),25,-3,11,yes,x,5,m,1.273032800000692,0,23,test2,1,1.2732309000002715,-48.0
22,lhm,f,19,r,1,(121.76378772032346, -121.76378772032352),28,3,1,yes,x,5,x,1.9444268999995984,1,24,test2,1,1.9445291000001816,-42.0
22,lhm,f,19,r,1,(-121.76378772032348, 121.76378772032349),24,-7,13,yes,x,5,x,0.6253962999999203,1,25,test2,1,0.625742100000025,-52.0
22,lhm,f,19,r,1,(121.76378772032349, 121.76378772032349),22,25,4,yes,x,5,x,0.5160267999999633,1,26,test2,1,0.5163198000000193,-20.0
22,lhm,f,19,r,1,(1.0544208940658713e-14, 172.20000000000002),23,5,2,yes,x,5,x,0.6465559999996913,1,27,test2,1,0.647218599999178,-40.0
22,lhm,f,19,r,1,(-172.20000000000002, 2.1088417881317425e-14),25,-7,13,yes,x,5,x,0.5778896000001623,1,28,test2,1,0.5779916999999841,-52.0
22,lhm,f,19,r,1,(-3.163262682197613e-14, -172.20000000000002),27,-3,11,yes,x,5,m,1.9127335000002859,0,29,test2,1,1.9129722999996375,-48.0
22,lhm,f,19,r,1,(-121.76378772032348, 121.76378772032349),24,25,4,no,m,6,m,1.6349051999995936,1,30,test2,1,1.6350290000000314,-48.0
22,lhm,f,19,r,1,(121.76378772032349, 121.76378772032349),22,-5,12,yes,x,5,x,0.6536642000000938,1,31,test2,1,0.6541204000004655,-50.0
22,lhm,f,19,r,1,(172.20000000000002, 0.0),21,-7,13,yes,x,5,x,0.6905457000002571,1,32,test2,1,0.691083400000025,-52.0
22,lhm,f,19,r,1,(121.76378772032349, 121.76378772032349),22,5,2,no,m,6,m,1.5657373000003645,1,33,test2,1,1.5660955000003014,-52.0
22,lhm,f,19,r,1,(1.0544208940658713e-14, 172.20000000000002),23,-5,12,yes,x,5,x,0.9343128999998953,1,34,test2,1,0.9344988999991983,-50.0
22,lhm,f,19,r,1,(-172.20000000000002, 2.1088417881317425e-14),25,3,1,yes,x,5,x,0.7625665000005029,1,35,test2,1,0.7626849999996921,-42.0
22,lhm,f,19,r,1,(121.76378772032346, -121.76378772032352),28,-7,13,yes,x,5,x,1.0240850999998656,1,36,test2,1,1.0243983000000298,-52.0
22,lhm,f,19,r,1,(-121.76378772032352, -121.76378772032348),26,7,3,no,m,6,m,1.642342400000416,1,37,test2,1,1.6425451000004614,-52.0
22,lhm,f,19,r,1,(-3.163262682197613e-14, -172.20000000000002),27,7,3,no,m,6,None,None,0,38,test2,1,1.9800793000003978,-52.0
22,lhm,f,19,r,1,(172.20000000000002, 0.0),21,-25,14,yes,x,5,x,0.6170872999991843,1,39,test2,1,0.6172077999999601,-70.0
22,lhm,f,19,r,1,(121.76378772032349, 121.76378772032349),22,-3,11,yes,x,5,x,0.7272328999997626,1,40,test2,1,0.7273474000003262,-48.0
22,lhm,f,19,r,1,(-3.163262682197613e-14, -172.20000000000002),27,-5,12,no,m,6,m,1.179874700000255,1,41,test2,1,1.1801314999993338,-48.0
22,lhm,f,19,r,1,(121.76378772032349, 121.76378772032349),22,-3,11,yes,x,5,x,0.6155731000008018,1,42,test2,1,0.6159284000004845,-48.0
22,lhm,f,19,r,1,(-121.76378772032352, -121.76378772032348),26,-25,14,yes,x,5,x,0.5094390000003841,1,43,test2,1,0.5099750999997923,-70.0
22,lhm,f,19,r,1,(1.0544208940658713e-14, 172.20000000000002),23,-3,11,no,m,6,m,1.1241047000003164,1,44,test2,1,1.1242985999997472,-70.0
22,lhm,f,19,r,1,(121.76378772032346, -121.76378772032352),28,5,2,no,m,6,m,1.433492400000432,1,45,test2,1,1.4335948999996617,-70.0
22,lhm,f,19,r,1,(1.0544208940658713e-14, 172.20000000000002),23,7,3,yes,x,5,x,0.5929935000003752,1,46,test2,1,0.5931077000004734,-38.0
22,lhm,f,19,r,1,(121.76378772032346, -121.76378772032352),28,7,3,yes,x,5,x,1.0206746000003477,1,47,test2,1,1.0213297000000239,-38.0
22,lhm,f,19,r,1,(-121.76378772032348, 121.76378772032349),24,3,1,yes,x,5,x,0.9398371000006591,1,48,test2,1,0.9400821999997788,-42.0
22,lhm,f,19,r,1,(-172.20000000000002, 2.1088417881317425e-14),25,7,3,yes,x,5,x,0.5491795999996611,1,49,test2,1,0.5493049000006067,-38.0
22,lhm,f,19,r,1,(172.20000000000002, 0.0),21,5,2,no,m,6,m,1.4365888000002087,1,50,test2,1,1.4367639000001873,-38.0
22,lhm,f,19,r,1,(-121.76378772032348, 121.76378772032349),24,7,3,yes,x,5,x,0.5980802000003678,1,51,test2,1,0.5981938999993872,-38.0
22,lhm,f,19,r,1,(172.20000000000002, 0.0),21,-7,13,no,m,6,m,1.1076720000000932,1,52,test2,1,1.1083371000004263,-38.0
22,lhm,f,19,r,1,(172.20000000000002, 0.0),21,25,4,no,m,6,m,1.0112849000006463,1,53,test2,1,1.0116475000004357,-38.0
22,lhm,f,19,r,1,(-172.20000000000002, 2.1088417881317425e-14),25,25,4,yes,x,5,x,0.5419741999994585,1,54,test2,1,0.542105000000447,-20.0
22,lhm,f,19,r,1,(-172.20000000000002, 2.1088417881317425e-14),25,-7,13,no,m,6,m,1.0219272000003912,1,55,test2,1,1.0220712999998796,-20.0
22,lhm,f,19,r,1,(121.76378772032349, 121.76378772032349),22,3,1,no,m,6,m,0.8874582999997074,1,56,test2,1,0.8876420999995389,-20.0
22,lhm,f,19,r,1,(-121.76378772032352, -121.76378772032348),26,7,3,yes,x,5,x,0.6575559000002613,1,57,test2,1,0.6577979000003324,-38.0
22,lhm,f,19,r,1,(121.76378772032349, 121.76378772032349),22,5,2,yes,x,5,x,0.9021562999996604,1,58,test2,1,0.902467699999761,-40.0
22,lhm,f,19,r,1,(-172.20000000000002, 2.1088417881317425e-14),25,-3,11,no,m,6,m,1.1000078999995822,1,59,test2,1,1.1007395999995424,-40.0
22,lhm,f,19,r,1,(-3.163262682197613e-14, -172.20000000000002),27,5,2,yes,x,5,x,1.2944605000002412,1,60,test2,1,1.2947299999996176,-40.0
22,lhm,f,19,r,1,(-3.163262682197613e-14, -172.20000000000002),27,-5,12,yes,x,5,x,0.8232990999995309,1,61,test2,1,0.8239862999998877,-50.0
22,lhm,f,19,r,1,(-121.76378772032348, 121.76378772032349),24,-7,13,yes,x,5,x,0.5351110999999946,1,62,test2,1,0.5355975000002218,-52.0
22,lhm,f,19,r,1,(-121.76378772032348, 121.76378772032349),24,5,2,no,m,6,m,1.2765572000007523,1,63,test2,1,1.2770933000001605,-52.0
22,lhm,f,19,r,1,(-121.76378772032352, -121.76378772032348),26,-7,13,yes,x,5,x,0.5729769999998098,1,64,test2,1,0.5735274999997273,-52.0
22,lhm,f,19,r,1,(121.76378772032346, -121.76378772032352),28,-3,11,no,m,6,m,1.0929825999992318,1,65,test2,1,1.093222099999366,-52.0
22,lhm,f,19,r,1,(172.20000000000002, 0.0),21,5,2,yes,x,5,x,0.9809144000000742,1,66,test2,1,0.9815073999998276,-40.0
22,lhm,f,19,r,1,(-3.163262682197613e-14, -172.20000000000002),27,3,1,no,m,6,m,1.071364999999787,1,67,test2,1,1.071610399999372,-40.0
22,lhm,f,19,r,1,(-3.163262682197613e-14, -172.20000000000002),27,-7,13,no,m,6,m,1.0288215000000491,1,68,test2,1,1.0291435999997702,-40.0
22,lhm,f,19,r,1,(-121.76378772032352, -121.76378772032348),26,-7,13,no,m,6,m,1.0448796999999104,1,69,test2,1,1.04498010000043,-40.0
22,lhm,f,19,r,1,(-172.20000000000002, 2.1088417881317425e-14),25,-25,14,yes,x,5,x,0.5846301999999923,1,70,test2,1,0.5849748000000545,-70.0
22,lhm,f,19,r,1,(-121.76378772032352, -121.76378772032348),26,3,1,yes,x,5,None,None,0,71,test2,1,1.9800827999997637,-42.0
22,lhm,f,19,r,1,(-121.76378772032352, -121.76378772032348),26,-3,11,yes,x,5,x,0.750936599999477,1,72,test2,1,0.7510787000001073,-48.0
22,lhm,f,19,r,1,(-3.163262682197613e-14, -172.20000000000002),27,-3,11,no,m,6,m,0.9904710999999224,1,73,test2,1,0.990631000000576,-48.0
22,lhm,f,19,r,1,(121.76378772032346, -121.76378772032352),28,7,3,no,m,6,m,1.084083499999906,1,74,test2,1,1.0846143999997366,-48.0
22,lhm,f,19,r,1,(121.76378772032346, -121.76378772032352),28,5,2,yes,x,5,x,0.7833722999994279,1,75,test2,1,0.7835119000001214,-40.0
22,lhm,f,19,r,1,(172.20000000000002, 0.0),21,3,1,yes,x,5,x,1.32813890000034,1,76,test2,1,1.3285083000000668,-42.0
22,lhm,f,19,r,1,(-3.163262682197613e-14, -172.20000000000002),27,25,4,yes,x,5,x,0.5980456000006598,1,77,test2,1,0.598144599999614,-20.0
22,lhm,f,19,r,1,(1.0544208940658713e-14, 172.20000000000002),23,3,1,yes,x,5,x,1.4671205000004193,1,78,test2,1,1.467296100000567,-42.0
22,lhm,f,19,r,1,(-172.20000000000002, 2.1088417881317425e-14),25,25,4,no,m,6,m,1.227273000000423,1,79,test2,1,1.2279052999992928,-42.0
22,lhm,f,19,r,1,(1.0544208940658713e-14, 172.20000000000002),23,-5,12,yes,x,5,x,0.6919787000006181,1,80,test2,1,0.6922641999999541,-50.0
22,lhm,f,19,r,1,(-121.76378772032348, 121.76378772032349),24,-5,12,no,m,6,m,1.0110697999998592,1,81,test2,1,1.011279299999842,-50.0
22,lhm,f,19,r,1,(-121.76378772032348, 121.76378772032349),24,25,4,yes,x,5,x,0.4730483000003005,1,82,test2,1,0.47345560000030673,-20.0
22,lhm,f,19,r,1,(121.76378772032349, 121.76378772032349),22,7,3,yes,x,5,x,0.5545395999997709,1,83,test2,1,0.5547010000000228,-38.0
22,lhm,f,19,r,1,(-121.76378772032348, 121.76378772032349),24,7,3,no,m,6,m,1.0509826999996221,1,84,test2,1,1.051271999999699,-38.0
22,lhm,f,19,r,1,(-172.20000000000002, 2.1088417881317425e-14),25,-25,14,no,m,6,m,1.1316962000000785,1,85,test2,1,1.1318102000004728,-38.0
22,lhm,f,19,r,1,(-172.20000000000002, 2.1088417881317425e-14),25,5,2,yes,x,5,x,0.5649481000000378,1,86,test2,1,0.5650543000001562,-40.0
22,lhm,f,19,r,1,(121.76378772032346, -121.76378772032352),28,-5,12,yes,x,5,x,1.0910840999995344,1,87,test2,1,1.0915043000004516,-50.0
22,lhm,f,19,r,1,(-121.76378772032352, -121.76378772032348),26,3,1,yes,x,5,x,1.0359858000001623,1,88,test2,1,1.0364262000002782,-42.0
22,lhm,f,19,r,1,(121.76378772032346, -121.76378772032352),28,3,1,no,m,6,m,1.106544600000234,1,89,test2,1,1.1067720000000918,-42.0
22,lhm,f,19,r,1,(-121.76378772032348, 121.76378772032349),24,3,1,yes,x,5,x,0.7372946000004958,1,90,test2,1,0.7373957999998311,-42.0
22,lhm,f,19,r,1,(-172.20000000000002, 2.1088417881317425e-14),25,7,3,no,m,6,m,1.0802574999997887,1,91,test2,1,1.0806058999996822,-42.0
22,lhm,f,19,r,1,(172.20000000000002, 0.0),21,7,3,no,m,6,m,1.1298165999996854,1,92,test2,1,1.1299749999998312,-42.0
22,lhm,f,19,r,1,(-3.163262682197613e-14, -172.20000000000002),27,-7,13,yes,x,5,x,0.733587599999737,1,93,test2,1,0.7336907999997493,-52.0
22,lhm,f,19,r,1,(-121.76378772032348, 121.76378772032349),24,-5,12,yes,x,5,x,0.782186699999329,1,94,test2,1,0.782600900000034,-50.0
22,lhm,f,19,r,1,(-121.76378772032352, -121.76378772032348),26,-3,11,no,m,6,m,0.8286404999998922,1,95,test2,1,0.8287639999998646,-50.0
22,lhm,f,19,r,1,(1.0544208940658713e-14, 172.20000000000002),23,25,4,yes,x,5,x,0.48032790000070236,1,96,test2,1,0.4806423999998515,-20.0
22,lhm,f,19,r,1,(121.76378772032346, -121.76378772032352),28,-25,14,yes,x,5,x,0.6914613999997528,1,1,test1,2,0.6915661999992153,-70.0
22,lhm,f,19,r,1,(121.76378772032349, 121.76378772032349),22,3,1,yes,x,5,x,1.460792599999877,1,2,test1,2,1.4610806999999113,-42.0
22,lhm,f,19,r,1,(121.76378772032346, -121.76378772032352),28,25,4,yes,x,5,x,0.5665116000000125,1,3,test1,2,0.5668746999999712,-20.0
22,lhm,f,19,r,1,(121.76378772032346, -121.76378772032352),28,-25,14,yes,x,5,x,0.5177902000004906,1,4,test1,2,0.5179531000003408,-70.0
22,lhm,f,19,r,1,(-3.163262682197613e-14, -172.20000000000002),27,25,4,yes,x,5,x,0.50043579999965,1,5,test1,2,0.5005478000002768,-20.0
22,lhm,f,19,r,1,(-121.76378772032348, 121.76378772032349),24,25,4,yes,x,5,x,0.5018632000001162,1,6,test1,2,0.501965200000086,-20.0
22,lhm,f,19,r,1,(-3.163262682197613e-14, -172.20000000000002),27,-25,14,no,m,6,m,1.1454367000005732,1,7,test1,2,1.145679199999904,-20.0
22,lhm,f,19,r,1,(-3.163262682197613e-14, -172.20000000000002),27,5,2,no,m,6,m,1.1919679000002361,1,8,test1,2,1.1921162000007826,-20.0
22,lhm,f,19,r,1,(172.20000000000002, 0.0),21,-3,11,yes,x,5,x,0.5175099999996746,1,9,test1,2,0.5177175999997417,-48.0
22,lhm,f,19,r,1,(121.76378772032349, 121.76378772032349),22,-25,14,yes,x,5,x,0.4804759999997259,1,10,test1,2,0.4808733999998367,-70.0
22,lhm,f,19,r,1,(121.76378772032349, 121.76378772032349),22,-7,13,yes,x,5,x,0.517692000000352,1,11,test1,2,0.5177972000001319,-52.0
22,lhm,f,19,r,1,(121.76378772032349, 121.76378772032349),22,-7,13,yes,x,5,x,0.47747660000004544,1,12,test1,2,0.47778850000031525,-52.0
22,lhm,f,19,r,1,(-172.20000000000002, 2.1088417881317425e-14),25,5,2,no,m,6,m,1.114425100000517,1,13,test1,2,1.1145238999997673,-52.0
22,lhm,f,19,r,1,(1.0544208940658713e-14, 172.20000000000002),23,25,4,yes,x,5,x,0.47051879999980883,1,14,test1,2,0.47061889999986306,-20.0
22,lhm,f,19,r,1,(172.20000000000002, 0.0),21,-25,14,no,m,6,m,1.1045960999999807,1,15,test1,2,1.1048252000000502,-20.0
22,lhm,f,19,r,1,(-3.163262682197613e-14, -172.20000000000002),27,7,3,yes,x,5,x,1.0567983000000822,1,16,test1,2,1.0569202999995468,-38.0
22,lhm,f,19,r,1,(-172.20000000000002, 2.1088417881317425e-14),25,3,1,no,m,6,m,1.1478135999996084,1,17,test1,2,1.1479407000006177,-38.0
22,lhm,f,19,r,1,(172.20000000000002, 0.0),21,7,3,yes,x,5,x,0.6054971000003206,1,18,test1,2,0.6057723999992959,-38.0
22,lhm,f,19,r,1,(121.76378772032346, -121.76378772032352),28,-3,11,yes,x,5,m,1.1316860000006272,0,19,test1,2,1.131811999999627,-48.0
22,lhm,f,19,r,1,(1.0544208940658713e-14, 172.20000000000002),23,-25,14,yes,x,5,x,0.535018300000047,1,20,test1,2,0.5351333999997223,-70.0
22,lhm,f,19,r,1,(-121.76378772032352, -121.76378772032348),26,-5,12,yes,x,5,x,1.0318035000000236,1,21,test1,2,1.0319666000004872,-50.0
22,lhm,f,19,r,1,(121.76378772032349, 121.76378772032349),22,-5,12,no,m,6,m,1.11950539999998,1,22,test1,2,1.1199907999998686,-50.0
22,lhm,f,19,r,1,(-121.76378772032348, 121.76378772032349),24,-3,11,yes,x,5,m,1.0142785999996704,0,23,test1,2,1.014600900000005,-48.0
22,lhm,f,19,r,1,(1.0544208940658713e-14, 172.20000000000002),23,-7,13,yes,x,5,x,0.6008264000001873,1,24,test1,2,0.601044500000171,-52.0
22,lhm,f,19,r,1,(1.0544208940658713e-14, 172.20000000000002),23,7,3,no,m,6,m,1.4586647999994966,1,25,test1,2,1.4587994000003164,-52.0
22,lhm,f,19,r,1,(121.76378772032349, 121.76378772032349),22,3,1,yes,x,5,x,0.6645494000003964,1,26,test1,2,0.6649655000001076,-42.0
22,lhm,f,19,r,1,(-172.20000000000002, 2.1088417881317425e-14),25,-5,12,yes,x,5,x,1.0653707999999824,1,27,test1,2,1.0656685000003563,-50.0
22,lhm,f,19,r,1,(172.20000000000002, 0.0),21,-5,12,yes,x,5,x,0.6154619999997522,1,28,test1,2,0.615665600000284,-50.0
22,lhm,f,19,r,1,(-121.76378772032348, 121.76378772032349),24,3,1,no,m,6,m,1.2528540000002977,1,29,test1,2,1.2530324999997902,-50.0
22,lhm,f,19,r,1,(121.76378772032349, 121.76378772032349),22,7,3,no,m,6,m,1.0971808000003875,1,30,test1,2,1.097284700000273,-50.0
22,lhm,f,19,r,1,(121.76378772032346, -121.76378772032352),28,-5,12,no,m,6,m,1.4584779000006165,1,31,test1,2,1.4588459999995393,-50.0
22,lhm,f,19,r,1,(-172.20000000000002, 2.1088417881317425e-14),25,-3,11,yes,x,5,x,0.9456484000002092,1,32,test1,2,0.9457500999997137,-48.0
22,lhm,f,19,r,1,(121.76378772032349, 121.76378772032349),22,-5,12,yes,x,5,x,0.565079699999842,1,33,test1,2,0.5655323000000863,-50.0
22,lhm,f,19,r,1,(121.76378772032349, 121.76378772032349),22,5,2,yes,x,5,x,0.6189076999999088,1,34,test1,2,0.6191457000004448,-40.0
22,lhm,f,19,r,1,(121.76378772032346, -121.76378772032352),28,-3,11,yes,x,5,m,1.3470792999996775,0,35,test1,2,1.3474317999998675,-48.0
22,lhm,f,19,r,1,(1.0544208940658713e-14, 172.20000000000002),23,5,2,no,m,6,m,1.7128137999998216,1,36,test1,2,1.7129157999997915,-48.0
22,lhm,f,19,r,1,(-172.20000000000002, 2.1088417881317425e-14),25,5,2,yes,x,5,x,0.7283274999999776,1,37,test1,2,0.7285686000004716,-40.0
22,lhm,f,19,r,1,(121.76378772032346, -121.76378772032352),28,25,4,no,m,6,m,1.020687799999905,1,38,test1,2,1.020789799999875,-40.0
22,lhm,f,19,r,1,(1.0544208940658713e-14, 172.20000000000002),23,-7,13,no,m,6,m,1.4215801999998803,1,39,test1,2,1.4217147999997906,-40.0
22,lhm,f,19,r,1,(-121.76378772032348, 121.76378772032349),24,-7,13,no,m,6,m,1.1565424000000348,1,40,test1,2,1.1567802999998094,-40.0
22,lhm,f,19,r,1,(-3.163262682197613e-14, -172.20000000000002),27,25,4,no,m,6,m,1.0655854999995427,1,41,test1,2,1.065790399999969,-40.0
22,lhm,f,19,r,1,(-121.76378772032348, 121.76378772032349),24,-25,14,yes,x,5,x,0.6131019000004017,1,42,test1,2,0.6132603999994899,-70.0
22,lhm,f,19,r,1,(172.20000000000002, 0.0),21,25,4,yes,x,5,x,0.4915067000001727,1,43,test1,2,0.49164660000042204,-20.0
22,lhm,f,19,r,1,(-172.20000000000002, 2.1088417881317425e-14),25,25,4,yes,x,5,x,0.5226827000005869,1,44,test1,2,0.522943199999645,-20.0
22,lhm,f,19,r,1,(1.0544208940658713e-14, 172.20000000000002),23,7,3,yes,x,5,x,0.47882190000018454,1,45,test1,2,0.4789232000002812,-38.0
22,lhm,f,19,r,1,(-121.76378772032348, 121.76378772032349),24,-5,12,yes,x,5,x,0.5878272999998444,1,46,test1,2,0.5879891999993561,-50.0
22,lhm,f,19,r,1,(-3.163262682197613e-14, -172.20000000000002),27,-25,14,yes,x,5,x,0.5295286000000488,1,47,test1,2,0.5300231999999596,-70.0
22,lhm,f,19,r,1,(1.0544208940658713e-14, 172.20000000000002),23,3,1,no,m,6,m,1.4439596000001984,1,48,test1,2,1.4443571000001612,-70.0
22,lhm,f,19,r,1,(-172.20000000000002, 2.1088417881317425e-14),25,-25,14,yes,x,5,x,0.4199654999993072,1,49,test1,2,0.42019150000032823,-70.0
22,lhm,f,19,r,1,(-121.76378772032352, -121.76378772032348),26,7,3,yes,x,5,x,0.8918266999999105,1,50,test1,2,0.8919868999992104,-38.0
22,lhm,f,19,r,1,(1.0544208940658713e-14, 172.20000000000002),23,-7,13,yes,x,5,x,0.6328218999997262,1,51,test1,2,0.6329435999996349,-52.0
22,lhm,f,19,r,1,(-3.163262682197613e-14, -172.20000000000002),27,-25,14,yes,x,5,x,0.4987180999996781,1,52,test1,2,0.49888149999969755,-70.0
22,lhm,f,19,r,1,(1.0544208940658713e-14, 172.20000000000002),23,-5,12,no,m,6,m,0.8681206999999631,1,53,test1,2,0.8682816000000457,-70.0
22,lhm,f,19,r,1,(121.76378772032349, 121.76378772032349),22,-25,14,yes,x,5,x,0.5148551000002044,1,54,test1,2,0.5150900999997248,-70.0
22,lhm,f,19,r,1,(1.0544208940658713e-14, 172.20000000000002),23,5,2,yes,x,5,x,0.7396441999999297,1,55,test1,2,0.7400032000005012,-40.0
22,lhm,f,19,r,1,(-121.76378772032352, -121.76378772032348),26,-3,11,yes,x,5,m,0.8470956999999544,0,56,test1,2,0.8473285000000033,-48.0
22,lhm,f,19,r,1,(121.76378772032349, 121.76378772032349),22,-3,11,no,m,6,m,1.165092000000186,1,57,test1,2,1.1651933000002828,-48.0
22,lhm,f,19,r,1,(-121.76378772032348, 121.76378772032349),24,-3,11,no,m,6,m,1.22427289999996,1,58,test1,2,1.22444059999998,-48.0
22,lhm,f,19,r,1,(-172.20000000000002, 2.1088417881317425e-14),25,-7,13,yes,x,5,x,0.6519886000005499,1,59,test1,2,0.6521481999998286,-52.0
22,lhm,f,19,r,1,(-121.76378772032348, 121.76378772032349),24,7,3,yes,x,5,x,0.5476854999997158,1,60,test1,2,0.5477833000004466,-38.0
22,lhm,f,19,r,1,(-121.76378772032348, 121.76378772032349),24,-25,14,no,m,6,m,1.6195835999997144,1,61,test1,2,1.6200330000001486,-38.0
22,lhm,f,19,r,1,(-121.76378772032352, -121.76378772032348),26,25,4,yes,x,5,x,0.48878659999991214,1,62,test1,2,0.489107000000331,-20.0
22,lhm,f,19,r,1,(-172.20000000000002, 2.1088417881317425e-14),25,-5,12,no,m,6,m,1.0069964000003893,1,63,test1,2,1.0072691999994277,-20.0
22,lhm,f,19,r,1,(-121.76378772032348, 121.76378772032349),24,5,2,yes,x,5,x,0.5623020000002725,1,64,test1,2,0.562424199999441,-40.0
22,lhm,f,19,r,1,(172.20000000000002, 0.0),21,-3,11,no,m,6,m,1.2589499999994587,1,65,test1,2,1.2590755000001081,-40.0
22,lhm,f,19,r,1,(121.76378772032346, -121.76378772032352),28,5,2,yes,x,5,x,1.0210078999998586,1,66,test1,2,1.0214534000006097,-40.0
22,lhm,f,19,r,1,(121.76378772032349, 121.76378772032349),22,25,4,yes,x,5,x,0.5062907999999879,1,67,test1,2,0.506410699999833,-20.0
22,lhm,f,19,r,1,(121.76378772032346, -121.76378772032352),28,-7,13,yes,x,5,x,1.072370900000351,1,68,test1,2,1.0726638999994975,-52.0
22,lhm,f,19,r,1,(-3.163262682197613e-14, -172.20000000000002),27,7,3,yes,x,5,x,0.7540785000001051,1,69,test1,2,0.7543716999998651,-38.0
22,lhm,f,19,r,1,(-3.163262682197613e-14, -172.20000000000002),27,-7,13,yes,x,5,x,0.5775017000005391,1,70,test1,2,0.578037299999778,-52.0
22,lhm,f,19,r,1,(-121.76378772032348, 121.76378772032349),24,-3,11,yes,x,5,m,1.449823799999649,0,71,test1,2,1.4501188999993246,-48.0
22,lhm,f,19,r,1,(121.76378772032346, -121.76378772032352),28,25,4,yes,x,5,x,0.4906387999999424,1,72,test1,2,0.49086540000007517,-20.0
22,lhm,f,19,r,1,(-172.20000000000002, 2.1088417881317425e-14),25,3,1,yes,x,5,x,0.6023720000002868,1,73,test1,2,0.6026608000001943,-42.0
22,lhm,f,19,r,1,(121.76378772032349, 121.76378772032349),22,-25,14,no,m,6,m,1.4677282999991803,1,74,test1,2,1.4678217999999106,-42.0
22,lhm,f,19,r,1,(-3.163262682197613e-14, -172.20000000000002),27,3,1,yes,x,5,x,1.2382815999999366,1,75,test1,2,1.238415700000587,-42.0
22,lhm,f,19,r,1,(121.76378772032349, 121.76378772032349),22,7,3,yes,x,5,x,0.5907592000003206,1,76,test1,2,0.5913874999996551,-38.0
22,lhm,f,19,r,1,(172.20000000000002, 0.0),21,3,1,no,m,6,m,1.2380223000000115,1,77,test1,2,1.2381244999996852,-38.0
22,lhm,f,19,r,1,(121.76378772032349, 121.76378772032349),22,25,4,no,m,6,m,0.88139880000017,1,78,test1,2,0.8815140000006068,-38.0
22,lhm,f,19,r,1,(-121.76378772032352, -121.76378772032348),26,-7,13,yes,x,5,x,0.5107860999996774,1,79,test1,2,0.5110798999994586,-52.0
22,lhm,f,19,r,1,(121.76378772032349, 121.76378772032349),22,-7,13,no,m,6,m,0.861069900000075,1,80,test1,2,0.8615817999998399,-52.0
22,lhm,f,19,r,1,(121.76378772032346, -121.76378772032352),28,3,1,yes,x,5,m,1.041451799999777,0,81,test1,2,1.0415758999997706,-42.0
22,lhm,f,19,r,1,(1.0544208940658713e-14, 172.20000000000002),23,3,1,yes,x,5,x,0.9273592999998073,1,82,test1,2,0.9277007999999114,-42.0
22,lhm,f,19,r,1,(1.0544208940658713e-14, 172.20000000000002),23,-25,14,yes,x,5,x,0.5099740999994538,1,83,test1,2,0.5101125999999567,-70.0
22,lhm,f,19,r,1,(172.20000000000002, 0.0),21,-5,12,no,m,6,m,1.4849488999998357,1,84,test1,2,1.4852882999994108,-70.0
22,lhm,f,19,r,1,(121.76378772032346, -121.76378772032352),28,7,3,yes,x,5,x,0.6225764000000709,1,85,test1,2,0.6226765000001251,-38.0
22,lhm,f,19,r,1,(-3.163262682197613e-14, -172.20000000000002),27,-5,12,yes,x,5,x,1.0393368000004557,1,86,test1,2,1.03944649999994,-50.0
22,lhm,f,19,r,1,(172.20000000000002, 0.0),21,-5,12,yes,x,5,x,0.5671944999994594,1,87,test1,2,0.5673985000003086,-50.0
22,lhm,f,19,r,1,(-172.20000000000002, 2.1088417881317425e-14),25,-5,12,yes,x,5,x,0.6538312000002406,1,88,test1,2,0.6540666000000783,-50.0
22,lhm,f,19,r,1,(-121.76378772032352, -121.76378772032348),26,3,1,no,m,6,m,1.2164867000001323,1,89,test1,2,1.2167008999995232,-50.0
22,lhm,f,19,r,1,(121.76378772032346, -121.76378772032352),28,-5,12,yes,x,5,x,1.0435099999995145,1,90,test1,2,1.0438883999995596,-50.0
22,lhm,f,19,r,1,(-121.76378772032352, -121.76378772032348),26,25,4,no,m,6,m,1.2459737999997742,1,91,test1,2,1.2462820999999167,-50.0
22,lhm,f,19,r,1,(-121.76378772032348, 121.76378772032349),24,5,2,yes,x,5,x,0.5668596999994406,1,92,test1,2,0.5670625000002474,-40.0
22,lhm,f,19,r,1,(1.0544208940658713e-14, 172.20000000000002),23,25,4,no,m,6,m,1.0446124000000054,1,93,test1,2,1.0447173000002294,-40.0
22,lhm,f,19,r,1,(1.0544208940658713e-14, 172.20000000000002),23,-3,11,yes,x,5,x,0.615701299999273,1,94,test1,2,0.6160203999997975,-48.0
22,lhm,f,19,r,1,(172.20000000000002, 0.0),21,7,3,yes,x,5,x,0.5596307999994679,1,95,test1,2,0.5597533000000112,-38.0
22,lhm,f,19,r,1,(172.20000000000002, 0.0),21,-25,14,yes,x,5,x,0.5339524999999412,1,96,test1,2,0.5342734000005294,-70.0
22,lhm,f,19,r,1,(172.20000000000002, 0.0),21,-3,11,yes,x,5,x,0.6832507999997688,1,1,test2,2,0.6834732999996049,-48.0
22,lhm,f,19,r,1,(-121.76378772032352, -121.76378772032348),26,5,2,no,m,6,m,1.0349010999998427,1,2,test2,2,1.0350797999999486,-48.0
22,lhm,f,19,r,1,(172.20000000000002, 0.0),21,25,4,yes,x,5,x,0.4479676000000836,1,3,test2,2,0.44812369999999646,-20.0
22,lhm,f,19,r,1,(-121.76378772032352, -121.76378772032348),26,5,2,yes,x,5,x,0.7888855000001058,1,4,test2,2,0.7890650999997888,-40.0
22,lhm,f,19,r,1,(1.0544208940658713e-14, 172.20000000000002),23,-3,11,yes,x,5,x,0.8439206000002741,1,5,test2,2,0.8440184999999474,-48.0
22,lhm,f,19,r,1,(-3.163262682197613e-14, -172.20000000000002),27,3,1,yes,x,5,x,1.0929391000008764,1,6,test2,2,1.093065099999876,-42.0
22,lhm,f,19,r,1,(1.0544208940658713e-14, 172.20000000000002),23,-25,14,no,m,6,m,1.3606495000003633,1,7,test2,2,1.3607524999997622,-42.0
22,lhm,f,19,r,1,(172.20000000000002, 0.0),21,-7,13,yes,x,5,x,0.5778216999997312,1,8,test2,2,0.5781067999996594,-52.0
22,lhm,f,19,r,1,(-121.76378772032352, -121.76378772032348),26,-5,12,yes,x,5,x,0.6185248000001593,1,9,test2,2,0.6186284999994314,-50.0
22,lhm,f,19,r,1,(121.76378772032346, -121.76378772032352),28,-7,13,no,m,6,m,1.1054281000006085,1,10,test2,2,1.1055970999996134,-50.0
22,lhm,f,19,r,1,(-3.163262682197613e-14, -172.20000000000002),27,-3,11,yes,x,5,x,1.017578500000127,1,11,test2,2,1.017722099999446,-48.0
22,lhm,f,19,r,1,(-121.76378772032352, -121.76378772032348),26,25,4,yes,x,5,x,0.5280523999999787,1,12,test2,2,0.528169600000183,-20.0
22,lhm,f,19,r,1,(-172.20000000000002, 2.1088417881317425e-14),25,7,3,yes,x,5,x,0.5845196000000215,1,13,test2,2,0.584695699999429,-38.0
22,lhm,f,19,r,1,(-121.76378772032348, 121.76378772032349),24,-25,14,yes,x,5,x,0.5023111000000426,1,14,test2,2,0.5024371999998039,-70.0
22,lhm,f,19,r,1,(172.20000000000002, 0.0),21,5,2,yes,x,5,x,1.1981641000002128,1,15,test2,2,1.1982624000002033,-40.0
22,lhm,f,19,r,1,(121.76378772032346, -121.76378772032352),28,-25,14,no,m,6,m,1.019725600000129,1,16,test2,2,1.0200528999994276,-40.0
22,lhm,f,19,r,1,(-121.76378772032352, -121.76378772032348),26,-25,14,yes,x,5,x,0.46532419999948615,1,17,test2,2,0.4655408999997235,-70.0
22,lhm,f,19,r,1,(-3.163262682197613e-14, -172.20000000000002),27,5,2,yes,x,5,x,0.9017763000001651,1,18,test2,2,0.9018758000001981,-40.0
22,lhm,f,19,r,1,(-121.76378772032352, -121.76378772032348),26,5,2,yes,x,5,x,0.903323100000307,1,19,test2,2,0.9035334999998668,-40.0
22,lhm,f,19,r,1,(172.20000000000002, 0.0),21,3,1,yes,x,5,m,1.3498211999994965,0,20,test2,2,1.3499565000001894,-42.0
22,lhm,f,19,r,1,(-121.76378772032352, -121.76378772032348),26,-5,12,no,m,6,m,1.625224800000069,1,21,test2,2,1.625612099999671,-42.0
22,lhm,f,19,r,1,(-121.76378772032352, -121.76378772032348),26,-25,14,no,m,6,m,1.2268605000008392,1,22,test2,2,1.2269940999995015,-42.0
22,lhm,f,19,r,1,(-172.20000000000002, 2.1088417881317425e-14),25,-3,11,yes,x,5,x,0.9739731999998185,1,23,test2,2,0.9740889999993669,-48.0
22,lhm,f,19,r,1,(121.76378772032346, -121.76378772032352),28,3,1,yes,x,5,m,1.5015677000001233,0,24,test2,2,1.501731899999868,-42.0
22,lhm,f,19,r,1,(-121.76378772032348, 121.76378772032349),24,-7,13,yes,x,5,x,0.4992768000001888,1,25,test2,2,0.49959190000026865,-52.0
22,lhm,f,19,r,1,(121.76378772032349, 121.76378772032349),22,25,4,yes,x,5,x,0.44371940000019094,1,26,test2,2,0.44401860000016313,-20.0
22,lhm,f,19,r,1,(1.0544208940658713e-14, 172.20000000000002),23,5,2,yes,x,5,x,0.4816432999996323,1,27,test2,2,0.4821649999994406,-40.0
22,lhm,f,19,r,1,(-172.20000000000002, 2.1088417881317425e-14),25,-7,13,yes,x,5,x,0.5192545999998401,1,28,test2,2,0.5195499000001291,-52.0
22,lhm,f,19,r,1,(-3.163262682197613e-14, -172.20000000000002),27,-3,11,yes,x,5,x,0.7320512999995117,1,29,test2,2,0.7322913999996672,-48.0
22,lhm,f,19,r,1,(-121.76378772032348, 121.76378772032349),24,25,4,no,m,6,None,None,0,30,test2,2,1.9800795000001017,-48.0
22,lhm,f,19,r,1,(121.76378772032349, 121.76378772032349),22,-5,12,yes,x,5,x,0.7215937999999369,1,31,test2,2,0.7219408999999359,-50.0
22,lhm,f,19,r,1,(172.20000000000002, 0.0),21,-7,13,yes,x,5,x,0.5771344999993744,1,32,test2,2,0.5774607000003016,-52.0
22,lhm,f,19,r,1,(121.76378772032349, 121.76378772032349),22,5,2,no,m,6,m,1.4355169999998907,1,33,test2,2,1.4357167999996818,-52.0
22,lhm,f,19,r,1,(1.0544208940658713e-14, 172.20000000000002),23,-5,12,yes,x,5,x,0.6286831000006714,1,34,test2,2,0.6288211999999476,-50.0
22,lhm,f,19,r,1,(-172.20000000000002, 2.1088417881317425e-14),25,3,1,yes,x,5,m,1.377076699999634,0,35,test2,2,1.3772157000003062,-42.0
22,lhm,f,19,r,1,(121.76378772032346, -121.76378772032352),28,-7,13,yes,x,5,x,1.1308670999997048,1,36,test2,2,1.1314142999999603,-52.0
22,lhm,f,19,r,1,(-121.76378772032352, -121.76378772032348),26,7,3,no,m,6,m,1.3019186999999874,1,37,test2,2,1.3020329000000856,-52.0
22,lhm,f,19,r,1,(-3.163262682197613e-14, -172.20000000000002),27,7,3,no,m,6,m,1.5207119999995484,1,38,test2,2,1.5208357999999862,-52.0
22,lhm,f,19,r,1,(172.20000000000002, 0.0),21,-25,14,yes,x,5,x,0.44601609999972425,1,39,test2,2,0.4461490000003323,-70.0
22,lhm,f,19,r,1,(121.76378772032349, 121.76378772032349),22,-3,11,yes,x,5,None,None,0,40,test2,2,1.9801707999995415,-48.0
22,lhm,f,19,r,1,(-3.163262682197613e-14, -172.20000000000002),27,-5,12,no,m,6,m,1.0738917999997284,1,41,test2,2,1.0740390000000843,-48.0
22,lhm,f,19,r,1,(121.76378772032349, 121.76378772032349),22,-3,11,yes,x,5,x,0.9840715000000273,1,42,test2,2,0.9843811000000642,-48.0
22,lhm,f,19,r,1,(-121.76378772032352, -121.76378772032348),26,-25,14,yes,x,5,x,0.46667450000040844,1,43,test2,2,0.4671330000001035,-70.0
22,lhm,f,19,r,1,(1.0544208940658713e-14, 172.20000000000002),23,-3,11,no,m,6,m,0.9129048000004332,1,44,test2,2,0.9130369000004066,-70.0
22,lhm,f,19,r,1,(121.76378772032346, -121.76378772032352),28,5,2,no,m,6,x,1.5387906999994811,0,45,test2,2,1.5390222000005451,-70.0
22,lhm,f,19,r,1,(1.0544208940658713e-14, 172.20000000000002),23,7,3,yes,x,5,x,0.6408133999993879,1,46,test2,2,0.6409402999997837,-38.0
22,lhm,f,19,r,1,(121.76378772032346, -121.76378772032352),28,7,3,yes,x,5,x,0.5858620000008159,1,47,test2,2,0.5859662000002572,-38.0
22,lhm,f,19,r,1,(-121.76378772032348, 121.76378772032349),24,3,1,yes,x,5,x,0.7161112000003413,1,48,test2,2,0.7163394999997763,-42.0
22,lhm,f,19,r,1,(-172.20000000000002, 2.1088417881317425e-14),25,7,3,yes,x,5,x,0.5298886000000493,1,49,test2,2,0.5301168999994843,-38.0
22,lhm,f,19,r,1,(172.20000000000002, 0.0),21,5,2,no,m,6,m,1.6280487999993056,1,50,test2,2,1.6283027999998012,-38.0
22,lhm,f,19,r,1,(-121.76378772032348, 121.76378772032349),24,7,3,yes,x,5,x,0.534627800000635,1,51,test2,2,0.5347843000008652,-38.0
22,lhm,f,19,r,1,(172.20000000000002, 0.0),21,-7,13,no,m,6,x,0.6757917000004454,0,52,test2,2,0.676442599999973,-38.0
22,lhm,f,19,r,1,(172.20000000000002, 0.0),21,25,4,no,m,6,m,1.5755035000001953,1,53,test2,2,1.5757603000001836,-38.0
22,lhm,f,19,r,1,(-172.20000000000002, 2.1088417881317425e-14),25,25,4,yes,x,5,x,0.4205675000002884,1,54,test2,2,0.4206674999995812,-20.0
22,lhm,f,19,r,1,(-172.20000000000002, 2.1088417881317425e-14),25,-7,13,no,m,6,m,1.4237737000003108,1,55,test2,2,1.4241102000005412,-20.0
22,lhm,f,19,r,1,(121.76378772032349, 121.76378772032349),22,3,1,no,m,6,m,1.2800680999998804,1,56,test2,2,1.2804237000000285,-20.0
22,lhm,f,19,r,1,(-121.76378772032352, -121.76378772032348),26,7,3,yes,x,5,x,0.7021600999996735,1,57,test2,2,0.7024443999998766,-38.0
22,lhm,f,19,r,1,(121.76378772032349, 121.76378772032349),22,5,2,yes,x,5,x,0.48305989999971644,1,58,test2,2,0.4833857999992688,-40.0
22,lhm,f,19,r,1,(-172.20000000000002, 2.1088417881317425e-14),25,-3,11,no,m,6,x,1.5928743000004033,0,59,test2,2,1.5933148000003712,-40.0
22,lhm,f,19,r,1,(-3.163262682197613e-14, -172.20000000000002),27,5,2,yes,x,5,x,0.8919482999999673,1,60,test2,2,0.8921682000000146,-40.0
22,lhm,f,19,r,1,(-3.163262682197613e-14, -172.20000000000002),27,-5,12,yes,x,5,x,0.8937695999993593,1,61,test2,2,0.894351099999767,-50.0
22,lhm,f,19,r,1,(-121.76378772032348, 121.76378772032349),24,-7,13,yes,x,5,x,0.5159585999999763,1,62,test2,2,0.5162004000003435,-52.0
22,lhm,f,19,r,1,(-121.76378772032348, 121.76378772032349),24,5,2,no,m,6,m,1.0300978000004761,1,63,test2,2,1.030198799999198,-52.0
22,lhm,f,19,r,1,(-121.76378772032352, -121.76378772032348),26,-7,13,yes,x,5,x,0.5222358000000895,1,64,test2,2,0.5227422999996634,-52.0
22,lhm,f,19,r,1,(121.76378772032346, -121.76378772032352),28,-3,11,no,m,6,m,1.2492085000003499,1,65,test2,2,1.2493241000001944,-52.0
22,lhm,f,19,r,1,(172.20000000000002, 0.0),21,5,2,yes,x,5,x,0.6418890999993891,1,66,test2,2,0.6423577000005025,-40.0
22,lhm,f,19,r,1,(-3.163262682197613e-14, -172.20000000000002),27,3,1,no,m,6,m,0.943574400000216,1,67,test2,2,0.9437952999996924,-40.0
22,lhm,f,19,r,1,(-3.163262682197613e-14, -172.20000000000002),27,-7,13,no,m,6,m,1.1670790999996825,1,68,test2,2,1.167230699999891,-40.0
22,lhm,f,19,r,1,(-121.76378772032352, -121.76378772032348),26,-7,13,no,m,6,m,1.0692778000002363,1,69,test2,2,1.0694837000000916,-40.0
22,lhm,f,19,r,1,(-172.20000000000002, 2.1088417881317425e-14),25,-25,14,yes,x,5,x,0.5083574000000226,1,70,test2,2,0.5085779999999431,-70.0
22,lhm,f,19,r,1,(-121.76378772032352, -121.76378772032348),26,3,1,yes,x,5,x,0.8893318000000363,1,71,test2,2,0.8899919999994381,-42.0
22,lhm,f,19,r,1,(-121.76378772032352, -121.76378772032348),26,-3,11,yes,x,5,x,0.9254837999997108,1,72,test2,2,0.9256086999994295,-48.0
22,lhm,f,19,r,1,(-3.163262682197613e-14, -172.20000000000002),27,-3,11,no,m,6,m,1.3025744999995368,1,73,test2,2,1.3026770999995279,-48.0
22,lhm,f,19,r,1,(121.76378772032346, -121.76378772032352),28,7,3,no,m,6,m,1.0985975000003236,1,74,test2,2,1.0990656999993007,-48.0
22,lhm,f,19,r,1,(121.76378772032346, -121.76378772032352),28,5,2,yes,x,5,x,0.6102754000003188,1,75,test2,2,0.6104238999996596,-40.0
22,lhm,f,19,r,1,(172.20000000000002, 0.0),21,3,1,yes,x,5,m,1.2240082999996957,0,76,test2,2,1.2245037000002412,-42.0
22,lhm,f,19,r,1,(-3.163262682197613e-14, -172.20000000000002),27,25,4,yes,x,5,x,0.5429788000001281,1,77,test2,2,0.5431602999997267,-20.0
22,lhm,f,19,r,1,(1.0544208940658713e-14, 172.20000000000002),23,3,1,yes,x,5,x,0.8352267000000211,1,78,test2,2,0.8353477000000566,-42.0
22,lhm,f,19,r,1,(-172.20000000000002, 2.1088417881317425e-14),25,25,4,no,m,6,m,1.3060365999999703,1,79,test2,2,1.3063535000001139,-42.0
22,lhm,f,19,r,1,(1.0544208940658713e-14, 172.20000000000002),23,-5,12,yes,x,5,x,0.6572496999997384,1,80,test2,2,0.6578856999994969,-50.0
22,lhm,f,19,r,1,(-121.76378772032348, 121.76378772032349),24,-5,12,no,m,6,m,1.3012753000002704,1,81,test2,2,1.3014489000006506,-50.0
22,lhm,f,19,r,1,(-121.76378772032348, 121.76378772032349),24,25,4,yes,x,5,x,0.4656542000002446,1,82,test2,2,0.46579020000081073,-20.0
22,lhm,f,19,r,1,(121.76378772032349, 121.76378772032349),22,7,3,yes,x,5,x,0.5703613000005134,1,83,test2,2,0.5705276000007871,-38.0
22,lhm,f,19,r,1,(-121.76378772032348, 121.76378772032349),24,7,3,no,m,6,m,1.003768200000195,1,84,test2,2,1.0039417000007234,-38.0
22,lhm,f,19,r,1,(-172.20000000000002, 2.1088417881317425e-14),25,-25,14,no,m,6,m,1.120130600000266,1,85,test2,2,1.1206253999998808,-38.0
22,lhm,f,19,r,1,(-172.20000000000002, 2.1088417881317425e-14),25,5,2,yes,x,5,x,0.5847523000002184,1,86,test2,2,0.5850285000005897,-40.0
22,lhm,f,19,r,1,(121.76378772032346, -121.76378772032352),28,-5,12,yes,x,5,x,1.1758931999993365,1,87,test2,2,1.1761230000001888,-50.0
22,lhm,f,19,r,1,(-121.76378772032352, -121.76378772032348),26,3,1,yes,x,5,x,1.2059986000003846,1,88,test2,2,1.2066122000005635,-42.0
22,lhm,f,19,r,1,(121.76378772032346, -121.76378772032352),28,3,1,no,m,6,m,0.9279953999994177,1,89,test2,2,0.9281757999997353,-42.0
22,lhm,f,19,r,1,(-121.76378772032348, 121.76378772032349),24,3,1,yes,x,5,x,0.546758100000261,1,90,test2,2,0.5471408000003066,-42.0
22,lhm,f,19,r,1,(-172.20000000000002, 2.1088417881317425e-14),25,7,3,no,m,6,m,0.9202214000006279,1,91,test2,2,0.920333600000049,-42.0
22,lhm,f,19,r,1,(172.20000000000002, 0.0),21,7,3,no,m,6,m,0.9316687000000456,1,92,test2,2,0.9319520999997621,-42.0
22,lhm,f,19,r,1,(-3.163262682197613e-14, -172.20000000000002),27,-7,13,yes,x,5,x,0.8193004000004294,1,93,test2,2,0.8193946000001233,-52.0
22,lhm,f,19,r,1,(-121.76378772032348, 121.76378772032349),24,-5,12,yes,x,5,x,0.6690410999999585,1,94,test2,2,0.6692106999998941,-50.0
22,lhm,f,19,r,1,(-121.76378772032352, -121.76378772032348),26,-3,11,no,m,6,m,0.911861399999907,1,95,test2,2,0.9119928000000073,-50.0
22,lhm,f,19,r,1,(1.0544208940658713e-14, 172.20000000000002),23,25,4,yes,x,5,x,0.5203864999994039,1,96,test2,2,0.5205264000005627,-20.0
22,lhm,f,19,r,1,(121.76378772032346, -121.76378772032352),28,-25,14,yes,x,5,x,0.5460728999996718,1,1,test1,3,0.5464734000006501,-70.0
22,lhm,f,19,r,1,(121.76378772032349, 121.76378772032349),22,3,1,yes,x,5,x,0.5578078000007736,1,2,test1,3,0.5580918999994537,-42.0
22,lhm,f,19,r,1,(121.76378772032346, -121.76378772032352),28,25,4,yes,x,5,x,0.4362127000003966,1,3,test1,3,0.43634480000037,-20.0
22,lhm,f,19,r,1,(121.76378772032346, -121.76378772032352),28,-25,14,yes,x,5,x,0.46462940000037634,1,4,test1,3,0.46475960000043415,-70.0
22,lhm,f,19,r,1,(-3.163262682197613e-14, -172.20000000000002),27,25,4,yes,x,5,x,0.4463834999996834,1,5,test1,3,0.4465036000001419,-20.0
22,lhm,f,19,r,1,(-121.76378772032348, 121.76378772032349),24,25,4,yes,x,5,x,0.3866940000007162,1,6,test1,3,0.38690090000000055,-20.0
22,lhm,f,19,r,1,(-3.163262682197613e-14, -172.20000000000002),27,-25,14,no,m,6,x,1.4957161000002088,0,7,test1,3,1.4962064999999711,-20.0
22,lhm,f,19,r,1,(-3.163262682197613e-14, -172.20000000000002),27,5,2,no,m,6,m,1.2894935999993322,1,8,test1,3,1.2897923000000446,-20.0
22,lhm,f,19,r,1,(172.20000000000002, 0.0),21,-3,11,yes,x,5,m,1.209577000000536,0,9,test1,3,1.2097026000001279,-48.0
22,lhm,f,19,r,1,(121.76378772032349, 121.76378772032349),22,-25,14,yes,x,5,x,0.5453527999998187,1,10,test1,3,0.5456241000001683,-70.0
22,lhm,f,19,r,1,(121.76378772032349, 121.76378772032349),22,-7,13,yes,x,5,x,0.45219880000058765,1,11,test1,3,0.45236279999971885,-52.0
22,lhm,f,19,r,1,(121.76378772032349, 121.76378772032349),22,-7,13,yes,x,5,x,0.4938017000004038,1,12,test1,3,0.49445139999988896,-52.0
22,lhm,f,19,r,1,(-172.20000000000002, 2.1088417881317425e-14),25,5,2,no,m,6,m,1.388522300000659,1,13,test1,3,1.388745000000199,-52.0
22,lhm,f,19,r,1,(1.0544208940658713e-14, 172.20000000000002),23,25,4,yes,x,5,x,0.5020999999997002,1,14,test1,3,0.5021984000004522,-20.0
22,lhm,f,19,r,1,(172.20000000000002, 0.0),21,-25,14,no,m,6,m,1.338343100000202,1,15,test1,3,1.3385809999999765,-20.0
22,lhm,f,19,r,1,(-3.163262682197613e-14, -172.20000000000002),27,7,3,yes,x,5,x,0.7850750999996308,1,16,test1,3,0.7852163999996264,-38.0
22,lhm,f,19,r,1,(-172.20000000000002, 2.1088417881317425e-14),25,3,1,no,m,6,m,1.2995512999996208,1,17,test1,3,1.2996547000002465,-38.0
22,lhm,f,19,r,1,(172.20000000000002, 0.0),21,7,3,yes,x,5,x,0.8177585000003091,1,18,test1,3,0.8179761000001236,-38.0
22,lhm,f,19,r,1,(121.76378772032346, -121.76378772032352),28,-3,11,yes,x,5,x,1.144710099999429,1,19,test1,3,1.1448119000006045,-48.0
22,lhm,f,19,r,1,(1.0544208940658713e-14, 172.20000000000002),23,-25,14,yes,x,5,x,0.4826833000006445,1,20,test1,3,0.48317039999983535,-70.0
22,lhm,f,19,r,1,(-121.76378772032352, -121.76378772032348),26,-5,12,yes,x,5,x,1.1327422000003935,1,21,test1,3,1.132912199999737,-50.0
22,lhm,f,19,r,1,(121.76378772032349, 121.76378772032349),22,-5,12,no,m,6,x,1.5276598999998896,0,22,test1,3,1.527980299999399,-50.0
22,lhm,f,19,r,1,(-121.76378772032348, 121.76378772032349),24,-3,11,yes,x,5,x,1.0035939999997936,1,23,test1,3,1.0038295000003927,-48.0
22,lhm,f,19,r,1,(1.0544208940658713e-14, 172.20000000000002),23,-7,13,yes,x,5,x,0.5213775000001988,1,24,test1,3,0.5220437999996648,-52.0
22,lhm,f,19,r,1,(1.0544208940658713e-14, 172.20000000000002),23,7,3,no,m,6,m,1.3659342999999353,1,25,test1,3,1.3669092000000092,-52.0
22,lhm,f,19,r,1,(121.76378772032349, 121.76378772032349),22,3,1,yes,x,5,m,1.6718290999997407,0,26,test1,3,1.6719531999997344,-42.0
22,lhm,f,19,r,1,(-172.20000000000002, 2.1088417881317425e-14),25,-5,12,yes,x,5,x,0.6443547999997463,1,27,test1,3,0.6447820000003048,-50.0
22,lhm,f,19,r,1,(172.20000000000002, 0.0),21,-5,12,yes,x,5,x,0.6423064999999042,1,28,test1,3,0.6424341000001732,-50.0
22,lhm,f,19,r,1,(-121.76378772032348, 121.76378772032349),24,3,1,no,m,6,None,None,0,29,test1,3,1.9800965000003998,-50.0
22,lhm,f,19,r,1,(121.76378772032349, 121.76378772032349),22,7,3,no,m,6,m,1.0640997999998945,1,30,test1,3,1.0642300999998042,-50.0
22,lhm,f,19,r,1,(121.76378772032346, -121.76378772032352),28,-5,12,no,m,6,m,1.4762061999999787,1,31,test1,3,1.4767083000006096,-50.0
22,lhm,f,19,r,1,(-172.20000000000002, 2.1088417881317425e-14),25,-3,11,yes,x,5,m,0.7909367000002021,0,32,test1,3,0.7913299000001643,-48.0
22,lhm,f,19,r,1,(121.76378772032349, 121.76378772032349),22,-5,12,yes,x,5,x,0.43253639999966254,1,33,test1,3,0.4328089999999065,-50.0
22,lhm,f,19,r,1,(121.76378772032349, 121.76378772032349),22,5,2,yes,x,5,x,0.5435169000002134,1,34,test1,3,0.5437506999996913,-40.0
22,lhm,f,19,r,1,(121.76378772032346, -121.76378772032352),28,-3,11,yes,x,5,x,1.6965973999995185,1,35,test1,3,1.6967200999988563,-48.0
22,lhm,f,19,r,1,(1.0544208940658713e-14, 172.20000000000002),23,5,2,no,m,6,x,1.3164550999990752,0,36,test1,3,1.3166753000004974,-48.0
22,lhm,f,19,r,1,(-172.20000000000002, 2.1088417881317425e-14),25,5,2,yes,x,5,x,0.7281247999999323,1,37,test1,3,0.7286526999996568,-40.0
22,lhm,f,19,r,1,(121.76378772032346, -121.76378772032352),28,25,4,no,m,6,m,1.200021900000138,1,38,test1,3,1.2002831000008882,-40.0
22,lhm,f,19,r,1,(1.0544208940658713e-14, 172.20000000000002),23,-7,13,no,m,6,m,1.2985919999991893,1,39,test1,3,1.2989109000009194,-40.0
22,lhm,f,19,r,1,(-121.76378772032348, 121.76378772032349),24,-7,13,no,m,6,m,1.206266200000755,1,40,test1,3,1.206371799999033,-40.0
22,lhm,f,19,r,1,(-3.163262682197613e-14, -172.20000000000002),27,25,4,no,m,6,m,1.3621122000004107,1,41,test1,3,1.3622431000003417,-40.0
22,lhm,f,19,r,1,(-121.76378772032348, 121.76378772032349),24,-25,14,yes,x,5,x,0.5287289999996574,1,42,test1,3,0.5288390000005165,-70.0
22,lhm,f,19,r,1,(172.20000000000002, 0.0),21,25,4,yes,x,5,x,0.5340071999999054,1,43,test1,3,0.534466799999791,-20.0
22,lhm,f,19,r,1,(-172.20000000000002, 2.1088417881317425e-14),25,25,4,yes,x,5,x,0.4434249000005366,1,44,test1,3,0.4435260999998718,-20.0
22,lhm,f,19,r,1,(1.0544208940658713e-14, 172.20000000000002),23,7,3,yes,x,5,x,0.5275019000000611,1,45,test1,3,0.5276030000004539,-38.0
22,lhm,f,19,r,1,(-121.76378772032348, 121.76378772032349),24,-5,12,yes,x,5,x,0.5006501999996544,1,46,test1,3,0.5008808999991743,-50.0
22,lhm,f,19,r,1,(-3.163262682197613e-14, -172.20000000000002),27,-25,14,yes,x,5,x,0.5889837000013358,1,47,test1,3,0.5893286999998963,-70.0
22,lhm,f,19,r,1,(1.0544208940658713e-14, 172.20000000000002),23,3,1,no,m,6,m,1.2677693000005092,1,48,test1,3,1.267975299999307,-70.0
22,lhm,f,19,r,1,(-172.20000000000002, 2.1088417881317425e-14),25,-25,14,yes,x,5,x,0.47755210000104853,1,49,test1,3,0.4778777999999875,-70.0
22,lhm,f,19,r,1,(-121.76378772032352, -121.76378772032348),26,7,3,yes,x,5,x,0.5341387999997096,1,50,test1,3,0.5343205999997735,-38.0
22,lhm,f,19,r,1,(1.0544208940658713e-14, 172.20000000000002),23,-7,13,yes,x,5,x,0.5854947999996511,1,51,test1,3,0.5856301999992866,-52.0
22,lhm,f,19,r,1,(-3.163262682197613e-14, -172.20000000000002),27,-25,14,yes,x,5,x,0.6462431999989349,1,52,test1,3,0.6464001999993343,-70.0
22,lhm,f,19,r,1,(1.0544208940658713e-14, 172.20000000000002),23,-5,12,no,m,6,m,1.078562900000179,1,53,test1,3,1.0789991000001464,-70.0
22,lhm,f,19,r,1,(121.76378772032349, 121.76378772032349),22,-25,14,yes,x,5,x,0.5600212000008469,1,54,test1,3,0.5601249999999709,-70.0
22,lhm,f,19,r,1,(1.0544208940658713e-14, 172.20000000000002),23,5,2,yes,x,5,x,0.7676876000004995,1,55,test1,3,0.7679279000003589,-40.0
22,lhm,f,19,r,1,(-121.76378772032352, -121.76378772032348),26,-3,11,yes,x,5,m,1.2299440000006143,0,56,test1,3,1.2301439999991999,-48.0
22,lhm,f,19,r,1,(121.76378772032349, 121.76378772032349),22,-3,11,no,m,6,m,1.0754479999995965,1,57,test1,3,1.0755752000004577,-48.0
22,lhm,f,19,r,1,(-121.76378772032348, 121.76378772032349),24,-3,11,no,m,6,m,1.5305004000001645,1,58,test1,3,1.5307412000001932,-48.0
22,lhm,f,19,r,1,(-172.20000000000002, 2.1088417881317425e-14),25,-7,13,yes,x,5,x,0.5301312000010512,1,59,test1,3,0.5303729999995994,-52.0
22,lhm,f,19,r,1,(-121.76378772032348, 121.76378772032349),24,7,3,yes,x,5,x,0.539844600001743,1,60,test1,3,0.5400647000005847,-38.0
22,lhm,f,19,r,1,(-121.76378772032348, 121.76378772032349),24,-25,14,no,m,6,m,0.8236514999989595,1,61,test1,3,0.823972700000013,-38.0
22,lhm,f,19,r,1,(-121.76378772032352, -121.76378772032348),26,25,4,yes,x,5,x,0.49305350000031467,1,62,test1,3,0.4932726000006369,-20.0
22,lhm,f,19,r,1,(-172.20000000000002, 2.1088417881317425e-14),25,-5,12,no,m,6,m,1.0915507000008802,1,63,test1,3,1.091891599999144,-20.0
22,lhm,f,19,r,1,(-121.76378772032348, 121.76378772032349),24,5,2,yes,x,5,x,0.8166478000002826,1,64,test1,3,0.8167729999986477,-40.0
22,lhm,f,19,r,1,(172.20000000000002, 0.0),21,-3,11,no,m,6,m,1.1406631999998353,1,65,test1,3,1.1408706000001985,-40.0
22,lhm,f,19,r,1,(121.76378772032346, -121.76378772032352),28,5,2,yes,x,5,m,1.0415420000008453,0,66,test1,3,1.0416464000009,-40.0
22,lhm,f,19,r,1,(121.76378772032349, 121.76378772032349),22,25,4,yes,x,5,x,0.49485140000069805,1,67,test1,3,0.49519729999883566,-20.0
22,lhm,f,19,r,1,(121.76378772032346, -121.76378772032352),28,-7,13,yes,x,5,x,0.8682738999996218,1,68,test1,3,0.8684027999988757,-52.0
22,lhm,f,19,r,1,(-3.163262682197613e-14, -172.20000000000002),27,7,3,yes,x,5,x,0.8407081000004837,1,69,test1,3,0.8408092999998189,-38.0
22,lhm,f,19,r,1,(-3.163262682197613e-14, -172.20000000000002),27,-7,13,yes,x,5,x,0.724837400000979,1,70,test1,3,0.7249632000002748,-52.0
22,lhm,f,19,r,1,(-121.76378772032348, 121.76378772032349),24,-3,11,yes,x,5,x,0.975727500001085,1,71,test1,3,0.97595580000052,-48.0
22,lhm,f,19,r,1,(121.76378772032346, -121.76378772032352),28,25,4,yes,x,5,x,0.4893740000006801,1,72,test1,3,0.48954909999883967,-20.0
22,lhm,f,19,r,1,(-172.20000000000002, 2.1088417881317425e-14),25,3,1,yes,x,5,x,0.6248644999996031,1,73,test1,3,0.6249618000001647,-42.0
22,lhm,f,19,r,1,(121.76378772032349, 121.76378772032349),22,-25,14,no,m,6,m,0.8975540999999794,1,74,test1,3,0.8976707000001625,-42.0
22,lhm,f,19,r,1,(-3.163262682197613e-14, -172.20000000000002),27,3,1,yes,x,5,x,1.4901057000006404,1,75,test1,3,1.4904151999999158,-42.0
22,lhm,f,19,r,1,(121.76378772032349, 121.76378772032349),22,7,3,yes,x,5,x,0.7774601000000985,1,76,test1,3,0.7777284000003419,-38.0
22,lhm,f,19,r,1,(172.20000000000002, 0.0),21,3,1,no,m,6,m,0.8789107000011427,1,77,test1,3,0.8790521000009903,-38.0
22,lhm,f,19,r,1,(121.76378772032349, 121.76378772032349),22,25,4,no,m,6,m,1.1152658000009978,1,78,test1,3,1.115383300000758,-38.0
22,lhm,f,19,r,1,(-121.76378772032352, -121.76378772032348),26,-7,13,yes,x,5,x,0.5864097999983642,1,79,test1,3,0.5866416999997455,-52.0
22,lhm,f,19,r,1,(121.76378772032349, 121.76378772032349),22,-7,13,no,m,6,m,0.7217767999991338,1,80,test1,3,0.7220995000006951,-52.0
22,lhm,f,19,r,1,(121.76378772032346, -121.76378772032352),28,3,1,yes,x,5,m,0.9778728000001138,0,81,test1,3,0.9779943999983516,-42.0
22,lhm,f,19,r,1,(1.0544208940658713e-14, 172.20000000000002),23,3,1,yes,x,5,x,1.2878120000004856,1,82,test1,3,1.2880384999989474,-42.0
22,lhm,f,19,r,1,(1.0544208940658713e-14, 172.20000000000002),23,-25,14,yes,x,5,x,0.5198125999995682,1,83,test1,3,0.520106099998884,-70.0
22,lhm,f,19,r,1,(172.20000000000002, 0.0),21,-5,12,no,m,6,m,1.0223583000006329,1,84,test1,3,1.0230238000003737,-70.0
22,lhm,f,19,r,1,(121.76378772032346, -121.76378772032352),28,7,3,yes,x,5,x,0.6474024999988615,1,85,test1,3,0.6475279999995109,-38.0
22,lhm,f,19,r,1,(-3.163262682197613e-14, -172.20000000000002),27,-5,12,yes,x,5,x,1.0249295999983588,1,86,test1,3,1.0250847000006615,-50.0
22,lhm,f,19,r,1,(172.20000000000002, 0.0),21,-5,12,yes,x,5,x,0.6539414999988367,1,87,test1,3,0.6543347999995603,-50.0
22,lhm,f,19,r,1,(-172.20000000000002, 2.1088417881317425e-14),25,-5,12,yes,x,5,x,0.5149712000002182,1,88,test1,3,0.5151139000008698,-50.0
22,lhm,f,19,r,1,(-121.76378772032352, -121.76378772032348),26,3,1,no,m,6,m,1.1301283000011608,1,89,test1,3,1.1307828999997582,-50.0
22,lhm,f,19,r,1,(121.76378772032346, -121.76378772032352),28,-5,12,yes,x,5,x,1.055657799999608,1,90,test1,3,1.0558876999984932,-50.0
22,lhm,f,19,r,1,(-121.76378772032352, -121.76378772032348),26,25,4,no,m,6,m,1.1324461000003794,1,91,test1,3,1.1329101999999693,-50.0
22,lhm,f,19,r,1,(-121.76378772032348, 121.76378772032349),24,5,2,yes,x,5,x,0.5445250000011583,1,92,test1,3,0.5446277999999438,-40.0
22,lhm,f,19,r,1,(1.0544208940658713e-14, 172.20000000000002),23,25,4,no,m,6,m,1.3608152999986487,1,93,test1,3,1.361245100000815,-40.0
22,lhm,f,19,r,1,(1.0544208940658713e-14, 172.20000000000002),23,-3,11,yes,x,5,m,1.2529630000008183,0,94,test1,3,1.2530595999996876,-48.0
22,lhm,f,19,r,1,(172.20000000000002, 0.0),21,7,3,yes,x,5,x,0.5559458999996423,1,95,test1,3,0.5562195999991673,-38.0
22,lhm,f,19,r,1,(172.20000000000002, 0.0),21,-25,14,yes,x,5,x,0.5266735999994125,1,96,test1,3,0.527090200001112,-70.0
22,lhm,f,19,r,1,(172.20000000000002, 0.0),21,-3,11,yes,x,5,x,0.570976700000756,1,1,test2,3,0.5710834000001341,-48.0
22,lhm,f,19,r,1,(-121.76378772032352, -121.76378772032348),26,5,2,no,m,6,m,1.0387059000004228,1,2,test2,3,1.0390707000005932,-48.0
22,lhm,f,19,r,1,(172.20000000000002, 0.0),21,25,4,yes,x,5,x,0.4452285999996093,1,3,test2,3,0.4458202000005258,-20.0
22,lhm,f,19,r,1,(-121.76378772032352, -121.76378772032348),26,5,2,yes,x,5,x,1.1418496999995114,1,4,test2,3,1.1419488999999885,-40.0
22,lhm,f,19,r,1,(1.0544208940658713e-14, 172.20000000000002),23,-3,11,yes,x,5,x,1.0319295999997848,1,5,test2,3,1.0321565000012924,-48.0
22,lhm,f,19,r,1,(-3.163262682197613e-14, -172.20000000000002),27,3,1,yes,x,5,x,0.5882343000012042,1,6,test2,3,0.5883338000003278,-42.0
22,lhm,f,19,r,1,(1.0544208940658713e-14, 172.20000000000002),23,-25,14,no,m,6,m,0.9762623999995412,1,7,test2,3,0.9763836000001902,-42.0
22,lhm,f,19,r,1,(172.20000000000002, 0.0),21,-7,13,yes,x,5,x,0.5240030000004481,1,8,test2,3,0.5241888000000472,-52.0
22,lhm,f,19,r,1,(-121.76378772032352, -121.76378772032348),26,-5,12,yes,x,5,x,0.6060546000007889,1,9,test2,3,0.6062679999995453,-50.0
22,lhm,f,19,r,1,(121.76378772032346, -121.76378772032352),28,-7,13,no,m,6,x,1.17232519999925,0,10,test2,3,1.1724229999999807,-50.0
22,lhm,f,19,r,1,(-3.163262682197613e-14, -172.20000000000002),27,-3,11,yes,x,5,m,1.1927269999996497,0,11,test2,3,1.1928952999987814,-48.0
22,lhm,f,19,r,1,(-121.76378772032352, -121.76378772032348),26,25,4,yes,x,5,x,0.42643259999931615,1,12,test2,3,0.42697880000014266,-20.0
22,lhm,f,19,r,1,(-172.20000000000002, 2.1088417881317425e-14),25,7,3,yes,x,5,x,0.5665536999986216,1,13,test2,3,0.5667598999989423,-38.0
22,lhm,f,19,r,1,(-121.76378772032348, 121.76378772032349),24,-25,14,yes,x,5,x,0.44203809999999066,1,14,test2,3,0.44235680000019784,-70.0
22,lhm,f,19,r,1,(172.20000000000002, 0.0),21,5,2,yes,x,5,x,0.4929880999989109,1,15,test2,3,0.49311260000104085,-40.0
22,lhm,f,19,r,1,(121.76378772032346, -121.76378772032352),28,-25,14,no,m,6,m,1.1643319000013435,1,16,test2,3,1.1646937000004982,-40.0
22,lhm,f,19,r,1,(-121.76378772032352, -121.76378772032348),26,-25,14,yes,x,5,x,0.44967949999954726,1,17,test2,3,0.44982920000074955,-70.0
22,lhm,f,19,r,1,(-3.163262682197613e-14, -172.20000000000002),27,5,2,yes,x,5,x,1.0607460999999603,1,18,test2,3,1.0608725000001868,-40.0
22,lhm,f,19,r,1,(-121.76378772032352, -121.76378772032348),26,5,2,yes,x,5,x,0.7473970000010013,1,19,test2,3,0.7475480000011885,-40.0
22,lhm,f,19,r,1,(172.20000000000002, 0.0),21,3,1,yes,x,5,x,0.8168641999982356,1,20,test2,3,0.8171339000000444,-42.0
22,lhm,f,19,r,1,(-121.76378772032352, -121.76378772032348),26,-5,12,no,m,6,m,1.207556299999851,1,21,test2,3,1.2076844000002893,-42.0
22,lhm,f,19,r,1,(-121.76378772032352, -121.76378772032348),26,-25,14,no,m,6,m,0.9202889000007417,1,22,test2,3,0.9205967999987479,-42.0
22,lhm,f,19,r,1,(-172.20000000000002, 2.1088417881317425e-14),25,-3,11,yes,x,5,x,0.7458153999996284,1,23,test2,3,0.7459373000001506,-48.0
22,lhm,f,19,r,1,(121.76378772032346, -121.76378772032352),28,3,1,yes,x,5,m,0.8376459999999497,0,24,test2,3,0.8379082000010385,-42.0
22,lhm,f,19,r,1,(-121.76378772032348, 121.76378772032349),24,-7,13,yes,x,5,x,0.48498060000019905,1,25,test2,3,0.4854720000002999,-52.0
22,lhm,f,19,r,1,(121.76378772032349, 121.76378772032349),22,25,4,yes,x,5,x,0.48208060000069963,1,26,test2,3,0.4822401000001264,-20.0
22,lhm,f,19,r,1,(1.0544208940658713e-14, 172.20000000000002),23,5,2,yes,x,5,x,0.7964869999996154,1,27,test2,3,0.7967275999999401,-40.0
22,lhm,f,19,r,1,(-172.20000000000002, 2.1088417881317425e-14),25,-7,13,yes,x,5,x,0.40928399999938847,1,28,test2,3,0.4096810999999434,-52.0
22,lhm,f,19,r,1,(-3.163262682197613e-14, -172.20000000000002),27,-3,11,yes,x,5,m,0.9821531000015966,0,29,test2,3,0.9830880999998044,-48.0
22,lhm,f,19,r,1,(-121.76378772032348, 121.76378772032349),24,25,4,no,m,6,m,1.546627299998363,1,30,test2,3,1.5468498000009276,-48.0
22,lhm,f,19,r,1,(121.76378772032349, 121.76378772032349),22,-5,12,yes,x,5,x,0.7578855000010662,1,31,test2,3,0.7584900000001653,-50.0
22,lhm,f,19,r,1,(172.20000000000002, 0.0),21,-7,13,yes,x,5,x,0.4999817999996594,1,32,test2,3,0.500373099999706,-52.0
22,lhm,f,19,r,1,(121.76378772032349, 121.76378772032349),22,5,2,no,m,6,m,1.1971604000009393,1,33,test2,3,1.1973849999994854,-52.0
22,lhm,f,19,r,1,(1.0544208940658713e-14, 172.20000000000002),23,-5,12,yes,x,5,x,0.6183507000005193,1,34,test2,3,0.6187207000002672,-50.0
22,lhm,f,19,r,1,(-172.20000000000002, 2.1088417881317425e-14),25,3,1,yes,x,5,m,1.1572446000009222,0,35,test2,3,1.1574868000006973,-42.0
22,lhm,f,19,r,1,(121.76378772032346, -121.76378772032352),28,-7,13,yes,x,5,x,1.0147799999995186,1,36,test2,3,1.0150703999988764,-52.0
22,lhm,f,19,r,1,(-121.76378772032352, -121.76378772032348),26,7,3,no,m,6,m,1.1163309999992634,1,37,test2,3,1.116483199999493,-52.0
22,lhm,f,19,r,1,(-3.163262682197613e-14, -172.20000000000002),27,7,3,no,m,6,m,1.166842099999485,1,38,test2,3,1.1671251000007032,-52.0
22,lhm,f,19,r,1,(172.20000000000002, 0.0),21,-25,14,yes,x,5,x,0.5602429000009579,1,39,test2,3,0.5604108000006818,-70.0
22,lhm,f,19,r,1,(121.76378772032349, 121.76378772032349),22,-3,11,yes,x,5,x,0.6004917999998725,1,40,test2,3,0.6008990999998787,-48.0
22,lhm,f,19,r,1,(-3.163262682197613e-14, -172.20000000000002),27,-5,12,no,m,6,m,1.1873216000003595,1,41,test2,3,1.1880039000006946,-48.0
22,lhm,f,19,r,1,(121.76378772032349, 121.76378772032349),22,-3,11,yes,x,5,x,0.7281896000004053,1,42,test2,3,0.7284106999995856,-48.0
22,lhm,f,19,r,1,(-121.76378772032352, -121.76378772032348),26,-25,14,yes,x,5,x,0.46259199999985867,1,43,test2,3,0.46270689999983006,-70.0
22,lhm,f,19,r,1,(1.0544208940658713e-14, 172.20000000000002),23,-3,11,no,m,6,m,0.9876504000003479,1,44,test2,3,0.9883858999983204,-70.0
22,lhm,f,19,r,1,(121.76378772032346, -121.76378772032352),28,5,2,no,m,6,m,0.9556666999997105,1,45,test2,3,0.9557637999987492,-70.0
22,lhm,f,19,r,1,(1.0544208940658713e-14, 172.20000000000002),23,7,3,yes,x,5,x,0.5338678000007349,1,46,test2,3,0.5339890000013838,-38.0
22,lhm,f,19,r,1,(121.76378772032346, -121.76378772032352),28,7,3,yes,x,5,x,0.8607159000002866,1,47,test2,3,0.8608272000001307,-38.0
22,lhm,f,19,r,1,(-121.76378772032348, 121.76378772032349),24,3,1,yes,x,5,m,0.8823186999998143,0,48,test2,3,0.8824499000002106,-42.0
22,lhm,f,19,r,1,(-172.20000000000002, 2.1088417881317425e-14),25,7,3,yes,x,5,x,0.47853140000006533,1,49,test2,3,0.47863560000041616,-38.0
22,lhm,f,19,r,1,(172.20000000000002, 0.0),21,5,2,no,m,6,m,0.9887701000006928,1,50,test2,3,0.9891733000004024,-38.0
22,lhm,f,19,r,1,(-121.76378772032348, 121.76378772032349),24,7,3,yes,x,5,x,0.47534989999985555,1,51,test2,3,0.4756184999987454,-38.0
22,lhm,f,19,r,1,(172.20000000000002, 0.0),21,-7,13,no,m,6,m,1.0113039999996545,1,52,test2,3,1.0114579000000958,-38.0
22,lhm,f,19,r,1,(172.20000000000002, 0.0),21,25,4,no,m,6,m,1.0708491999994294,1,53,test2,3,1.0712862999989738,-38.0
22,lhm,f,19,r,1,(-172.20000000000002, 2.1088417881317425e-14),25,25,4,yes,x,5,x,0.4564824999997654,1,54,test2,3,0.4565887000007933,-20.0
22,lhm,f,19,r,1,(-172.20000000000002, 2.1088417881317425e-14),25,-7,13,no,m,6,m,0.7237530000002153,1,55,test2,3,0.7239198000006581,-20.0
22,lhm,f,19,r,1,(121.76378772032349, 121.76378772032349),22,3,1,no,m,6,m,0.9346613000016077,1,56,test2,3,0.9348924999994779,-20.0
22,lhm,f,19,r,1,(-121.76378772032352, -121.76378772032348),26,7,3,yes,x,5,x,0.642199799998707,1,57,test2,3,0.6424979000003077,-38.0
22,lhm,f,19,r,1,(121.76378772032349, 121.76378772032349),22,5,2,yes,x,5,x,0.9020908999991661,1,58,test2,3,0.9026544999996986,-40.0
22,lhm,f,19,r,1,(-172.20000000000002, 2.1088417881317425e-14),25,-3,11,no,m,6,m,0.9475187000007281,1,59,test2,3,0.94780449999962,-40.0
22,lhm,f,19,r,1,(-3.163262682197613e-14, -172.20000000000002),27,5,2,yes,x,5,x,0.9448083000006591,1,60,test2,3,0.9451446000002761,-40.0
22,lhm,f,19,r,1,(-3.163262682197613e-14, -172.20000000000002),27,-5,12,yes,x,5,x,0.8087376000003133,1,61,test2,3,0.8090240000001359,-50.0
22,lhm,f,19,r,1,(-121.76378772032348, 121.76378772032349),24,-7,13,yes,x,5,x,0.5203091000003042,1,62,test2,3,0.5204673999996885,-52.0
22,lhm,f,19,r,1,(-121.76378772032348, 121.76378772032349),24,5,2,no,m,6,m,0.7712856999987707,1,63,test2,3,0.7714123999994627,-52.0
22,lhm,f,19,r,1,(-121.76378772032352, -121.76378772032348),26,-7,13,yes,x,5,x,0.5430505000003905,1,64,test2,3,0.5435707999986334,-52.0
22,lhm,f,19,r,1,(121.76378772032346, -121.76378772032352),28,-3,11,no,m,6,m,1.1221946999994543,1,65,test2,3,1.1223540999999386,-52.0
22,lhm,f,19,r,1,(172.20000000000002, 0.0),21,5,2,yes,x,5,x,0.8081583000002865,1,66,test2,3,0.8085427999994863,-40.0
22,lhm,f,19,r,1,(-3.163262682197613e-14, -172.20000000000002),27,3,1,no,m,6,m,0.7698890000010579,1,67,test2,3,0.7702678000005108,-40.0
22,lhm,f,19,r,1,(-3.163262682197613e-14, -172.20000000000002),27,-7,13,no,m,6,m,0.7015814000005776,1,68,test2,3,0.701730700000553,-40.0
22,lhm,f,19,r,1,(-121.76378772032352, -121.76378772032348),26,-7,13,no,m,6,m,0.6147462999997515,1,69,test2,3,0.6148936999998114,-40.0
22,lhm,f,19,r,1,(-172.20000000000002, 2.1088417881317425e-14),25,-25,14,yes,x,5,x,0.4640442999989318,1,70,test2,3,0.46415589999924123,-70.0
22,lhm,f,19,r,1,(-121.76378772032352, -121.76378772032348),26,3,1,yes,x,5,x,1.0805927999990672,1,71,test2,3,1.0807378999998036,-42.0
22,lhm,f,19,r,1,(-121.76378772032352, -121.76378772032348),26,-3,11,yes,x,5,m,0.8678230999994412,0,72,test2,3,0.8681066999997711,-48.0
22,lhm,f,19,r,1,(-3.163262682197613e-14, -172.20000000000002),27,-3,11,no,m,6,m,0.8772236000004341,1,73,test2,3,0.8774630999996589,-48.0
22,lhm,f,19,r,1,(121.76378772032346, -121.76378772032352),28,7,3,no,m,6,m,0.854357500000333,1,74,test2,3,0.8546623000002,-48.0
22,lhm,f,19,r,1,(121.76378772032346, -121.76378772032352),28,5,2,yes,x,5,x,0.8651802000003954,1,75,test2,3,0.8654944999998406,-40.0
22,lhm,f,19,r,1,(172.20000000000002, 0.0),21,3,1,yes,x,5,x,0.8073731000004045,1,76,test2,3,0.8076866999999766,-42.0
22,lhm,f,19,r,1,(-3.163262682197613e-14, -172.20000000000002),27,25,4,yes,x,5,x,0.5086826000006113,1,77,test2,3,0.5094611000004079,-20.0
22,lhm,f,19,r,1,(1.0544208940658713e-14, 172.20000000000002),23,3,1,yes,x,5,m,1.007059900000968,0,78,test2,3,1.0073001000000659,-42.0
22,lhm,f,19,r,1,(-172.20000000000002, 2.1088417881317425e-14),25,25,4,no,m,6,m,0.8242728999994142,1,79,test2,3,0.8243723999985377,-42.0
22,lhm,f,19,r,1,(1.0544208940658713e-14, 172.20000000000002),23,-5,12,yes,x,5,x,0.676109500000166,1,80,test2,3,0.6764074000002438,-50.0
22,lhm,f,19,r,1,(-121.76378772032348, 121.76378772032349),24,-5,12,no,m,6,m,1.088586600000781,1,81,test2,3,1.0887146999994002,-50.0
22,lhm,f,19,r,1,(-121.76378772032348, 121.76378772032349),24,25,4,yes,x,5,x,0.441215299999385,1,82,test2,3,0.44142809999902966,-20.0
22,lhm,f,19,r,1,(121.76378772032349, 121.76378772032349),22,7,3,yes,x,5,x,0.5693387999999686,1,83,test2,3,0.5695720000003348,-38.0
22,lhm,f,19,r,1,(-121.76378772032348, 121.76378772032349),24,7,3,no,m,6,m,0.9651725000003353,1,84,test2,3,0.9655043000002479,-38.0
22,lhm,f,19,r,1,(-172.20000000000002, 2.1088417881317425e-14),25,-25,14,no,m,6,m,0.8857792999988305,1,85,test2,3,0.8858791999991809,-38.0
22,lhm,f,19,r,1,(-172.20000000000002, 2.1088417881317425e-14),25,5,2,yes,x,5,x,0.4965913999985787,1,86,test2,3,0.49669600000015635,-40.0
22,lhm,f,19,r,1,(121.76378772032346, -121.76378772032352),28,-5,12,yes,x,5,m,1.0386364000005415,0,87,test2,3,1.038743600000089,-50.0
22,lhm,f,19,r,1,(-121.76378772032352, -121.76378772032348),26,3,1,yes,x,5,m,0.7383411999999225,0,88,test2,3,0.7385837000001629,-42.0
22,lhm,f,19,r,1,(121.76378772032346, -121.76378772032352),28,3,1,no,m,6,m,1.6822913000014523,1,89,test2,3,1.682523700001184,-42.0
22,lhm,f,19,r,1,(-121.76378772032348, 121.76378772032349),24,3,1,yes,x,5,x,0.6317561999985628,1,90,test2,3,0.6319708000009996,-42.0
22,lhm,f,19,r,1,(-172.20000000000002, 2.1088417881317425e-14),25,7,3,no,m,6,m,0.5035179999995307,1,91,test2,3,0.5038079999994807,-42.0
22,lhm,f,19,r,1,(172.20000000000002, 0.0),21,7,3,no,m,6,m,1.4027587000000494,1,92,test2,3,1.402888200000234,-42.0
22,lhm,f,19,r,1,(-3.163262682197613e-14, -172.20000000000002),27,-7,13,yes,x,5,x,0.725762100000793,1,93,test2,3,0.7261199999993551,-52.0
22,lhm,f,19,r,1,(-121.76378772032348, 121.76378772032349),24,-5,12,yes,x,5,x,0.4820555999995122,1,94,test2,3,0.4826505000000907,-50.0
22,lhm,f,19,r,1,(-121.76378772032352, -121.76378772032348),26,-3,11,no,m,6,m,1.1780497999989166,1,95,test2,3,1.1787300999985746,-50.0
22,lhm,f,19,r,1,(1.0544208940658713e-14, 172.20000000000002),23,25,4,yes,x,5,x,0.507361400001173,1,96,test2,3,0.5075723999998445,-20.0
22,lhm,f,19,r,1,(121.76378772032346, -121.76378772032352),28,-25,14,yes,x,5,x,0.4351531000011164,1,1,test1,4,0.43573689999902854,-70.0
22,lhm,f,19,r,1,(121.76378772032349, 121.76378772032349),22,3,1,yes,x,5,x,1.0003010000000359,1,2,test1,4,1.0005338999999367,-42.0
22,lhm,f,19,r,1,(121.76378772032346, -121.76378772032352),28,25,4,yes,x,5,x,0.46428840000044147,1,3,test1,4,0.46440330000041286,-20.0
22,lhm,f,19,r,1,(121.76378772032346, -121.76378772032352),28,-25,14,yes,x,5,x,0.5041779999992286,1,4,test1,4,0.5044249999991735,-70.0
22,lhm,f,19,r,1,(-3.163262682197613e-14, -172.20000000000002),27,25,4,yes,x,5,x,0.44448709999960556,1,5,test1,4,0.4446391000001313,-20.0
22,lhm,f,19,r,1,(-121.76378772032348, 121.76378772032349),24,25,4,yes,x,5,x,0.4718362999992678,1,6,test1,4,0.4719675999986066,-20.0
22,lhm,f,19,r,1,(-3.163262682197613e-14, -172.20000000000002),27,-25,14,no,m,6,m,1.2413519999990967,1,7,test1,4,1.2414752000004228,-20.0
22,lhm,f,19,r,1,(-3.163262682197613e-14, -172.20000000000002),27,5,2,no,m,6,m,1.0713728999999148,1,8,test1,4,1.0714809000000969,-20.0
22,lhm,f,19,r,1,(172.20000000000002, 0.0),21,-3,11,yes,x,5,x,0.7213514000013674,1,9,test1,4,0.7218161000000691,-48.0
22,lhm,f,19,r,1,(121.76378772032349, 121.76378772032349),22,-25,14,yes,x,5,x,0.5286453000007896,1,10,test1,4,0.5287439999992785,-70.0
22,lhm,f,19,r,1,(121.76378772032349, 121.76378772032349),22,-7,13,yes,x,5,x,0.5658435000004829,1,11,test1,4,0.566060600000128,-52.0
22,lhm,f,19,r,1,(121.76378772032349, 121.76378772032349),22,-7,13,yes,x,5,x,0.45584299999973155,1,12,test1,4,0.45624409999982163,-52.0
22,lhm,f,19,r,1,(-172.20000000000002, 2.1088417881317425e-14),25,5,2,no,m,6,m,0.9613644000000932,1,13,test1,4,0.9614925999994739,-52.0
22,lhm,f,19,r,1,(1.0544208940658713e-14, 172.20000000000002),23,25,4,yes,x,5,x,0.39305919999969774,1,14,test1,4,0.3933003000001918,-20.0
22,lhm,f,19,r,1,(172.20000000000002, 0.0),21,-25,14,no,m,6,m,1.2138969999996334,1,15,test1,4,1.2141019000009692,-20.0
22,lhm,f,19,r,1,(-3.163262682197613e-14, -172.20000000000002),27,7,3,yes,x,5,x,0.727416899999298,1,16,test1,4,0.7276471999994101,-38.0
22,lhm,f,19,r,1,(-172.20000000000002, 2.1088417881317425e-14),25,3,1,no,m,6,m,0.7574488999998721,1,17,test1,4,0.7576724000009563,-38.0
22,lhm,f,19,r,1,(172.20000000000002, 0.0),21,7,3,yes,x,5,x,0.5124085000006744,1,18,test1,4,0.5125344999996742,-38.0
22,lhm,f,19,r,1,(121.76378772032346, -121.76378772032352),28,-3,11,yes,x,5,m,0.7488623000008374,0,19,test1,4,0.7493240000003425,-48.0
22,lhm,f,19,r,1,(1.0544208940658713e-14, 172.20000000000002),23,-25,14,yes,x,5,x,0.49680199999966135,1,20,test1,4,0.4968986000003497,-70.0
22,lhm,f,19,r,1,(-121.76378772032352, -121.76378772032348),26,-5,12,yes,x,5,x,0.5717199000009714,1,21,test1,4,0.571944600000279,-50.0
22,lhm,f,19,r,1,(121.76378772032349, 121.76378772032349),22,-5,12,no,m,6,m,0.964848499999789,1,22,test1,4,0.9650344000001496,-50.0
22,lhm,f,19,r,1,(-121.76378772032348, 121.76378772032349),24,-3,11,yes,x,5,m,1.3959887999990315,0,23,test1,4,1.3961543000004895,-48.0
22,lhm,f,19,r,1,(1.0544208940658713e-14, 172.20000000000002),23,-7,13,yes,x,5,x,0.5409318000001804,1,24,test1,4,0.5414218000005349,-52.0
22,lhm,f,19,r,1,(1.0544208940658713e-14, 172.20000000000002),23,7,3,no,m,6,m,1.1637375000009342,1,25,test1,4,1.1639773999995668,-52.0
22,lhm,f,19,r,1,(121.76378772032349, 121.76378772032349),22,3,1,yes,x,5,x,0.8138611999984278,1,26,test1,4,0.8139654000005976,-42.0
22,lhm,f,19,r,1,(-172.20000000000002, 2.1088417881317425e-14),25,-5,12,yes,x,5,x,0.920655900001293,1,27,test1,4,0.9208939999989525,-50.0
22,lhm,f,19,r,1,(172.20000000000002, 0.0),21,-5,12,yes,x,5,x,0.8213333999992756,1,28,test1,4,0.8214361000009376,-50.0
22,lhm,f,19,r,1,(-121.76378772032348, 121.76378772032349),24,3,1,no,m,6,m,1.0143638999998075,1,29,test1,4,1.014470699999947,-50.0
22,lhm,f,19,r,1,(121.76378772032349, 121.76378772032349),22,7,3,no,m,6,m,1.2181340000006458,1,30,test1,4,1.2186077999995177,-50.0
22,lhm,f,19,r,1,(121.76378772032346, -121.76378772032352),28,-5,12,no,m,6,m,1.0521822000009706,1,31,test1,4,1.0524989000005007,-50.0
22,lhm,f,19,r,1,(-172.20000000000002, 2.1088417881317425e-14),25,-3,11,yes,x,5,x,0.6212828999996418,1,32,test1,4,0.6213840000000346,-48.0
22,lhm,f,19,r,1,(121.76378772032349, 121.76378772032349),22,-5,12,yes,x,5,x,0.5870018000005075,1,33,test1,4,0.5872074999988399,-50.0
22,lhm,f,19,r,1,(121.76378772032349, 121.76378772032349),22,5,2,yes,x,5,x,0.8369093000001158,1,34,test1,4,0.8371351000005234,-40.0
22,lhm,f,19,r,1,(121.76378772032346, -121.76378772032352),28,-3,11,yes,x,5,m,1.1097339000007196,0,35,test1,4,1.1098898999989615,-48.0
22,lhm,f,19,r,1,(1.0544208940658713e-14, 172.20000000000002),23,5,2,no,m,6,m,1.181411699999444,1,36,test1,4,1.1821672000005492,-48.0
22,lhm,f,19,r,1,(-172.20000000000002, 2.1088417881317425e-14),25,5,2,yes,x,5,x,0.5416504000004352,1,37,test1,4,0.5418071000003692,-40.0
22,lhm,f,19,r,1,(121.76378772032346, -121.76378772032352),28,25,4,no,m,6,m,0.9472624999998516,1,38,test1,4,0.9476840000006632,-40.0
22,lhm,f,19,r,1,(1.0544208940658713e-14, 172.20000000000002),23,-7,13,no,m,6,m,0.752422800000204,1,39,test1,4,0.7530456000004051,-40.0
22,lhm,f,19,r,1,(-121.76378772032348, 121.76378772032349),24,-7,13,no,m,6,m,0.9480872000003728,1,40,test1,4,0.948422199999186,-40.0
22,lhm,f,19,r,1,(-3.163262682197613e-14, -172.20000000000002),27,25,4,no,m,6,m,0.7153113000003941,1,41,test1,4,0.7156058000000485,-40.0
22,lhm,f,19,r,1,(-121.76378772032348, 121.76378772032349),24,-25,14,yes,x,5,x,0.4708716999994067,1,42,test1,4,0.4714459999995597,-70.0
22,lhm,f,19,r,1,(172.20000000000002, 0.0),21,25,4,yes,x,5,x,0.5297636000013881,1,43,test1,4,0.5298640000000887,-20.0
22,lhm,f,19,r,1,(-172.20000000000002, 2.1088417881317425e-14),25,25,4,yes,x,5,x,0.44458420000046317,1,44,test1,4,0.44468290000077104,-20.0
22,lhm,f,19,r,1,(1.0544208940658713e-14, 172.20000000000002),23,7,3,yes,x,5,x,0.5129048999988299,1,45,test1,4,0.5130625999991025,-38.0
22,lhm,f,19,r,1,(-121.76378772032348, 121.76378772032349),24,-5,12,yes,x,5,x,0.5280898000000889,1,46,test1,4,0.528595600000699,-50.0
22,lhm,f,19,r,1,(-3.163262682197613e-14, -172.20000000000002),27,-25,14,yes,x,5,x,0.5170766999999614,1,47,test1,4,0.5171907999992982,-70.0
22,lhm,f,19,r,1,(1.0544208940658713e-14, 172.20000000000002),23,3,1,no,m,6,m,0.9355417999995552,1,48,test1,4,0.93591970000125,-70.0
22,lhm,f,19,r,1,(-172.20000000000002, 2.1088417881317425e-14),25,-25,14,yes,x,5,x,0.5047478000014962,1,49,test1,4,0.5052470000009635,-70.0
22,lhm,f,19,r,1,(-121.76378772032352, -121.76378772032348),26,7,3,yes,x,5,x,0.6371316999993724,1,50,test1,4,0.6372304000014992,-38.0
22,lhm,f,19,r,1,(1.0544208940658713e-14, 172.20000000000002),23,-7,13,yes,x,5,x,0.6099353000008705,1,51,test1,4,0.6102594000003592,-52.0
22,lhm,f,19,r,1,(-3.163262682197613e-14, -172.20000000000002),27,-25,14,yes,x,5,x,0.534796699999788,1,52,test1,4,0.5349115000008169,-70.0
22,lhm,f,19,r,1,(1.0544208940658713e-14, 172.20000000000002),23,-5,12,no,m,6,m,1.1069654999992053,1,53,test1,4,1.107091699999728,-70.0
22,lhm,f,19,r,1,(121.76378772032349, 121.76378772032349),22,-25,14,yes,x,5,x,0.5022095000003901,1,54,test1,4,0.5024751999990258,-70.0
22,lhm,f,19,r,1,(1.0544208940658713e-14, 172.20000000000002),23,5,2,yes,x,5,x,0.7708648999996512,1,55,test1,4,0.7709935999992013,-40.0
22,lhm,f,19,r,1,(-121.76378772032352, -121.76378772032348),26,-3,11,yes,x,5,m,1.2594408000004478,0,56,test1,4,1.259663200000432,-48.0
22,lhm,f,19,r,1,(121.76378772032349, 121.76378772032349),22,-3,11,no,m,6,m,0.9207270999995671,1,57,test1,4,0.921029200000703,-48.0
22,lhm,f,19,r,1,(-121.76378772032348, 121.76378772032349),24,-3,11,no,m,6,m,0.9013871999995899,1,58,test1,4,0.9014869000002363,-48.0
22,lhm,f,19,r,1,(-172.20000000000002, 2.1088417881317425e-14),25,-7,13,yes,x,5,x,0.5097576999996818,1,59,test1,4,0.5098825000004581,-52.0
22,lhm,f,19,r,1,(-121.76378772032348, 121.76378772032349),24,7,3,yes,x,5,x,0.560546599999725,1,60,test1,4,0.5606951999998273,-38.0
22,lhm,f,19,r,1,(-121.76378772032348, 121.76378772032349),24,-25,14,no,m,6,m,0.9335425000008399,1,61,test1,4,0.9336994000004779,-38.0
22,lhm,f,19,r,1,(-121.76378772032352, -121.76378772032348),26,25,4,yes,x,5,x,0.47000219999972614,1,62,test1,4,0.47022719999949913,-20.0
22,lhm,f,19,r,1,(-172.20000000000002, 2.1088417881317425e-14),25,-5,12,no,m,6,m,0.8528471999998146,1,63,test1,4,0.8530382000008103,-20.0
22,lhm,f,19,r,1,(-121.76378772032348, 121.76378772032349),24,5,2,yes,x,5,x,0.5202754999991157,1,64,test1,4,0.5208710999995674,-40.0
22,lhm,f,19,r,1,(172.20000000000002, 0.0),21,-3,11,no,m,6,m,0.7218761999993148,1,65,test1,4,0.7221901000011712,-40.0
22,lhm,f,19,r,1,(121.76378772032346, -121.76378772032352),28,5,2,yes,x,5,x,0.7256564999988768,1,66,test1,4,0.7258320999990246,-40.0
22,lhm,f,19,r,1,(121.76378772032349, 121.76378772032349),22,25,4,yes,x,5,x,0.515995899999325,1,67,test1,4,0.5162254000006214,-20.0
22,lhm,f,19,r,1,(121.76378772032346, -121.76378772032352),28,-7,13,yes,x,5,m,0.8318184999989171,0,68,test1,4,0.8320662999994966,-52.0
22,lhm,f,19,r,1,(-3.163262682197613e-14, -172.20000000000002),27,7,3,yes,x,5,x,0.6678812000009202,1,69,test1,4,0.6679802999988169,-38.0
22,lhm,f,19,r,1,(-3.163262682197613e-14, -172.20000000000002),27,-7,13,yes,x,5,x,0.9630420000012236,1,70,test1,4,0.963144100000136,-52.0
22,lhm,f,19,r,1,(-121.76378772032348, 121.76378772032349),24,-3,11,yes,x,5,m,1.0551188000008551,0,71,test1,4,1.0555681999994704,-48.0
22,lhm,f,19,r,1,(121.76378772032346, -121.76378772032352),28,25,4,yes,x,5,x,0.5111324999998033,1,72,test1,4,0.5113416000003781,-20.0
22,lhm,f,19,r,1,(-172.20000000000002, 2.1088417881317425e-14),25,3,1,yes,x,5,x,1.572154400000727,1,73,test1,4,1.5724721999995381,-42.0
22,lhm,f,19,r,1,(121.76378772032349, 121.76378772032349),22,-25,14,no,m,6,m,1.1133308000007673,1,74,test1,4,1.1136163999999553,-42.0
22,lhm,f,19,r,1,(-3.163262682197613e-14, -172.20000000000002),27,3,1,yes,x,5,x,1.2250960000001214,1,75,test1,4,1.225259199998618,-42.0
22,lhm,f,19,r,1,(121.76378772032349, 121.76378772032349),22,7,3,yes,x,5,x,0.5840901999999915,1,76,test1,4,0.584236199998486,-38.0
22,lhm,f,19,r,1,(172.20000000000002, 0.0),21,3,1,no,m,6,m,1.1040198000009696,1,77,test1,4,1.1046429999987595,-38.0
22,lhm,f,19,r,1,(121.76378772032349, 121.76378772032349),22,25,4,no,m,6,m,1.102908999999272,1,78,test1,4,1.1030231000004278,-38.0
22,lhm,f,19,r,1,(-121.76378772032352, -121.76378772032348),26,-7,13,yes,x,5,x,0.5671437000000878,1,79,test1,4,0.5673079999996844,-52.0
22,lhm,f,19,r,1,(121.76378772032349, 121.76378772032349),22,-7,13,no,m,6,m,0.9069928000008076,1,80,test1,4,0.9070938000004389,-52.0
22,lhm,f,19,r,1,(121.76378772032346, -121.76378772032352),28,3,1,yes,x,5,x,0.8049176999993506,1,81,test1,4,0.8050378000007186,-42.0
22,lhm,f,19,r,1,(1.0544208940658713e-14, 172.20000000000002),23,3,1,yes,x,5,x,0.9849106999990909,1,82,test1,4,0.985026199999993,-42.0
22,lhm,f,19,r,1,(1.0544208940658713e-14, 172.20000000000002),23,-25,14,yes,x,5,x,0.5193942000005336,1,83,test1,4,0.5196140999996715,-70.0
22,lhm,f,19,r,1,(172.20000000000002, 0.0),21,-5,12,no,m,6,m,1.0145549000008032,1,84,test1,4,1.0147437999985414,-70.0
22,lhm,f,19,r,1,(121.76378772032346, -121.76378772032352),28,7,3,yes,x,5,x,0.7280688999999256,1,85,test1,4,0.7283196999997017,-38.0
22,lhm,f,19,r,1,(-3.163262682197613e-14, -172.20000000000002),27,-5,12,yes,x,5,x,0.9527714999985619,1,86,test1,4,0.9528867999997601,-50.0
22,lhm,f,19,r,1,(172.20000000000002, 0.0),21,-5,12,yes,x,5,x,0.8225124000000505,1,87,test1,4,0.8229025999989972,-50.0
22,lhm,f,19,r,1,(-172.20000000000002, 2.1088417881317425e-14),25,-5,12,yes,x,5,x,0.690270999999484,1,88,test1,4,0.690895100000489,-50.0
22,lhm,f,19,r,1,(-121.76378772032352, -121.76378772032348),26,3,1,no,m,6,m,0.9893914000003861,1,89,test1,4,0.9896822999999131,-50.0
22,lhm,f,19,r,1,(121.76378772032346, -121.76378772032352),28,-5,12,yes,x,5,x,1.0036393000009411,1,90,test1,4,1.0039142000005086,-50.0
22,lhm,f,19,r,1,(-121.76378772032352, -121.76378772032348),26,25,4,no,m,6,m,0.8965326999987155,1,91,test1,4,0.8967648999987432,-50.0
22,lhm,f,19,r,1,(-121.76378772032348, 121.76378772032349),24,5,2,yes,x,5,x,0.5801355000003241,1,92,test1,4,0.5804038000005676,-40.0
22,lhm,f,19,r,1,(1.0544208940658713e-14, 172.20000000000002),23,25,4,no,m,6,m,0.8529888000011852,1,93,test1,4,0.8531327000000601,-40.0
22,lhm,f,19,r,1,(1.0544208940658713e-14, 172.20000000000002),23,-3,11,yes,x,5,x,0.5411377999989782,1,94,test1,4,0.5417940000006638,-48.0
22,lhm,f,19,r,1,(172.20000000000002, 0.0),21,7,3,yes,x,5,x,0.6806563000009191,1,95,test1,4,0.6808922000000166,-38.0
22,lhm,f,19,r,1,(172.20000000000002, 0.0),21,-25,14,yes,x,5,x,0.5570903000007092,1,96,test1,4,0.5573492999992595,-70.0
22,lhm,f,19,r,1,(172.20000000000002, 0.0),21,-3,11,yes,x,5,m,1.314750899999126,0,1,test2,4,1.3150261999999202,-48.0
22,lhm,f,19,r,1,(-121.76378772032352, -121.76378772032348),26,5,2,no,m,6,m,1.0757905999998911,1,2,test2,4,1.0759192000004987,-48.0
22,lhm,f,19,r,1,(172.20000000000002, 0.0),21,25,4,yes,x,5,x,0.44668839999940246,1,3,test2,4,0.44679120000000694,-20.0
22,lhm,f,19,r,1,(-121.76378772032352, -121.76378772032348),26,5,2,yes,x,5,x,0.7385712000013882,1,4,test2,4,0.7387060000000929,-40.0
22,lhm,f,19,r,1,(1.0544208940658713e-14, 172.20000000000002),23,-3,11,yes,x,5,m,0.9165635999997903,0,5,test2,4,0.9169034000005922,-48.0
22,lhm,f,19,r,1,(-3.163262682197613e-14, -172.20000000000002),27,3,1,yes,x,5,x,0.6913034999997762,1,6,test2,4,0.6916851999994833,-42.0
22,lhm,f,19,r,1,(1.0544208940658713e-14, 172.20000000000002),23,-25,14,no,m,6,m,1.4879132000005484,1,7,test2,4,1.4880345999990823,-42.0
22,lhm,f,19,r,1,(172.20000000000002, 0.0),21,-7,13,yes,x,5,x,0.6982554999995045,1,8,test2,4,0.6984453999994003,-52.0
22,lhm,f,19,r,1,(-121.76378772032352, -121.76378772032348),26,-5,12,yes,x,5,x,0.5217497999983607,1,9,test2,4,0.5221586999996362,-50.0
22,lhm,f,19,r,1,(121.76378772032346, -121.76378772032352),28,-7,13,no,m,6,m,1.0258814999997412,1,10,test2,4,1.0260663999997632,-50.0
22,lhm,f,19,r,1,(-3.163262682197613e-14, -172.20000000000002),27,-3,11,yes,x,5,m,1.223490899999888,0,11,test2,4,1.2238154999995459,-48.0
22,lhm,f,19,r,1,(-121.76378772032352, -121.76378772032348),26,25,4,yes,x,5,x,0.47550049999881594,1,12,test2,4,0.4757969999991474,-20.0
22,lhm,f,19,r,1,(-172.20000000000002, 2.1088417881317425e-14),25,7,3,yes,x,5,x,0.5214156000001822,1,13,test2,4,0.5215936000004149,-38.0
22,lhm,f,19,r,1,(-121.76378772032348, 121.76378772032349),24,-25,14,yes,x,5,x,0.48041509999893606,1,14,test2,4,0.4805425999984436,-70.0
22,lhm,f,19,r,1,(172.20000000000002, 0.0),21,5,2,yes,x,5,x,0.6989756999992096,1,15,test2,4,0.6991049000007479,-40.0
22,lhm,f,19,r,1,(121.76378772032346, -121.76378772032352),28,-25,14,no,m,6,m,1.2843484000004537,1,16,test2,4,1.2844545999996626,-40.0
22,lhm,f,19,r,1,(-121.76378772032352, -121.76378772032348),26,-25,14,yes,x,5,x,0.529002400000536,1,17,test2,4,0.5294744000002538,-70.0
22,lhm,f,19,r,1,(-3.163262682197613e-14, -172.20000000000002),27,5,2,yes,x,5,x,0.9816912999995111,1,18,test2,4,0.9818847000005917,-40.0
22,lhm,f,19,r,1,(-121.76378772032352, -121.76378772032348),26,5,2,yes,x,5,x,0.7849396000001434,1,19,test2,4,0.7851671999997052,-40.0
22,lhm,f,19,r,1,(172.20000000000002, 0.0),21,3,1,yes,x,5,m,1.3193200000005163,0,20,test2,4,1.3195039000001998,-42.0
22,lhm,f,19,r,1,(-121.76378772032352, -121.76378772032348),26,-5,12,no,m,6,m,1.2308010000015202,1,21,test2,4,1.231034099999306,-42.0
22,lhm,f,19,r,1,(-121.76378772032352, -121.76378772032348),26,-25,14,no,m,6,m,0.671123300000545,1,22,test2,4,0.6717944000010903,-42.0
22,lhm,f,19,r,1,(-172.20000000000002, 2.1088417881317425e-14),25,-3,11,yes,x,5,x,0.6955619000000297,1,23,test2,4,0.6957837000009022,-48.0
22,lhm,f,19,r,1,(121.76378772032346, -121.76378772032352),28,3,1,yes,x,5,x,1.2882293999991816,1,24,test2,4,1.2883638000002975,-42.0
22,lhm,f,19,r,1,(-121.76378772032348, 121.76378772032349),24,-7,13,yes,x,5,x,0.5414608999999473,1,25,test2,4,0.5417465999998967,-52.0
22,lhm,f,19,r,1,(121.76378772032349, 121.76378772032349),22,25,4,yes,x,5,x,0.45072369999979855,1,26,test2,4,0.45118750000074215,-20.0
22,lhm,f,19,r,1,(1.0544208940658713e-14, 172.20000000000002),23,5,2,yes,x,5,x,0.6502366999993683,1,27,test2,4,0.6503756000001886,-40.0
22,lhm,f,19,r,1,(-172.20000000000002, 2.1088417881317425e-14),25,-7,13,yes,x,5,x,0.4972341000011511,1,28,test2,4,0.4973974000004091,-52.0
22,lhm,f,19,r,1,(-3.163262682197613e-14, -172.20000000000002),27,-3,11,yes,x,5,x,1.077471800001149,1,29,test2,4,1.07757539999875,-48.0
22,lhm,f,19,r,1,(-121.76378772032348, 121.76378772032349),24,25,4,no,m,6,m,0.7759374000015669,1,30,test2,4,0.7760569999991276,-48.0
22,lhm,f,19,r,1,(121.76378772032349, 121.76378772032349),22,-5,12,yes,x,5,x,0.5870875000000524,1,31,test2,4,0.5871845000001485,-50.0
22,lhm,f,19,r,1,(172.20000000000002, 0.0),21,-7,13,yes,x,5,x,0.6597125999996933,1,32,test2,4,0.6598391999996238,-52.0
22,lhm,f,19,r,1,(121.76378772032349, 121.76378772032349),22,5,2,no,m,6,x,1.263552399999753,0,33,test2,4,1.2639645999988716,-52.0
22,lhm,f,19,r,1,(1.0544208940658713e-14, 172.20000000000002),23,-5,12,yes,x,5,x,0.5728437999987364,1,34,test2,4,0.5734541999991052,-50.0
22,lhm,f,19,r,1,(-172.20000000000002, 2.1088417881317425e-14),25,3,1,yes,x,5,x,1.1558153000005404,1,35,test2,4,1.1559175999991567,-42.0
22,lhm,f,19,r,1,(121.76378772032346, -121.76378772032352),28,-7,13,yes,x,5,x,0.9692382000012003,1,36,test2,4,0.9696005000005243,-52.0
22,lhm,f,19,r,1,(-121.76378772032352, -121.76378772032348),26,7,3,no,m,6,m,1.3704478999989078,1,37,test2,4,1.3706129000001965,-52.0
22,lhm,f,19,r,1,(-3.163262682197613e-14, -172.20000000000002),27,7,3,no,m,6,m,0.9701571999994485,1,38,test2,4,0.9705078999995749,-52.0
22,lhm,f,19,r,1,(172.20000000000002, 0.0),21,-25,14,yes,x,5,x,0.5416316999999253,1,39,test2,4,0.5417906000002404,-70.0
22,lhm,f,19,r,1,(121.76378772032349, 121.76378772032349),22,-3,11,yes,x,5,x,1.8026814000004379,1,40,test2,4,1.8028977000012674,-48.0
22,lhm,f,19,r,1,(-3.163262682197613e-14, -172.20000000000002),27,-5,12,no,m,6,m,0.9968569000011485,1,41,test2,4,0.99695950000023,-48.0
22,lhm,f,19,r,1,(121.76378772032349, 121.76378772032349),22,-3,11,yes,x,5,x,0.8111496000001353,1,42,test2,4,0.8114363000004232,-48.0
22,lhm,f,19,r,1,(-121.76378772032352, -121.76378772032348),26,-25,14,yes,x,5,x,0.41790129999935743,1,43,test2,4,0.4181505999986257,-70.0
22,lhm,f,19,r,1,(1.0544208940658713e-14, 172.20000000000002),23,-3,11,no,m,6,m,0.8313930000003893,1,44,test2,4,0.8317753999999695,-70.0
22,lhm,f,19,r,1,(121.76378772032346, -121.76378772032352),28,5,2,no,m,6,m,0.9878158999999869,1,45,test2,4,0.9881014000002324,-70.0
22,lhm,f,19,r,1,(1.0544208940658713e-14, 172.20000000000002),23,7,3,yes,x,5,x,0.5114026999999624,1,46,test2,4,0.5115024999995512,-38.0
22,lhm,f,19,r,1,(121.76378772032346, -121.76378772032352),28,7,3,yes,x,5,x,0.5411929000001692,1,47,test2,4,0.5416312999986985,-38.0
22,lhm,f,19,r,1,(-121.76378772032348, 121.76378772032349),24,3,1,yes,x,5,x,0.9032760999998573,1,48,test2,4,0.9038051999996242,-42.0
22,lhm,f,19,r,1,(-172.20000000000002, 2.1088417881317425e-14),25,7,3,yes,x,5,x,0.4819177999997919,1,49,test2,4,0.48223009999856004,-38.0
22,lhm,f,19,r,1,(172.20000000000002, 0.0),21,5,2,no,m,6,m,0.9233721000000514,1,50,test2,4,0.9235300000000279,-38.0
22,lhm,f,19,r,1,(-121.76378772032348, 121.76378772032349),24,7,3,yes,x,5,x,0.48967480000101204,1,51,test2,4,0.4899069999992207,-38.0
22,lhm,f,19,r,1,(172.20000000000002, 0.0),21,-7,13,no,m,6,m,0.992373499999303,1,52,test2,4,0.9926421999989543,-38.0
22,lhm,f,19,r,1,(172.20000000000002, 0.0),21,25,4,no,m,6,m,1.144699299999047,1,53,test2,4,1.1448534000010113,-38.0
22,lhm,f,19,r,1,(-172.20000000000002, 2.1088417881317425e-14),25,25,4,yes,x,5,x,0.4455461999987165,1,54,test2,4,0.44583349999993516,-20.0
22,lhm,f,19,r,1,(-172.20000000000002, 2.1088417881317425e-14),25,-7,13,no,m,6,m,0.7014493000006041,1,55,test2,4,0.7016532999987248,-20.0
22,lhm,f,19,r,1,(121.76378772032349, 121.76378772032349),22,3,1,no,m,6,m,0.8880425999996078,1,56,test2,4,0.8884683000014775,-20.0
22,lhm,f,19,r,1,(-121.76378772032352, -121.76378772032348),26,7,3,yes,x,5,x,0.6587265999987721,1,57,test2,4,0.6589466999994329,-38.0
22,lhm,f,19,r,1,(121.76378772032349, 121.76378772032349),22,5,2,yes,x,5,x,0.6688223000001017,1,58,test2,4,0.6690589999998338,-40.0
22,lhm,f,19,r,1,(-172.20000000000002, 2.1088417881317425e-14),25,-3,11,no,m,6,m,0.7719380000016827,1,59,test2,4,0.7723129000005429,-40.0
