subj_id,subj_name,subj_gender ,subj_age,subj_handedness,subj_runNum,tar_l_x,tar_l_y,loc_code,tar_ori,tar_code,tar_pre ,cor_response,pre_code,subj_response,RT,correct,trial_num,type,bloc_num,dur, real_tar
23,lyy,f,22,r,1,(121.76378772032349, 121.76378772032349),22,5,2,yes,x,5,m,0.7171282999916002,0,1,prac,0,0.717328600003384,-40.0
23,lyy,f,22,r,1,(-121.76378772032352, -121.76378772032348),26,5,2,yes,x,5,m,0.779166099964641,0,2,prac,0,0.7792961999075487,-40.0
23,lyy,f,22,r,1,(172.20000000000002, 0.0),21,-3,11,no,m,6,m,1.1153751999372616,1,3,prac,0,1.1155555000295863,-40.0
23,lyy,f,22,r,1,(121.76378772032346, -121.76378772032352),28,-5,12,no,m,6,m,1.0326719000004232,1,4,prac,0,1.0328557000029832,-40.0
23,lyy,f,22,r,1,(172.20000000000002, 0.0),21,3,1,yes,x,5,m,0.7868486000224948,0,5,prac,0,0.786999800009653,-42.0
23,lyy,f,22,r,1,(-172.20000000000002, 2.1088417881317425e-14),25,-3,11,no,m,6,m,1.157439099973999,1,6,prac,0,1.1575362000148743,-42.0
23,lyy,f,22,r,1,(1.0544208940658713e-14, 172.20000000000002),23,3,1,yes,x,5,m,0.9783199999947101,0,7,prac,0,0.9784709999803454,-42.0
23,lyy,f,22,r,1,(121.76378772032349, 121.76378772032349),22,3,1,yes,x,5,m,1.2337015999946743,0,8,prac,0,1.2338252000045031,-42.0
23,lyy,f,22,r,1,(-3.163262682197613e-14, -172.20000000000002),27,25,4,yes,x,5,x,0.5667877999367192,1,9,prac,0,0.566930300090462,-20.0
23,lyy,f,22,r,1,(-172.20000000000002, 2.1088417881317425e-14),25,7,3,yes,x,5,x,0.7356380999553949,1,10,prac,0,0.7358309000264853,-38.0
23,lyy,f,22,r,1,(-172.20000000000002, 2.1088417881317425e-14),25,5,2,yes,x,5,x,0.6727547999471426,1,11,prac,0,0.6729288999922574,-40.0
23,lyy,f,22,r,1,(-121.76378772032348, 121.76378772032349),24,-3,11,yes,x,5,m,0.6601645000046119,0,12,prac,0,0.6603783000027761,-48.0
23,lyy,f,22,r,1,(121.76378772032349, 121.76378772032349),22,7,3,yes,x,5,x,0.8857395999366418,1,13,prac,0,0.8858902000356466,-38.0
23,lyy,f,22,r,1,(-121.76378772032352, -121.76378772032348),26,-5,12,no,m,6,m,1.0030298999045044,1,14,prac,0,1.003243500017561,-38.0
23,lyy,f,22,r,1,(-121.76378772032352, -121.76378772032348),26,-7,13,no,m,6,m,1.1104440999915823,1,15,prac,0,1.1105635999701917,-38.0
23,lyy,f,22,r,1,(-172.20000000000002, 2.1088417881317425e-14),25,3,1,yes,x,5,x,1.0723256000783294,1,16,prac,0,1.0725030000321567,-42.0
23,lyy,f,22,r,1,(-3.163262682197613e-14, -172.20000000000002),27,-3,11,yes,x,5,m,1.1220862999325618,0,17,prac,0,1.1222904999740422,-48.0
23,lyy,f,22,r,1,(-121.76378772032348, 121.76378772032349),24,7,3,no,m,6,m,1.0836041000438854,1,18,prac,0,1.0842640000628307,-48.0
23,lyy,f,22,r,1,(-172.20000000000002, 2.1088417881317425e-14),25,-3,11,yes,x,5,x,1.28930780000519,1,19,prac,0,1.2894836999475956,-48.0
23,lyy,f,22,r,1,(-172.20000000000002, 2.1088417881317425e-14),25,5,2,no,m,6,m,1.0833341999677941,1,20,prac,0,1.0835624999599531,-48.0
23,lyy,f,22,r,1,(-3.163262682197613e-14, -172.20000000000002),27,-5,12,no,m,6,m,0.9663246999261901,1,1,test1,1,0.9664416000014171,-48.0
23,lyy,f,22,r,1,(-121.76378772032348, 121.76378772032349),24,-7,13,no,m,6,m,1.0658157999860123,1,2,test1,1,1.0660656000254676,-48.0
23,lyy,f,22,r,1,(121.76378772032346, -121.76378772032352),28,25,4,yes,x,5,x,0.8426996999187395,1,3,test1,1,0.8428033000091091,-20.0
23,lyy,f,22,r,1,(-121.76378772032348, 121.76378772032349),24,-5,12,yes,x,5,x,0.980409299954772,1,4,test1,1,0.9805167000740767,-50.0
23,lyy,f,22,r,1,(-121.76378772032348, 121.76378772032349),24,5,2,yes,x,5,x,0.880310499924235,1,5,test1,1,0.8806424000067636,-40.0
23,lyy,f,22,r,1,(172.20000000000002, 0.0),21,-5,12,no,m,6,m,1.566715499968268,1,6,test1,1,1.5669240999268368,-40.0
23,lyy,f,22,r,1,(-121.76378772032352, -121.76378772032348),26,-3,11,yes,x,5,m,1.8986913000699133,0,7,test1,1,1.8989132998976856,-48.0
23,lyy,f,22,r,1,(-3.163262682197613e-14, -172.20000000000002),27,3,1,yes,x,5,m,1.4417208000086248,0,8,test1,1,1.4418968999525532,-42.0
23,lyy,f,22,r,1,(121.76378772032346, -121.76378772032352),28,5,2,yes,x,5,x,0.8015235000057146,1,9,test1,1,0.8016269000945613,-40.0
23,lyy,f,22,r,1,(-121.76378772032352, -121.76378772032348),26,-25,14,yes,x,5,x,0.6115660999203101,1,10,test1,1,0.6117308000102639,-70.0
23,lyy,f,22,r,1,(121.76378772032346, -121.76378772032352),28,7,3,yes,x,5,x,0.7202857000520453,1,11,test1,1,0.720411799964495,-38.0
23,lyy,f,22,r,1,(-121.76378772032348, 121.76378772032349),24,-5,12,no,m,6,m,1.601327099953778,1,12,test1,1,1.6018535000039265,-38.0
23,lyy,f,22,r,1,(-121.76378772032348, 121.76378772032349),24,-25,14,yes,x,5,x,0.831664300058037,1,13,test1,1,0.8317663000198081,-70.0
23,lyy,f,22,r,1,(121.76378772032349, 121.76378772032349),22,3,1,yes,x,5,x,0.9364738001022488,1,14,test1,1,0.9367114000488073,-42.0
23,lyy,f,22,r,1,(121.76378772032346, -121.76378772032352),28,25,4,yes,x,5,x,0.5198779000202194,1,15,test1,1,0.5201122999424115,-20.0
23,lyy,f,22,r,1,(172.20000000000002, 0.0),21,-7,13,yes,x,5,x,0.5658708000555634,1,16,test1,1,0.5661782000679523,-52.0
23,lyy,f,22,r,1,(172.20000000000002, 0.0),21,5,2,yes,x,5,x,0.631964199943468,1,17,test1,1,0.6320694999303669,-40.0
23,lyy,f,22,r,1,(172.20000000000002, 0.0),21,25,4,yes,x,5,x,0.4926048000343144,1,18,test1,1,0.4930393999675289,-20.0
23,lyy,f,22,r,1,(1.0544208940658713e-14, 172.20000000000002),23,-25,14,no,m,6,m,1.1672101999865845,1,19,test1,1,1.1673883999465033,-20.0
23,lyy,f,22,r,1,(172.20000000000002, 0.0),21,-7,13,no,m,6,x,1.675687300041318,0,20,test1,1,1.6759234999772161,-20.0
23,lyy,f,22,r,1,(-3.163262682197613e-14, -172.20000000000002),27,-3,11,yes,x,5,x,1.1072303999681026,1,21,test1,1,1.1076791000086814,-48.0
23,lyy,f,22,r,1,(1.0544208940658713e-14, 172.20000000000002),23,-3,11,yes,x,5,x,0.8400426999432966,1,22,test1,1,0.8401945999357849,-48.0
23,lyy,f,22,r,1,(-121.76378772032352, -121.76378772032348),26,5,2,no,m,6,m,1.0335647000465542,1,23,test1,1,1.0338456000899896,-48.0
23,lyy,f,22,r,1,(172.20000000000002, 0.0),21,-5,12,yes,x,5,x,0.7371110999956727,1,24,test1,1,0.7372423000633717,-50.0
23,lyy,f,22,r,1,(121.76378772032349, 121.76378772032349),22,-5,12,yes,x,5,x,0.6084215000737458,1,25,test1,1,0.6086622999282554,-50.0
23,lyy,f,22,r,1,(-121.76378772032348, 121.76378772032349),24,7,3,yes,x,5,x,0.6017415999667719,1,26,test1,1,0.6018426000373438,-38.0
23,lyy,f,22,r,1,(-172.20000000000002, 2.1088417881317425e-14),25,-5,12,no,m,6,m,1.4578778999857605,1,27,test1,1,1.4580860999412835,-38.0
23,lyy,f,22,r,1,(121.76378772032346, -121.76378772032352),28,-5,12,no,m,6,m,0.9137853999854997,1,28,test1,1,0.9144276999868453,-38.0
23,lyy,f,22,r,1,(172.20000000000002, 0.0),21,25,4,no,m,6,x,1.2962127999635413,0,29,test1,1,1.2963137000333518,-38.0
23,lyy,f,22,r,1,(1.0544208940658713e-14, 172.20000000000002),23,-5,12,yes,x,5,x,0.6504336999496445,1,30,test1,1,0.6507076000561938,-50.0
23,lyy,f,22,r,1,(-172.20000000000002, 2.1088417881317425e-14),25,7,3,no,m,6,m,1.2974795000627637,1,31,test1,1,1.297576199984178,-50.0
23,lyy,f,22,r,1,(-121.76378772032352, -121.76378772032348),26,-3,11,no,m,6,m,1.3388387000886723,1,32,test1,1,1.3390444000251591,-50.0
23,lyy,f,22,r,1,(121.76378772032349, 121.76378772032349),22,-25,14,yes,x,5,x,1.052775299991481,1,33,test1,1,1.053279499989003,-70.0
23,lyy,f,22,r,1,(-3.163262682197613e-14, -172.20000000000002),27,-3,11,no,m,6,m,1.3215668000048026,1,34,test1,1,1.3220019999425858,-70.0
23,lyy,f,22,r,1,(-121.76378772032352, -121.76378772032348),26,-3,11,yes,x,5,x,1.5904525000369176,1,35,test1,1,1.5905741000315174,-48.0
23,lyy,f,22,r,1,(-121.76378772032348, 121.76378772032349),24,-3,11,yes,x,5,x,1.0418117999797687,1,36,test1,1,1.042047500028275,-48.0
23,lyy,f,22,r,1,(-121.76378772032352, -121.76378772032348),26,7,3,yes,x,5,x,0.8426809000084177,1,37,test1,1,0.8427860999945551,-38.0
23,lyy,f,22,r,1,(-121.76378772032348, 121.76378772032349),24,-3,11,no,m,6,m,0.9671413999749348,1,38,test1,1,0.9672473999671638,-38.0
23,lyy,f,22,r,1,(1.0544208940658713e-14, 172.20000000000002),23,-5,12,yes,x,5,x,0.8829821000108495,1,39,test1,1,0.8831724000629038,-50.0
23,lyy,f,22,r,1,(-172.20000000000002, 2.1088417881317425e-14),25,-5,12,yes,x,5,x,0.8408381999470294,1,40,test1,1,0.841296499944292,-50.0
23,lyy,f,22,r,1,(-172.20000000000002, 2.1088417881317425e-14),25,5,2,yes,x,5,x,1.0897877999814227,1,41,test1,1,1.0900350000010803,-40.0
23,lyy,f,22,r,1,(-121.76378772032348, 121.76378772032349),24,3,1,yes,x,5,x,1.2355905000586063,1,42,test1,1,1.2357095000334084,-42.0
23,lyy,f,22,r,1,(121.76378772032346, -121.76378772032352),28,3,1,no,m,6,m,1.0377458999864757,1,43,test1,1,1.0379380999365821,-42.0
23,lyy,f,22,r,1,(-121.76378772032352, -121.76378772032348),26,-7,13,yes,x,5,x,0.6663920000428334,1,44,test1,1,0.6667807000922039,-52.0
23,lyy,f,22,r,1,(-172.20000000000002, 2.1088417881317425e-14),25,25,4,yes,x,5,x,0.6631710999645293,1,45,test1,1,0.6633809000486508,-20.0
23,lyy,f,22,r,1,(-121.76378772032348, 121.76378772032349),24,5,2,yes,x,5,x,0.8095831999089569,1,46,test1,1,0.8096844999818131,-40.0
23,lyy,f,22,r,1,(-172.20000000000002, 2.1088417881317425e-14),25,-3,11,yes,x,5,x,0.8087242000037804,1,47,test1,1,0.8092401000903919,-48.0
23,lyy,f,22,r,1,(-172.20000000000002, 2.1088417881317425e-14),25,-3,11,yes,x,5,x,0.6011241999221966,1,48,test1,1,0.6013376000337303,-48.0
23,lyy,f,22,r,1,(121.76378772032346, -121.76378772032352),28,-7,13,yes,x,5,x,0.5700608999468386,1,49,test1,1,0.570259700063616,-52.0
23,lyy,f,22,r,1,(1.0544208940658713e-14, 172.20000000000002),23,5,2,no,m,6,m,1.538889899966307,1,50,test1,1,1.5392001000000164,-52.0
23,lyy,f,22,r,1,(-172.20000000000002, 2.1088417881317425e-14),25,5,2,no,m,6,m,1.809660500031896,1,51,test1,1,1.8100903000449762,-52.0
23,lyy,f,22,r,1,(121.76378772032349, 121.76378772032349),22,-5,12,yes,x,5,x,0.6422671999316663,1,52,test1,1,0.6423966999864206,-50.0
23,lyy,f,22,r,1,(121.76378772032349, 121.76378772032349),22,-7,13,yes,x,5,x,0.5621591999661177,1,53,test1,1,0.5626341999741271,-52.0
23,lyy,f,22,r,1,(121.76378772032349, 121.76378772032349),22,25,4,no,m,6,m,1.3329508999595419,1,54,test1,1,1.3330538000445813,-52.0
23,lyy,f,22,r,1,(-121.76378772032348, 121.76378772032349),24,3,1,yes,x,5,x,1.259453700040467,1,55,test1,1,1.2597321000648662,-42.0
23,lyy,f,22,r,1,(121.76378772032346, -121.76378772032352),28,3,1,yes,x,5,x,1.3840216000098735,1,56,test1,1,1.3841919000260532,-42.0
23,lyy,f,22,r,1,(-172.20000000000002, 2.1088417881317425e-14),25,7,3,yes,x,5,x,0.6683563999831676,1,57,test1,1,0.668517499929294,-38.0
23,lyy,f,22,r,1,(-172.20000000000002, 2.1088417881317425e-14),25,-7,13,yes,x,5,x,0.6296028000069782,1,58,test1,1,0.6298088000621647,-52.0
23,lyy,f,22,r,1,(-172.20000000000002, 2.1088417881317425e-14),25,-3,11,no,m,6,None,None,0,59,test1,1,1.9800897999666631,-52.0
23,lyy,f,22,r,1,(121.76378772032346, -121.76378772032352),28,-7,13,no,m,6,m,1.1504406000021845,1,60,test1,1,1.1508945999667048,-52.0
23,lyy,f,22,r,1,(-3.163262682197613e-14, -172.20000000000002),27,-7,13,yes,x,5,x,0.6594271000940353,1,61,test1,1,0.6595316000748426,-52.0
23,lyy,f,22,r,1,(-3.163262682197613e-14, -172.20000000000002),27,25,4,no,m,6,m,0.7832861000206321,1,62,test1,1,0.7836797999916598,-52.0
23,lyy,f,22,r,1,(172.20000000000002, 0.0),21,-3,11,yes,x,5,x,0.8092546999687329,1,63,test1,1,0.8094632000429556,-48.0
23,lyy,f,22,r,1,(121.76378772032349, 121.76378772032349),22,7,3,yes,x,5,x,0.5676094000227749,1,64,test1,1,0.567714300006628,-38.0
23,lyy,f,22,r,1,(-3.163262682197613e-14, -172.20000000000002),27,25,4,yes,x,5,x,0.5020355000160635,1,65,test1,1,0.5024491000222042,-20.0
23,lyy,f,22,r,1,(172.20000000000002, 0.0),21,25,4,yes,x,5,x,0.47164130001328886,1,66,test1,1,0.47177279996685684,-20.0
23,lyy,f,22,r,1,(-121.76378772032348, 121.76378772032349),24,-3,11,yes,x,5,m,0.8157456000335515,0,67,test1,1,0.8160785000072792,-48.0
23,lyy,f,22,r,1,(-172.20000000000002, 2.1088417881317425e-14),25,-25,14,no,m,6,m,0.9149800000013784,1,68,test1,1,0.9152723000152037,-48.0
23,lyy,f,22,r,1,(121.76378772032346, -121.76378772032352),28,-25,14,yes,x,5,x,0.7479302999563515,1,69,test1,1,0.7480479000369087,-70.0
23,lyy,f,22,r,1,(-121.76378772032352, -121.76378772032348),26,7,3,no,m,6,x,1.2435798000078648,0,70,test1,1,1.2436802999582142,-70.0
23,lyy,f,22,r,1,(1.0544208940658713e-14, 172.20000000000002),23,-25,14,yes,x,5,x,0.4952083999523893,1,71,test1,1,0.4955537000205368,-70.0
23,lyy,f,22,r,1,(172.20000000000002, 0.0),21,-25,14,yes,x,5,x,0.5672905000392348,1,72,test1,1,0.5675831000553444,-70.0
23,lyy,f,22,r,1,(-121.76378772032348, 121.76378772032349),24,25,4,yes,x,5,x,0.4719807000365108,1,73,test1,1,0.4723097999813035,-20.0
23,lyy,f,22,r,1,(-172.20000000000002, 2.1088417881317425e-14),25,-7,13,no,m,6,m,0.8612965000793338,1,74,test1,1,0.861397499917075,-20.0
23,lyy,f,22,r,1,(172.20000000000002, 0.0),21,3,1,yes,x,5,x,0.7996495999395847,1,75,test1,1,0.7998324999352917,-42.0
23,lyy,f,22,r,1,(-3.163262682197613e-14, -172.20000000000002),27,-25,14,yes,x,5,x,0.5541283999336883,1,76,test1,1,0.5542608000105247,-70.0
23,lyy,f,22,r,1,(121.76378772032346, -121.76378772032352),28,-5,12,yes,x,5,x,0.6442907000891864,1,77,test1,1,0.6444636000087485,-50.0
23,lyy,f,22,r,1,(-172.20000000000002, 2.1088417881317425e-14),25,3,1,no,m,6,m,1.1633233999600634,1,78,test1,1,1.1634385000215843,-50.0
23,lyy,f,22,r,1,(121.76378772032349, 121.76378772032349),22,5,2,yes,x,5,x,0.5989080000435933,1,79,test1,1,0.5991933000041172,-40.0
23,lyy,f,22,r,1,(1.0544208940658713e-14, 172.20000000000002),23,3,1,no,m,6,m,0.7262322000460699,1,80,test1,1,0.7263589999638498,-40.0
23,lyy,f,22,r,1,(1.0544208940658713e-14, 172.20000000000002),23,-7,13,yes,x,5,x,0.6659569999901578,1,81,test1,1,0.6661603000247851,-52.0
23,lyy,f,22,r,1,(121.76378772032349, 121.76378772032349),22,25,4,yes,x,5,x,0.5373400000389665,1,82,test1,1,0.5376428000163287,-20.0
23,lyy,f,22,r,1,(-121.76378772032352, -121.76378772032348),26,3,1,yes,x,5,m,0.7661651000380516,0,83,test1,1,0.7663478000322357,-42.0
23,lyy,f,22,r,1,(-121.76378772032352, -121.76378772032348),26,-5,12,yes,x,5,x,0.9566429000115022,1,84,test1,1,0.9569495000177994,-50.0
23,lyy,f,22,r,1,(1.0544208940658713e-14, 172.20000000000002),23,7,3,no,m,6,m,0.9031331000151113,1,85,test1,1,0.9032397998962551,-50.0
23,lyy,f,22,r,1,(172.20000000000002, 0.0),21,-5,12,yes,x,5,x,0.6554298000410199,1,86,test1,1,0.6558302000630647,-50.0
23,lyy,f,22,r,1,(121.76378772032346, -121.76378772032352),28,5,2,yes,x,5,x,0.6788203999167308,1,87,test1,1,0.6789856000104919,-40.0
23,lyy,f,22,r,1,(-121.76378772032348, 121.76378772032349),24,3,1,no,m,6,m,0.6398886000970379,1,88,test1,1,0.6404461999190971,-40.0
23,lyy,f,22,r,1,(1.0544208940658713e-14, 172.20000000000002),23,3,1,yes,x,5,m,0.8545796999242157,0,89,test1,1,0.8547164000337943,-42.0
23,lyy,f,22,r,1,(-172.20000000000002, 2.1088417881317425e-14),25,7,3,yes,x,5,x,0.5551092999521643,1,90,test1,1,0.5552168999565765,-38.0
23,lyy,f,22,r,1,(121.76378772032349, 121.76378772032349),22,5,2,no,m,6,m,0.9662725999951363,1,91,test1,1,0.9665062000276521,-38.0
23,lyy,f,22,r,1,(-3.163262682197613e-14, -172.20000000000002),27,3,1,no,m,6,m,0.7783446999965236,1,92,test1,1,0.7786140000680462,-38.0
23,lyy,f,22,r,1,(1.0544208940658713e-14, 172.20000000000002),23,-7,13,yes,x,5,x,0.6570271999808028,1,93,test1,1,0.6571429999312386,-52.0
23,lyy,f,22,r,1,(121.76378772032349, 121.76378772032349),22,-7,13,yes,x,5,x,0.6139564999612048,1,94,test1,1,0.6140603000530973,-52.0
23,lyy,f,22,r,1,(1.0544208940658713e-14, 172.20000000000002),23,-25,14,yes,x,5,x,0.5650276000378653,1,95,test1,1,0.5651536999503151,-70.0
23,lyy,f,22,r,1,(-3.163262682197613e-14, -172.20000000000002),27,7,3,yes,x,5,x,0.6014835999812931,1,96,test1,1,0.6015853999415413,-38.0
23,lyy,f,22,r,1,(121.76378772032346, -121.76378772032352),28,7,3,yes,x,5,x,0.8864285999443382,1,1,test2,1,0.8866562999319285,-38.0
23,lyy,f,22,r,1,(-121.76378772032348, 121.76378772032349),24,25,4,no,m,6,m,0.9894762999610975,1,2,test2,1,0.9897986999712884,-38.0
23,lyy,f,22,r,1,(-3.163262682197613e-14, -172.20000000000002),27,5,2,yes,x,5,x,0.6024273000657558,1,3,test2,1,0.6025479000527412,-40.0
23,lyy,f,22,r,1,(121.76378772032346, -121.76378772032352),28,-25,14,no,m,6,m,1.1152036000275984,1,4,test2,1,1.1155338999815285,-40.0
23,lyy,f,22,r,1,(121.76378772032349, 121.76378772032349),22,7,3,no,m,6,m,0.7667864999966696,1,5,test2,1,0.766889899969101,-40.0
23,lyy,f,22,r,1,(1.0544208940658713e-14, 172.20000000000002),23,7,3,yes,x,5,x,0.5814942000433803,1,6,test2,1,0.5816926000406966,-38.0
23,lyy,f,22,r,1,(-121.76378772032348, 121.76378772032349),24,-5,12,yes,x,5,x,0.8125897999852896,1,7,test2,1,0.8130231000250205,-50.0
23,lyy,f,22,r,1,(1.0544208940658713e-14, 172.20000000000002),23,25,4,yes,x,5,x,0.5400583000155166,1,8,test2,1,0.5404947000788525,-20.0
23,lyy,f,22,r,1,(-3.163262682197613e-14, -172.20000000000002),27,-5,12,yes,x,5,x,0.9789957000175491,1,9,test2,1,0.9790941999526694,-50.0
23,lyy,f,22,r,1,(172.20000000000002, 0.0),21,7,3,yes,x,5,x,0.5485867999959737,1,10,test2,1,0.5486936999950558,-38.0
23,lyy,f,22,r,1,(-121.76378772032352, -121.76378772032348),26,-5,12,no,m,6,m,0.6823932999977842,1,11,test2,1,0.6826814999803901,-38.0
23,lyy,f,22,r,1,(-121.76378772032348, 121.76378772032349),24,-7,13,yes,x,5,x,0.5274898000061512,1,12,test2,1,0.5278136000270024,-52.0
23,lyy,f,22,r,1,(121.76378772032349, 121.76378772032349),22,-25,14,yes,x,5,x,0.5195843999972567,1,13,test2,1,0.5199044999899343,-70.0
23,lyy,f,22,r,1,(-121.76378772032352, -121.76378772032348),26,-25,14,yes,x,5,x,0.4767704999540001,1,14,test2,1,0.47693320002872497,-70.0
23,lyy,f,22,r,1,(-172.20000000000002, 2.1088417881317425e-14),25,-25,14,yes,x,5,x,0.6137773999944329,1,15,test2,1,0.6139396999496967,-70.0
23,lyy,f,22,r,1,(172.20000000000002, 0.0),21,3,1,yes,x,5,m,1.0456724000396207,0,16,test2,1,1.0460715000517666,-42.0
23,lyy,f,22,r,1,(-172.20000000000002, 2.1088417881317425e-14),25,3,1,yes,x,5,x,0.8646188999991864,1,17,test2,1,0.8651841999962926,-42.0
23,lyy,f,22,r,1,(121.76378772032346, -121.76378772032352),28,-7,13,yes,x,5,x,0.5547275999560952,1,18,test2,1,0.5550176999531686,-52.0
23,lyy,f,22,r,1,(-121.76378772032352, -121.76378772032348),26,7,3,yes,x,5,x,0.6308300000382587,1,19,test2,1,0.6313058000523597,-38.0
23,lyy,f,22,r,1,(-172.20000000000002, 2.1088417881317425e-14),25,-7,13,yes,x,5,x,0.6360607000533491,1,20,test2,1,0.6362292000558227,-52.0
23,lyy,f,22,r,1,(-121.76378772032352, -121.76378772032348),26,-25,14,no,m,6,x,1.2048092000186443,0,21,test2,1,1.2049147000070661,-52.0
23,lyy,f,22,r,1,(121.76378772032349, 121.76378772032349),22,3,1,no,m,6,m,0.8455062999855727,1,22,test2,1,0.8456109999679029,-52.0
23,lyy,f,22,r,1,(-121.76378772032348, 121.76378772032349),24,7,3,yes,x,5,x,0.7020373999839649,1,23,test2,1,0.7022549000103027,-38.0
23,lyy,f,22,r,1,(121.76378772032346, -121.76378772032352),28,-25,14,yes,x,5,x,0.5800858000293374,1,24,test2,1,0.580391600029543,-70.0
23,lyy,f,22,r,1,(172.20000000000002, 0.0),21,3,1,no,m,6,m,0.7973554999334738,1,25,test2,1,0.7974994999822229,-70.0
23,lyy,f,22,r,1,(-3.163262682197613e-14, -172.20000000000002),27,5,2,no,m,6,m,0.7447906999150291,1,26,test2,1,0.7451874999096617,-70.0
23,lyy,f,22,r,1,(121.76378772032349, 121.76378772032349),22,3,1,yes,x,5,x,0.9065255000023171,1,27,test2,1,0.9071059999987483,-42.0
23,lyy,f,22,r,1,(-172.20000000000002, 2.1088417881317425e-14),25,3,1,yes,x,5,x,1.1079675999935716,1,28,test2,1,1.1080898999935016,-42.0
23,lyy,f,22,r,1,(-121.76378772032352, -121.76378772032348),26,25,4,yes,x,5,x,0.5453645000234246,1,29,test2,1,0.545651699998416,-20.0
23,lyy,f,22,r,1,(-121.76378772032348, 121.76378772032349),24,25,4,yes,x,5,x,0.599757399992086,1,30,test2,1,0.5999329999322072,-20.0
23,lyy,f,22,r,1,(1.0544208940658713e-14, 172.20000000000002),23,-5,12,no,m,6,m,0.8952513000695035,1,31,test2,1,0.8958521999884397,-20.0
23,lyy,f,22,r,1,(121.76378772032349, 121.76378772032349),22,-7,13,no,m,6,m,0.7219323000172153,1,32,test2,1,0.7224128999514505,-20.0
23,lyy,f,22,r,1,(121.76378772032349, 121.76378772032349),22,-3,11,yes,x,5,x,0.7845128000481054,1,33,test2,1,0.7850419000023976,-48.0
23,lyy,f,22,r,1,(121.76378772032346, -121.76378772032352),28,25,4,no,m,6,m,0.6893994000274688,1,34,test2,1,0.6897352000232786,-48.0
23,lyy,f,22,r,1,(-121.76378772032352, -121.76378772032348),26,5,2,yes,x,5,x,0.574258100008592,1,35,test2,1,0.5743657000130042,-40.0
23,lyy,f,22,r,1,(1.0544208940658713e-14, 172.20000000000002),23,3,1,yes,x,5,m,1.1174939000047743,0,36,test2,1,1.1178817000472918,-42.0
23,lyy,f,22,r,1,(172.20000000000002, 0.0),21,7,3,no,m,6,m,1.0643971000099555,1,37,test2,1,1.064825400011614,-42.0
23,lyy,f,22,r,1,(172.20000000000002, 0.0),21,-3,11,yes,x,5,m,1.2213791999965906,0,38,test2,1,1.221489300020039,-48.0
23,lyy,f,22,r,1,(121.76378772032349, 121.76378772032349),22,7,3,yes,x,5,x,0.6360324000706896,1,39,test2,1,0.6361686000600457,-38.0
23,lyy,f,22,r,1,(-121.76378772032348, 121.76378772032349),24,5,2,no,m,6,m,1.256095299962908,1,40,test2,1,1.2564642999786884,-38.0
23,lyy,f,22,r,1,(1.0544208940658713e-14, 172.20000000000002),23,25,4,no,m,6,m,1.167089800001122,1,41,test2,1,1.167390999966301,-38.0
23,lyy,f,22,r,1,(-121.76378772032352, -121.76378772032348),26,-5,12,yes,x,5,x,0.6976010999642313,1,42,test2,1,0.6977954000467435,-50.0
23,lyy,f,22,r,1,(121.76378772032349, 121.76378772032349),22,-3,11,no,m,6,m,1.0257921000011265,1,43,test2,1,1.026160900015384,-50.0
23,lyy,f,22,r,1,(-121.76378772032348, 121.76378772032349),24,-25,14,yes,x,5,x,0.6432064999826252,1,44,test2,1,0.6433115999680012,-70.0
23,lyy,f,22,r,1,(-172.20000000000002, 2.1088417881317425e-14),25,5,2,yes,x,5,x,0.5737849000142887,1,45,test2,1,0.574184300028719,-40.0
23,lyy,f,22,r,1,(-172.20000000000002, 2.1088417881317425e-14),25,-25,14,yes,x,5,x,0.6732015999732539,1,46,test2,1,0.6733526000753045,-70.0
23,lyy,f,22,r,1,(-3.163262682197613e-14, -172.20000000000002),27,7,3,no,m,6,x,1.1132961000548676,0,47,test2,1,1.1134039999451488,-70.0
23,lyy,f,22,r,1,(121.76378772032346, -121.76378772032352),28,-3,11,yes,x,5,x,0.9751938000554219,1,48,test2,1,0.9754658000310883,-48.0
23,lyy,f,22,r,1,(-121.76378772032352, -121.76378772032348),26,25,4,yes,x,5,x,0.6042056999867782,1,49,test2,1,0.604444699943997,-20.0
23,lyy,f,22,r,1,(121.76378772032346, -121.76378772032352),28,-3,11,yes,x,5,x,0.7126509000081569,1,50,test2,1,0.7129600999178365,-48.0
23,lyy,f,22,r,1,(172.20000000000002, 0.0),21,-3,11,no,m,6,m,0.7629492999985814,1,51,test2,1,0.7632319000549614,-48.0
23,lyy,f,22,r,1,(-3.163262682197613e-14, -172.20000000000002),27,25,4,yes,x,5,x,0.688277899986133,1,52,test2,1,0.6885896000312641,-20.0
23,lyy,f,22,r,1,(121.76378772032349, 121.76378772032349),22,-3,11,yes,x,5,x,1.1620958999264985,1,53,test2,1,1.1623305999673903,-48.0
23,lyy,f,22,r,1,(-3.163262682197613e-14, -172.20000000000002),27,-7,13,yes,x,5,x,0.7278107999591157,1,54,test2,1,0.7279151999391615,-52.0
23,lyy,f,22,r,1,(1.0544208940658713e-14, 172.20000000000002),23,-3,11,yes,x,5,x,0.7349975999677554,1,55,test2,1,0.7352308999979869,-48.0
23,lyy,f,22,r,1,(121.76378772032346, -121.76378772032352),28,7,3,no,m,6,m,0.8260929000098258,1,56,test2,1,0.826525800046511,-48.0
23,lyy,f,22,r,1,(172.20000000000002, 0.0),21,-25,14,yes,x,5,x,0.615907600033097,1,57,test2,1,0.6160464999265969,-70.0
23,lyy,f,22,r,1,(121.76378772032346, -121.76378772032352),28,3,1,yes,x,5,x,1.0462647000094876,1,58,test2,1,1.0463808999629691,-42.0
23,lyy,f,22,r,1,(-172.20000000000002, 2.1088417881317425e-14),25,-5,12,yes,x,5,x,0.5973584000021219,1,59,test2,1,0.5975384999765083,-50.0
23,lyy,f,22,r,1,(121.76378772032349, 121.76378772032349),22,-5,12,no,m,6,m,1.0622341999551281,1,60,test2,1,1.0623348000226542,-50.0
23,lyy,f,22,r,1,(1.0544208940658713e-14, 172.20000000000002),23,-3,11,no,m,6,m,1.2742266000714153,1,61,test2,1,1.2743308000499383,-50.0
23,lyy,f,22,r,1,(172.20000000000002, 0.0),21,7,3,yes,x,5,x,0.5673769999993965,1,62,test2,1,0.5675449999980628,-38.0
23,lyy,f,22,r,1,(-3.163262682197613e-14, -172.20000000000002),27,5,2,yes,x,5,x,0.6548166000284255,1,63,test2,1,0.6551967000123113,-40.0
23,lyy,f,22,r,1,(-172.20000000000002, 2.1088417881317425e-14),25,25,4,yes,x,5,x,0.49651430000085384,1,64,test2,1,0.49704309995286167,-20.0
23,lyy,f,22,r,1,(121.76378772032349, 121.76378772032349),22,25,4,yes,x,5,x,0.5017033000476658,1,65,test2,1,0.5020154999801889,-20.0
23,lyy,f,22,r,1,(-121.76378772032348, 121.76378772032349),24,-25,14,no,m,6,m,1.3161073999945074,1,66,test2,1,1.3163047999842092,-20.0
23,lyy,f,22,r,1,(1.0544208940658713e-14, 172.20000000000002),23,5,2,yes,x,5,x,0.670617000083439,1,67,test2,1,0.6707444000057876,-40.0
23,lyy,f,22,r,1,(-3.163262682197613e-14, -172.20000000000002),27,3,1,yes,x,5,x,0.7269364000530913,1,68,test2,1,0.7272768999682739,-42.0
23,lyy,f,22,r,1,(-3.163262682197613e-14, -172.20000000000002),27,-5,12,yes,x,5,x,0.8669217999558896,1,69,test2,1,0.8673544999910519,-50.0
23,lyy,f,22,r,1,(-172.20000000000002, 2.1088417881317425e-14),25,25,4,no,m,6,m,0.8352981000207365,1,70,test2,1,0.8354654000140727,-50.0
23,lyy,f,22,r,1,(-3.163262682197613e-14, -172.20000000000002),27,-7,13,no,m,6,m,0.8756156000308692,1,71,test2,1,0.8757523000240326,-50.0
23,lyy,f,22,r,1,(-3.163262682197613e-14, -172.20000000000002),27,-25,14,yes,x,5,x,0.5971687999553978,1,72,test2,1,0.5972891000565141,-70.0
23,lyy,f,22,r,1,(-121.76378772032352, -121.76378772032348),26,25,4,no,m,6,m,0.8103168000234291,1,73,test2,1,0.8105638000415638,-70.0
23,lyy,f,22,r,1,(172.20000000000002, 0.0),21,-7,13,yes,x,5,x,0.6265414000954479,1,74,test2,1,0.6271312000462785,-52.0
23,lyy,f,22,r,1,(-121.76378772032352, -121.76378772032348),26,-7,13,no,m,6,m,1.1678885999135673,1,75,test2,1,1.168075899942778,-52.0
23,lyy,f,22,r,1,(121.76378772032349, 121.76378772032349),22,-25,14,no,m,6,m,1.0377664000261575,1,76,test2,1,1.0379756001057103,-52.0
23,lyy,f,22,r,1,(-3.163262682197613e-14, -172.20000000000002),27,-25,14,no,m,6,m,0.8180758999660611,1,77,test2,1,0.8185885000275448,-52.0
23,lyy,f,22,r,1,(121.76378772032346, -121.76378772032352),28,-3,11,no,m,6,m,1.1258481000550091,1,78,test2,1,1.1260066999820992,-52.0
23,lyy,f,22,r,1,(-3.163262682197613e-14, -172.20000000000002),27,7,3,yes,x,5,x,0.44776450004428625,1,79,test2,1,0.44802879996132106,-38.0
23,lyy,f,22,r,1,(-121.76378772032352, -121.76378772032348),26,5,2,yes,x,5,x,0.5460703000426292,1,80,test2,1,0.5462075000395998,-40.0
23,lyy,f,22,r,1,(1.0544208940658713e-14, 172.20000000000002),23,7,3,yes,x,5,x,0.4868848000187427,1,81,test2,1,0.48706010007299483,-38.0
23,lyy,f,22,r,1,(1.0544208940658713e-14, 172.20000000000002),23,25,4,yes,x,5,x,0.4652850000420585,1,82,test2,1,0.46553320006933063,-20.0
23,lyy,f,22,r,1,(1.0544208940658713e-14, 172.20000000000002),23,5,2,yes,x,5,x,0.5703871001023799,1,83,test2,1,0.5706696000415832,-40.0
23,lyy,f,22,r,1,(121.76378772032349, 121.76378772032349),22,5,2,yes,x,5,x,0.7999043999006972,1,84,test2,1,0.8000293999211863,-40.0
23,lyy,f,22,r,1,(-121.76378772032352, -121.76378772032348),26,-7,13,yes,x,5,x,0.6123467999277636,1,85,test2,1,0.612453700043261,-52.0
23,lyy,f,22,r,1,(172.20000000000002, 0.0),21,5,2,no,m,6,m,0.749293899978511,1,86,test2,1,0.7495591000188142,-52.0
23,lyy,f,22,r,1,(-121.76378772032352, -121.76378772032348),26,3,1,no,m,6,m,0.8406736999750137,1,87,test2,1,0.8409919999539852,-52.0
23,lyy,f,22,r,1,(-3.163262682197613e-14, -172.20000000000002),27,-3,11,yes,x,5,x,0.836759899975732,1,88,test2,1,0.8368863000068814,-48.0
23,lyy,f,22,r,1,(172.20000000000002, 0.0),21,5,2,yes,x,5,x,0.726773599977605,1,89,test2,1,0.7268809000961483,-40.0
23,lyy,f,22,r,1,(1.0544208940658713e-14, 172.20000000000002),23,-7,13,no,m,6,m,0.9682050999253988,1,90,test2,1,0.9684281999943778,-40.0
23,lyy,f,22,r,1,(121.76378772032346, -121.76378772032352),28,5,2,no,m,6,m,0.8735393999377266,1,91,test2,1,0.8736410000128672,-40.0
23,lyy,f,22,r,1,(-121.76378772032348, 121.76378772032349),24,7,3,no,m,6,m,0.825898600043729,1,92,test2,1,0.8262638999149203,-40.0
23,lyy,f,22,r,1,(172.20000000000002, 0.0),21,-25,14,no,m,6,m,0.8298011999577284,1,93,test2,1,0.829942399985157,-40.0
23,lyy,f,22,r,1,(-121.76378772032348, 121.76378772032349),24,-7,13,yes,x,5,x,0.5557625000365078,1,94,test2,1,0.5558614000910893,-52.0
23,lyy,f,22,r,1,(121.76378772032346, -121.76378772032352),28,-5,12,yes,x,5,x,0.6286396000068635,1,95,test2,1,0.6294623999856412,-50.0
23,lyy,f,22,r,1,(-121.76378772032352, -121.76378772032348),26,3,1,yes,x,5,x,0.7546641000080854,1,96,test2,1,0.7549696000060067,-42.0
23,lyy,f,22,r,1,(-3.163262682197613e-14, -172.20000000000002),27,-5,12,no,m,6,m,0.7730271000182256,1,1,test1,2,0.7737571999896318,-42.0
23,lyy,f,22,r,1,(-121.76378772032348, 121.76378772032349),24,-7,13,no,m,6,m,0.8644239000277594,1,2,test1,2,0.864536999957636,-42.0
23,lyy,f,22,r,1,(121.76378772032346, -121.76378772032352),28,25,4,yes,x,5,x,0.6358671999769285,1,3,test1,2,0.6360460999421775,-20.0
23,lyy,f,22,r,1,(-121.76378772032348, 121.76378772032349),24,-5,12,yes,x,5,x,0.7582346999552101,1,4,test1,2,0.7583378999261186,-50.0
23,lyy,f,22,r,1,(-121.76378772032348, 121.76378772032349),24,5,2,yes,x,5,x,0.6479892999632284,1,5,test1,2,0.648196000023745,-40.0
23,lyy,f,22,r,1,(172.20000000000002, 0.0),21,-5,12,no,m,6,m,1.1339855999685824,1,6,test1,2,1.1340904999524355,-40.0
23,lyy,f,22,r,1,(-121.76378772032352, -121.76378772032348),26,-3,11,yes,x,5,x,1.0649377999361604,1,7,test1,2,1.0652326999697834,-48.0
23,lyy,f,22,r,1,(-3.163262682197613e-14, -172.20000000000002),27,3,1,yes,x,5,x,0.8881317999912426,1,8,test1,2,0.88836620002985,-42.0
23,lyy,f,22,r,1,(121.76378772032346, -121.76378772032352),28,5,2,yes,x,5,x,0.7369831000687554,1,9,test1,2,0.7370856999186799,-40.0
23,lyy,f,22,r,1,(-121.76378772032352, -121.76378772032348),26,-25,14,yes,x,5,x,0.7182733000954613,1,10,test1,2,0.7183765999507159,-70.0
23,lyy,f,22,r,1,(121.76378772032346, -121.76378772032352),28,7,3,yes,x,5,x,0.5683963999617845,1,11,test1,2,0.5688186000334099,-38.0
23,lyy,f,22,r,1,(-121.76378772032348, 121.76378772032349),24,-5,12,no,m,6,m,0.9248240999877453,1,12,test1,2,0.9249253999441862,-38.0
23,lyy,f,22,r,1,(-121.76378772032348, 121.76378772032349),24,-25,14,yes,x,5,x,0.47387970006093383,1,13,test1,2,0.4741077000508085,-70.0
23,lyy,f,22,r,1,(121.76378772032349, 121.76378772032349),22,3,1,yes,x,5,x,0.7860887999413535,1,14,test1,2,0.7862205000128597,-42.0
23,lyy,f,22,r,1,(121.76378772032346, -121.76378772032352),28,25,4,yes,x,5,x,0.5122605999931693,1,15,test1,2,0.5124807000393048,-20.0
23,lyy,f,22,r,1,(172.20000000000002, 0.0),21,-7,13,yes,x,5,x,0.5834565000841394,1,16,test1,2,0.584253300097771,-52.0
23,lyy,f,22,r,1,(172.20000000000002, 0.0),21,5,2,yes,x,5,x,0.5756387000437826,1,17,test1,2,0.5759720000205562,-40.0
23,lyy,f,22,r,1,(172.20000000000002, 0.0),21,25,4,yes,x,5,x,0.520800800062716,1,18,test1,2,0.521040300023742,-20.0
23,lyy,f,22,r,1,(1.0544208940658713e-14, 172.20000000000002),23,-25,14,no,m,6,m,0.9115171000594273,1,19,test1,2,0.9117376999929547,-20.0
23,lyy,f,22,r,1,(172.20000000000002, 0.0),21,-7,13,no,m,6,m,0.8553074999945238,1,20,test1,2,0.8557837000116706,-20.0
23,lyy,f,22,r,1,(-3.163262682197613e-14, -172.20000000000002),27,-3,11,yes,x,5,x,1.0003099999157712,1,21,test1,2,1.0007464999798685,-48.0
23,lyy,f,22,r,1,(1.0544208940658713e-14, 172.20000000000002),23,-3,11,yes,x,5,m,0.7962774999905378,0,22,test1,2,0.7963915999280289,-48.0
23,lyy,f,22,r,1,(-121.76378772032352, -121.76378772032348),26,5,2,no,m,6,m,0.8018169000279158,1,23,test1,2,0.8021593999583274,-48.0
23,lyy,f,22,r,1,(172.20000000000002, 0.0),21,-5,12,yes,x,5,x,0.6212529999902472,1,24,test1,2,0.621915299911052,-50.0
23,lyy,f,22,r,1,(121.76378772032349, 121.76378772032349),22,-5,12,yes,x,5,x,0.8150438999291509,1,25,test1,2,0.8152344999834895,-50.0
23,lyy,f,22,r,1,(-121.76378772032348, 121.76378772032349),24,7,3,yes,x,5,x,0.6314343999838457,1,26,test1,2,0.6319452999159694,-38.0
23,lyy,f,22,r,1,(-172.20000000000002, 2.1088417881317425e-14),25,-5,12,no,m,6,m,1.2927779000019655,1,27,test1,2,1.2931441999971867,-38.0
23,lyy,f,22,r,1,(121.76378772032346, -121.76378772032352),28,-5,12,no,m,6,m,1.0764333999250084,1,28,test1,2,1.0765427000587806,-38.0
23,lyy,f,22,r,1,(172.20000000000002, 0.0),21,25,4,no,m,6,m,1.0506447999505326,1,29,test1,2,1.05104399996344,-38.0
23,lyy,f,22,r,1,(1.0544208940658713e-14, 172.20000000000002),23,-5,12,yes,x,5,x,0.5585613999282941,1,30,test1,2,0.5587266000220552,-50.0
23,lyy,f,22,r,1,(-172.20000000000002, 2.1088417881317425e-14),25,7,3,no,m,6,m,0.9201312999939546,1,31,test1,2,0.9202942999545485,-50.0
23,lyy,f,22,r,1,(-121.76378772032352, -121.76378772032348),26,-3,11,no,m,6,m,0.8757059000199661,1,32,test1,2,0.8758336000610143,-50.0
23,lyy,f,22,r,1,(121.76378772032349, 121.76378772032349),22,-25,14,yes,x,5,x,0.5853655999526381,1,33,test1,2,0.5854854000499472,-70.0
23,lyy,f,22,r,1,(-3.163262682197613e-14, -172.20000000000002),27,-3,11,no,m,6,m,0.7981971999397501,1,34,test1,2,0.7983048000605777,-70.0
23,lyy,f,22,r,1,(-121.76378772032352, -121.76378772032348),26,-3,11,yes,x,5,m,1.3001304999925196,0,35,test1,2,1.3002925000619143,-48.0
23,lyy,f,22,r,1,(-121.76378772032348, 121.76378772032349),24,-3,11,yes,x,5,x,0.7963908000383526,1,36,test1,2,0.7965353999752551,-48.0
23,lyy,f,22,r,1,(-121.76378772032352, -121.76378772032348),26,7,3,yes,x,5,x,0.5967182000167668,1,37,test1,2,0.5968385000014678,-38.0
23,lyy,f,22,r,1,(-121.76378772032348, 121.76378772032349),24,-3,11,no,m,6,m,0.9543500000145286,1,38,test1,2,0.9545921999961138,-38.0
23,lyy,f,22,r,1,(1.0544208940658713e-14, 172.20000000000002),23,-5,12,yes,x,5,x,0.5174972000531852,1,39,test1,2,0.5175977000035346,-50.0
23,lyy,f,22,r,1,(-172.20000000000002, 2.1088417881317425e-14),25,-5,12,yes,x,5,x,0.6730645999778062,1,40,test1,2,0.6732992000179365,-50.0
23,lyy,f,22,r,1,(-172.20000000000002, 2.1088417881317425e-14),25,5,2,yes,x,5,x,0.51974459993653,1,41,test1,2,0.520000199903734,-40.0
23,lyy,f,22,r,1,(-121.76378772032348, 121.76378772032349),24,3,1,yes,x,5,m,0.7507645000005141,0,42,test1,2,0.7509230000432581,-42.0
23,lyy,f,22,r,1,(121.76378772032346, -121.76378772032352),28,3,1,no,m,6,m,0.7321853999746963,1,43,test1,2,0.7323107999982312,-42.0
23,lyy,f,22,r,1,(-121.76378772032352, -121.76378772032348),26,-7,13,yes,x,5,x,0.6422859000740573,1,44,test1,2,0.6426949999295175,-52.0
23,lyy,f,22,r,1,(-172.20000000000002, 2.1088417881317425e-14),25,25,4,yes,x,5,x,0.5919032000238076,1,45,test1,2,0.5932248000754043,-20.0
23,lyy,f,22,r,1,(-121.76378772032348, 121.76378772032349),24,5,2,yes,x,5,x,0.8795171000529081,1,46,test1,2,0.8796604999806732,-40.0
23,lyy,f,22,r,1,(-172.20000000000002, 2.1088417881317425e-14),25,-3,11,yes,x,5,x,0.6645973999984562,1,47,test1,2,0.6650107998866588,-48.0
23,lyy,f,22,r,1,(-172.20000000000002, 2.1088417881317425e-14),25,-3,11,yes,x,5,x,0.6706665999954566,1,48,test1,2,0.6710641999961808,-48.0
23,lyy,f,22,r,1,(121.76378772032346, -121.76378772032352),28,-7,13,yes,x,5,x,0.6372149999951944,1,49,test1,2,0.63739849999547,-52.0
23,lyy,f,22,r,1,(1.0544208940658713e-14, 172.20000000000002),23,5,2,no,m,6,m,0.7660109999123961,1,50,test1,2,0.7662466999609023,-52.0
23,lyy,f,22,r,1,(-172.20000000000002, 2.1088417881317425e-14),25,5,2,no,m,6,m,0.7367236000718549,1,51,test1,2,0.7370758999604732,-52.0
23,lyy,f,22,r,1,(121.76378772032349, 121.76378772032349),22,-5,12,yes,x,5,x,0.6999544999562204,1,52,test1,2,0.7002671000082046,-50.0
23,lyy,f,22,r,1,(121.76378772032349, 121.76378772032349),22,-7,13,yes,x,5,x,0.6034962000558153,1,53,test1,2,0.6036267000017688,-52.0
23,lyy,f,22,r,1,(121.76378772032349, 121.76378772032349),22,25,4,no,m,6,m,0.7953531000530347,1,54,test1,2,0.7959406999871135,-52.0
23,lyy,f,22,r,1,(-121.76378772032348, 121.76378772032349),24,3,1,yes,x,5,x,0.760102599975653,1,55,test1,2,0.7608353000832722,-42.0
23,lyy,f,22,r,1,(121.76378772032346, -121.76378772032352),28,3,1,yes,x,5,x,0.7163281999528408,1,56,test1,2,0.7165461999829859,-42.0
23,lyy,f,22,r,1,(-172.20000000000002, 2.1088417881317425e-14),25,7,3,yes,x,5,x,0.6399228000082076,1,57,test1,2,0.6402336999308318,-38.0
23,lyy,f,22,r,1,(-172.20000000000002, 2.1088417881317425e-14),25,-7,13,yes,x,5,x,0.6222106000641361,1,58,test1,2,0.6224119999678805,-52.0
23,lyy,f,22,r,1,(-172.20000000000002, 2.1088417881317425e-14),25,-3,11,no,m,6,m,0.6819342999951914,1,59,test1,2,0.6824161000549793,-52.0
23,lyy,f,22,r,1,(121.76378772032346, -121.76378772032352),28,-7,13,no,m,6,m,0.6677361000329256,1,60,test1,2,0.6679133999859914,-52.0
23,lyy,f,22,r,1,(-3.163262682197613e-14, -172.20000000000002),27,-7,13,yes,x,5,x,0.5183062000432983,1,61,test1,2,0.5186011999612674,-52.0
23,lyy,f,22,r,1,(-3.163262682197613e-14, -172.20000000000002),27,25,4,no,m,6,m,0.7321009000297636,1,62,test1,2,0.7323990999720991,-52.0
23,lyy,f,22,r,1,(172.20000000000002, 0.0),21,-3,11,yes,x,5,x,0.798376299906522,1,63,test1,2,0.7985070999711752,-48.0
23,lyy,f,22,r,1,(121.76378772032349, 121.76378772032349),22,7,3,yes,x,5,x,0.611862999969162,1,64,test1,2,0.612011699937284,-38.0
23,lyy,f,22,r,1,(-3.163262682197613e-14, -172.20000000000002),27,25,4,yes,x,5,x,0.6236193999648094,1,65,test1,2,0.6237568999640644,-20.0
23,lyy,f,22,r,1,(172.20000000000002, 0.0),21,25,4,yes,x,5,x,0.47136690001934767,1,66,test1,2,0.47159249999094754,-20.0
23,lyy,f,22,r,1,(-121.76378772032348, 121.76378772032349),24,-3,11,yes,x,5,x,0.9621625000145286,1,67,test1,2,0.9623102999757975,-48.0
23,lyy,f,22,r,1,(-172.20000000000002, 2.1088417881317425e-14),25,-25,14,no,m,6,m,0.9604888999601826,1,68,test1,2,0.9610003000125289,-48.0
23,lyy,f,22,r,1,(121.76378772032346, -121.76378772032352),28,-25,14,yes,x,5,x,0.6402791000436991,1,69,test1,2,0.6408465000567958,-70.0
23,lyy,f,22,r,1,(-121.76378772032352, -121.76378772032348),26,7,3,no,m,6,x,0.9687923000892624,0,70,test1,2,0.9689115999499336,-70.0
23,lyy,f,22,r,1,(1.0544208940658713e-14, 172.20000000000002),23,-25,14,yes,x,5,x,0.5023754000430927,1,71,test1,2,0.5028686000732705,-70.0
23,lyy,f,22,r,1,(172.20000000000002, 0.0),21,-25,14,yes,x,5,x,0.490923700039275,1,72,test1,2,0.4913679000455886,-70.0
23,lyy,f,22,r,1,(-121.76378772032348, 121.76378772032349),24,25,4,yes,x,5,x,0.465710400021635,1,73,test1,2,0.4658144999993965,-20.0
23,lyy,f,22,r,1,(-172.20000000000002, 2.1088417881317425e-14),25,-7,13,no,m,6,m,0.9716887000249699,1,74,test1,2,0.972112699993886,-20.0
23,lyy,f,22,r,1,(172.20000000000002, 0.0),21,3,1,yes,x,5,x,0.6920923999277875,1,75,test1,2,0.6922651999630034,-42.0
23,lyy,f,22,r,1,(-3.163262682197613e-14, -172.20000000000002),27,-25,14,yes,x,5,x,0.5668499000603333,1,76,test1,2,0.5671399000566453,-70.0
23,lyy,f,22,r,1,(121.76378772032346, -121.76378772032352),28,-5,12,yes,x,5,x,0.6225980999879539,1,77,test1,2,0.6229653999907896,-50.0
23,lyy,f,22,r,1,(-172.20000000000002, 2.1088417881317425e-14),25,3,1,no,m,6,m,0.8498530000215396,1,78,test1,2,0.8499669999582693,-50.0
23,lyy,f,22,r,1,(121.76378772032349, 121.76378772032349),22,5,2,yes,x,5,x,0.6515189999481663,1,79,test1,2,0.6517978999763727,-40.0
23,lyy,f,22,r,1,(1.0544208940658713e-14, 172.20000000000002),23,3,1,no,m,6,m,0.710042400052771,1,80,test1,2,0.7101457000244409,-40.0
23,lyy,f,22,r,1,(1.0544208940658713e-14, 172.20000000000002),23,-7,13,yes,x,5,x,0.6092878999188542,1,81,test1,2,0.6099046999588609,-52.0
23,lyy,f,22,r,1,(121.76378772032349, 121.76378772032349),22,25,4,yes,x,5,x,0.6147778000449762,1,82,test1,2,0.6148995000403374,-20.0
23,lyy,f,22,r,1,(-121.76378772032352, -121.76378772032348),26,3,1,yes,x,5,x,0.7434584000147879,1,83,test1,2,0.7437380000483245,-42.0
23,lyy,f,22,r,1,(-121.76378772032352, -121.76378772032348),26,-5,12,yes,x,5,x,0.6344741000793874,1,84,test1,2,0.6349614000646397,-50.0
23,lyy,f,22,r,1,(1.0544208940658713e-14, 172.20000000000002),23,7,3,no,m,6,m,0.8136954000219703,1,85,test1,2,0.8138524999376386,-50.0
23,lyy,f,22,r,1,(172.20000000000002, 0.0),21,-5,12,yes,x,5,x,0.6299094000132754,1,86,test1,2,0.6300188000313938,-50.0
23,lyy,f,22,r,1,(121.76378772032346, -121.76378772032352),28,5,2,yes,x,5,x,0.6561424999963492,1,87,test1,2,0.6562415000516921,-40.0
23,lyy,f,22,r,1,(-121.76378772032348, 121.76378772032349),24,3,1,no,m,6,m,0.7626812000526115,1,88,test1,2,0.7627924999687821,-40.0
23,lyy,f,22,r,1,(1.0544208940658713e-14, 172.20000000000002),23,3,1,yes,x,5,x,0.7124974000034854,1,89,test1,2,0.7126230000285432,-42.0
23,lyy,f,22,r,1,(-172.20000000000002, 2.1088417881317425e-14),25,7,3,yes,x,5,x,0.5854561000596732,1,90,test1,2,0.5855632000602782,-38.0
23,lyy,f,22,r,1,(121.76378772032349, 121.76378772032349),22,5,2,no,m,6,m,0.8323865999700502,1,91,test1,2,0.8326013999758288,-38.0
23,lyy,f,22,r,1,(-3.163262682197613e-14, -172.20000000000002),27,3,1,no,m,6,m,0.7033332999562845,1,92,test1,2,0.7036670000525191,-38.0
23,lyy,f,22,r,1,(1.0544208940658713e-14, 172.20000000000002),23,-7,13,yes,x,5,x,0.6185795000055805,1,93,test1,2,0.6187946000136435,-52.0
23,lyy,f,22,r,1,(121.76378772032349, 121.76378772032349),22,-7,13,yes,x,5,x,0.732430599979125,1,94,test1,2,0.732539499993436,-52.0
23,lyy,f,22,r,1,(1.0544208940658713e-14, 172.20000000000002),23,-25,14,yes,x,5,x,0.5804598999675363,1,95,test1,2,0.5806185000110418,-70.0
23,lyy,f,22,r,1,(-3.163262682197613e-14, -172.20000000000002),27,7,3,yes,x,5,x,0.6167756000068039,1,96,test1,2,0.6170770999742672,-38.0
23,lyy,f,22,r,1,(121.76378772032346, -121.76378772032352),28,7,3,yes,x,5,x,0.6995186000131071,1,1,test2,2,0.6996497000800446,-38.0
23,lyy,f,22,r,1,(-121.76378772032348, 121.76378772032349),24,25,4,no,m,6,m,0.9360276999650523,1,2,test2,2,0.9361849999986589,-38.0
23,lyy,f,22,r,1,(-3.163262682197613e-14, -172.20000000000002),27,5,2,yes,x,5,x,0.7344683000119403,1,3,test2,2,0.734670800040476,-40.0
23,lyy,f,22,r,1,(121.76378772032346, -121.76378772032352),28,-25,14,no,m,6,m,0.7770373000530526,1,4,test2,2,0.7771442000521347,-40.0
23,lyy,f,22,r,1,(121.76378772032349, 121.76378772032349),22,7,3,no,m,6,x,0.813067700015381,0,5,test2,2,0.8131887000054121,-40.0
23,lyy,f,22,r,1,(1.0544208940658713e-14, 172.20000000000002),23,7,3,yes,x,5,x,0.607719499967061,1,6,test2,2,0.6078471000073478,-38.0
23,lyy,f,22,r,1,(-121.76378772032348, 121.76378772032349),24,-5,12,yes,x,5,x,0.690177800017409,1,7,test2,2,0.6903075000736862,-50.0
23,lyy,f,22,r,1,(1.0544208940658713e-14, 172.20000000000002),23,25,4,yes,x,5,x,0.5425966000184417,1,8,test2,2,0.5428941999562085,-20.0
23,lyy,f,22,r,1,(-3.163262682197613e-14, -172.20000000000002),27,-5,12,yes,x,5,x,0.8327151000266895,1,9,test2,2,0.8328856999287382,-50.0
23,lyy,f,22,r,1,(172.20000000000002, 0.0),21,7,3,yes,x,5,x,0.5714558999752626,1,10,test2,2,0.5718218999681994,-38.0
23,lyy,f,22,r,1,(-121.76378772032352, -121.76378772032348),26,-5,12,no,m,6,m,0.7768344000214711,1,11,test2,2,0.7771343000931665,-38.0
23,lyy,f,22,r,1,(-121.76378772032348, 121.76378772032349),24,-7,13,yes,x,5,x,0.6021196000510827,1,12,test2,2,0.602417099988088,-52.0
23,lyy,f,22,r,1,(121.76378772032349, 121.76378772032349),22,-25,14,yes,x,5,x,0.7054821000201628,1,13,test2,2,0.7056064000353217,-70.0
23,lyy,f,22,r,1,(-121.76378772032352, -121.76378772032348),26,-25,14,yes,x,5,x,0.6324292999925092,1,14,test2,2,0.6327245000284165,-70.0
23,lyy,f,22,r,1,(-172.20000000000002, 2.1088417881317425e-14),25,-25,14,yes,x,5,x,0.5653420999879017,1,15,test2,2,0.5655044000595808,-70.0
23,lyy,f,22,r,1,(172.20000000000002, 0.0),21,3,1,yes,x,5,x,0.8194349000696093,1,16,test2,2,0.8195378000382334,-42.0
23,lyy,f,22,r,1,(-172.20000000000002, 2.1088417881317425e-14),25,3,1,yes,x,5,m,1.3817309000296518,0,17,test2,2,1.3818620999809355,-42.0
23,lyy,f,22,r,1,(121.76378772032346, -121.76378772032352),28,-7,13,yes,x,5,x,0.5662208000430837,1,18,test2,2,0.5663246000185609,-52.0
23,lyy,f,22,r,1,(-121.76378772032352, -121.76378772032348),26,7,3,yes,x,5,x,0.5877613000338897,1,19,test2,2,0.588058799970895,-38.0
23,lyy,f,22,r,1,(-172.20000000000002, 2.1088417881317425e-14),25,-7,13,yes,x,5,x,0.6360789000755176,1,20,test2,2,0.636421800008975,-52.0
23,lyy,f,22,r,1,(-121.76378772032352, -121.76378772032348),26,-25,14,no,m,6,m,0.9013257999904454,1,21,test2,2,0.9015464999247342,-52.0
23,lyy,f,22,r,1,(121.76378772032349, 121.76378772032349),22,3,1,no,m,6,m,0.7725283999461681,1,22,test2,2,0.7726371000753716,-52.0
23,lyy,f,22,r,1,(-121.76378772032348, 121.76378772032349),24,7,3,yes,x,5,x,0.6927033000392839,1,23,test2,2,0.6928640999831259,-38.0
23,lyy,f,22,r,1,(121.76378772032346, -121.76378772032352),28,-25,14,yes,x,5,x,0.7538199999835342,1,24,test2,2,0.7541158000240102,-70.0
23,lyy,f,22,r,1,(172.20000000000002, 0.0),21,3,1,no,m,6,m,0.7708679999923334,1,25,test2,2,0.7709737000986934,-70.0
23,lyy,f,22,r,1,(-3.163262682197613e-14, -172.20000000000002),27,5,2,no,m,6,m,0.7421592000173405,1,26,test2,2,0.7422616999829188,-70.0
23,lyy,f,22,r,1,(121.76378772032349, 121.76378772032349),22,3,1,yes,x,5,x,0.8199971999274567,1,27,test2,2,0.8205304999137297,-42.0
23,lyy,f,22,r,1,(-172.20000000000002, 2.1088417881317425e-14),25,3,1,yes,x,5,x,0.8791520000668243,1,28,test2,2,0.8796156999887899,-42.0
23,lyy,f,22,r,1,(-121.76378772032352, -121.76378772032348),26,25,4,yes,x,5,x,0.6133813000051305,1,29,test2,2,0.6134903999045491,-20.0
23,lyy,f,22,r,1,(-121.76378772032348, 121.76378772032349),24,25,4,yes,x,5,x,0.5211593999993056,1,30,test2,2,0.521268600015901,-20.0
23,lyy,f,22,r,1,(1.0544208940658713e-14, 172.20000000000002),23,-5,12,no,m,6,m,0.8759721999522299,1,31,test2,2,0.8762159999459982,-20.0
23,lyy,f,22,r,1,(121.76378772032349, 121.76378772032349),22,-7,13,no,m,6,m,0.8206180999986827,1,32,test2,2,0.8207815000787377,-20.0
23,lyy,f,22,r,1,(121.76378772032349, 121.76378772032349),22,-3,11,yes,x,5,x,0.7814466999843717,1,33,test2,2,0.7816024000057951,-48.0
23,lyy,f,22,r,1,(121.76378772032346, -121.76378772032352),28,25,4,no,m,6,m,0.727942300029099,1,34,test2,2,0.7280443999916315,-48.0
23,lyy,f,22,r,1,(-121.76378772032352, -121.76378772032348),26,5,2,yes,x,5,x,0.6186951999552548,1,35,test2,2,0.6192724000429735,-40.0
23,lyy,f,22,r,1,(1.0544208940658713e-14, 172.20000000000002),23,3,1,yes,x,5,m,0.6619622999569401,0,36,test2,2,0.6620657999301329,-42.0
23,lyy,f,22,r,1,(172.20000000000002, 0.0),21,7,3,no,m,6,m,0.9747188999317586,1,37,test2,2,0.9748262000503018,-42.0
23,lyy,f,22,r,1,(172.20000000000002, 0.0),21,-3,11,yes,x,5,x,0.7819846000056714,1,38,test2,2,0.7821533000096679,-48.0
23,lyy,f,22,r,1,(121.76378772032349, 121.76378772032349),22,7,3,yes,x,5,x,0.8311443999409676,1,39,test2,2,0.8313690000213683,-38.0
23,lyy,f,22,r,1,(-121.76378772032348, 121.76378772032349),24,5,2,no,m,6,m,0.9457351999590173,1,40,test2,2,0.9458429999649525,-38.0
23,lyy,f,22,r,1,(1.0544208940658713e-14, 172.20000000000002),23,25,4,no,m,6,m,0.9435397000052035,1,41,test2,2,0.9436466000042856,-38.0
23,lyy,f,22,r,1,(-121.76378772032352, -121.76378772032348),26,-5,12,yes,x,5,x,0.672608399996534,1,42,test2,2,0.6727369999280199,-50.0
23,lyy,f,22,r,1,(121.76378772032349, 121.76378772032349),22,-3,11,no,m,6,m,0.7239652000134811,1,43,test2,2,0.7241256000706926,-50.0
23,lyy,f,22,r,1,(-121.76378772032348, 121.76378772032349),24,-25,14,yes,x,5,x,0.6646778000285849,1,44,test2,2,0.6647799999918789,-70.0
23,lyy,f,22,r,1,(-172.20000000000002, 2.1088417881317425e-14),25,5,2,yes,x,5,x,0.7528847999637946,1,45,test2,2,0.7531004999764264,-40.0
23,lyy,f,22,r,1,(-172.20000000000002, 2.1088417881317425e-14),25,-25,14,yes,x,5,x,0.5851243999786675,1,46,test2,2,0.5852578000631183,-70.0
23,lyy,f,22,r,1,(-3.163262682197613e-14, -172.20000000000002),27,7,3,no,m,6,m,0.7755123000824824,1,47,test2,2,0.7757203999208286,-70.0
23,lyy,f,22,r,1,(121.76378772032346, -121.76378772032352),28,-3,11,yes,x,5,m,0.8866940999869257,0,48,test2,2,0.8867936000460759,-48.0
23,lyy,f,22,r,1,(-121.76378772032352, -121.76378772032348),26,25,4,yes,x,5,x,0.6017873000819236,1,49,test2,2,0.6023186000529677,-20.0
23,lyy,f,22,r,1,(121.76378772032346, -121.76378772032352),28,-3,11,yes,x,5,x,0.7111131000565365,1,50,test2,2,0.7112164999125525,-48.0
23,lyy,f,22,r,1,(172.20000000000002, 0.0),21,-3,11,no,m,6,m,0.7914355000248179,1,51,test2,2,0.7916962000308558,-48.0
23,lyy,f,22,r,1,(-3.163262682197613e-14, -172.20000000000002),27,25,4,yes,x,5,x,0.5494850999675691,1,52,test2,2,0.5496955000562593,-20.0
23,lyy,f,22,r,1,(121.76378772032349, 121.76378772032349),22,-3,11,yes,x,5,x,0.6381811000173911,1,53,test2,2,0.6384476000675932,-48.0
23,lyy,f,22,r,1,(-3.163262682197613e-14, -172.20000000000002),27,-7,13,yes,x,5,x,0.5639443999389187,1,54,test2,2,0.5646382999839261,-52.0
23,lyy,f,22,r,1,(1.0544208940658713e-14, 172.20000000000002),23,-3,11,yes,x,5,x,0.8947567000286654,1,55,test2,2,0.8949844000162557,-48.0
23,lyy,f,22,r,1,(121.76378772032346, -121.76378772032352),28,7,3,no,m,6,m,0.7932470999658108,1,56,test2,2,0.7934384000254795,-48.0
23,lyy,f,22,r,1,(172.20000000000002, 0.0),21,-25,14,yes,x,5,x,0.514960499946028,1,57,test2,2,0.5153327999869362,-70.0
23,lyy,f,22,r,1,(121.76378772032346, -121.76378772032352),28,3,1,yes,x,5,m,0.9651414999971166,0,58,test2,2,0.9655328000662848,-42.0
23,lyy,f,22,r,1,(-172.20000000000002, 2.1088417881317425e-14),25,-5,12,yes,x,5,x,0.6790339999133721,1,59,test2,2,0.6793295999523252,-50.0
23,lyy,f,22,r,1,(121.76378772032349, 121.76378772032349),22,-5,12,no,m,6,m,1.0259424999821931,1,60,test2,2,1.0260469999630004,-50.0
23,lyy,f,22,r,1,(1.0544208940658713e-14, 172.20000000000002),23,-3,11,no,m,6,m,1.5183244000654668,1,61,test2,2,1.5185435999883339,-50.0
23,lyy,f,22,r,1,(172.20000000000002, 0.0),21,7,3,yes,x,5,x,0.5980720999650657,1,62,test2,2,0.5982585001038387,-38.0
23,lyy,f,22,r,1,(-3.163262682197613e-14, -172.20000000000002),27,5,2,yes,x,5,x,0.6151204999769107,1,63,test2,2,0.6152376000536606,-40.0
23,lyy,f,22,r,1,(-172.20000000000002, 2.1088417881317425e-14),25,25,4,yes,x,5,x,0.6227673999965191,1,64,test2,2,0.6228686000686139,-20.0
23,lyy,f,22,r,1,(121.76378772032349, 121.76378772032349),22,25,4,yes,x,5,x,0.5510156999807805,1,65,test2,2,0.5514248000690714,-20.0
23,lyy,f,22,r,1,(-121.76378772032348, 121.76378772032349),24,-25,14,no,m,6,m,0.8924974000547081,1,66,test2,2,0.8930073000956327,-20.0
23,lyy,f,22,r,1,(1.0544208940658713e-14, 172.20000000000002),23,5,2,yes,x,5,x,0.6006116999778897,1,67,test2,2,0.6009299999568611,-40.0
23,lyy,f,22,r,1,(-3.163262682197613e-14, -172.20000000000002),27,3,1,yes,x,5,x,0.8046177999349311,1,68,test2,2,0.804780500009656,-42.0
23,lyy,f,22,r,1,(-3.163262682197613e-14, -172.20000000000002),27,-5,12,yes,x,5,x,0.6909449000377208,1,69,test2,2,0.691069700056687,-50.0
23,lyy,f,22,r,1,(-172.20000000000002, 2.1088417881317425e-14),25,25,4,no,m,6,m,0.9340477000223473,1,70,test2,2,0.9341824000002816,-50.0
23,lyy,f,22,r,1,(-3.163262682197613e-14, -172.20000000000002),27,-7,13,no,m,6,m,1.0283049000427127,1,71,test2,2,1.0284363999962807,-50.0
23,lyy,f,22,r,1,(-3.163262682197613e-14, -172.20000000000002),27,-25,14,yes,x,5,m,0.9242147000040859,0,72,test2,2,0.9244784999173135,-70.0
23,lyy,f,22,r,1,(-121.76378772032352, -121.76378772032348),26,25,4,no,m,6,m,1.0856562000699341,1,73,test2,2,1.0858097999589518,-70.0
23,lyy,f,22,r,1,(172.20000000000002, 0.0),21,-7,13,yes,x,5,x,0.6381723000667989,1,74,test2,2,0.6387395000783727,-52.0
23,lyy,f,22,r,1,(-121.76378772032352, -121.76378772032348),26,-7,13,no,m,6,m,0.8059947999427095,1,75,test2,2,0.8063123000320047,-52.0
23,lyy,f,22,r,1,(121.76378772032349, 121.76378772032349),22,-25,14,no,m,6,m,1.1981068999739364,1,76,test2,2,1.1982066000346094,-52.0
23,lyy,f,22,r,1,(-3.163262682197613e-14, -172.20000000000002),27,-25,14,no,m,6,m,0.9016015999950469,1,77,test2,2,0.9017200999660417,-52.0
23,lyy,f,22,r,1,(121.76378772032346, -121.76378772032352),28,-3,11,no,m,6,m,1.1000650000059977,1,78,test2,2,1.1001655000727624,-52.0
23,lyy,f,22,r,1,(-3.163262682197613e-14, -172.20000000000002),27,7,3,yes,x,5,x,0.5560971999075264,1,79,test2,2,0.5564812999218702,-38.0
23,lyy,f,22,r,1,(-121.76378772032352, -121.76378772032348),26,5,2,yes,x,5,x,0.7859746000031009,1,80,test2,2,0.786106999963522,-40.0
23,lyy,f,22,r,1,(1.0544208940658713e-14, 172.20000000000002),23,7,3,yes,x,5,x,0.6145264999940991,1,81,test2,2,0.614984100102447,-38.0
23,lyy,f,22,r,1,(1.0544208940658713e-14, 172.20000000000002),23,25,4,yes,x,5,x,0.5385527999605983,1,82,test2,2,0.538658499950543,-20.0
23,lyy,f,22,r,1,(1.0544208940658713e-14, 172.20000000000002),23,5,2,yes,x,5,x,0.71322220005095,1,83,test2,2,0.7134684000629932,-40.0
23,lyy,f,22,r,1,(121.76378772032349, 121.76378772032349),22,5,2,yes,x,5,x,0.6713889000238851,1,84,test2,2,0.6715045999735594,-40.0
23,lyy,f,22,r,1,(-121.76378772032352, -121.76378772032348),26,-7,13,yes,x,5,x,0.8424518000101671,1,85,test2,2,0.8425592000130564,-52.0
23,lyy,f,22,r,1,(172.20000000000002, 0.0),21,5,2,no,m,6,m,1.0645362000213936,1,86,test2,2,1.0650714000221342,-52.0
23,lyy,f,22,r,1,(-121.76378772032352, -121.76378772032348),26,3,1,no,m,6,m,0.8391723000677302,1,87,test2,2,0.8392981999786571,-52.0
23,lyy,f,22,r,1,(-3.163262682197613e-14, -172.20000000000002),27,-3,11,yes,x,5,x,0.7918324000202119,1,88,test2,2,0.7919657999882475,-48.0
23,lyy,f,22,r,1,(172.20000000000002, 0.0),21,5,2,yes,x,5,x,0.6365451000165194,1,89,test2,2,0.636648999992758,-40.0
23,lyy,f,22,r,1,(1.0544208940658713e-14, 172.20000000000002),23,-7,13,no,m,6,m,0.9423030000180006,1,90,test2,2,0.9425949000287801,-40.0
23,lyy,f,22,r,1,(121.76378772032346, -121.76378772032352),28,5,2,no,m,6,m,1.0095199999632314,1,91,test2,2,1.009645799989812,-40.0
23,lyy,f,22,r,1,(-121.76378772032348, 121.76378772032349),24,7,3,no,m,6,m,0.9254718999145553,1,92,test2,2,0.925654299906455,-40.0
23,lyy,f,22,r,1,(172.20000000000002, 0.0),21,-25,14,no,m,6,m,0.9684547999640927,1,93,test2,2,0.9687392999185249,-40.0
23,lyy,f,22,r,1,(-121.76378772032348, 121.76378772032349),24,-7,13,yes,x,5,x,0.715557900024578,1,94,test2,2,0.7157267000293359,-52.0
23,lyy,f,22,r,1,(121.76378772032346, -121.76378772032352),28,-5,12,yes,x,5,x,1.0226882999995723,1,95,test2,2,1.0230518000898883,-50.0
23,lyy,f,22,r,1,(-121.76378772032352, -121.76378772032348),26,3,1,yes,x,5,m,0.9553304999135435,0,96,test2,2,0.9554428999545053,-42.0
23,lyy,f,22,r,1,(-3.163262682197613e-14, -172.20000000000002),27,-5,12,no,m,6,m,0.6880092000355944,1,1,test1,3,0.688272999948822,-42.0
23,lyy,f,22,r,1,(-121.76378772032348, 121.76378772032349),24,-7,13,no,m,6,m,0.9601145000196993,1,2,test1,3,0.960462799994275,-42.0
23,lyy,f,22,r,1,(121.76378772032346, -121.76378772032352),28,25,4,yes,x,5,x,0.5394699999596924,1,3,test1,3,0.5399196000071242,-20.0
23,lyy,f,22,r,1,(-121.76378772032348, 121.76378772032349),24,-5,12,yes,x,5,x,0.6810101999435574,1,4,test1,3,0.681622099946253,-50.0
23,lyy,f,22,r,1,(-121.76378772032348, 121.76378772032349),24,5,2,yes,x,5,x,0.7039409000426531,1,5,test1,3,0.7042620999272913,-40.0
23,lyy,f,22,r,1,(172.20000000000002, 0.0),21,-5,12,no,m,6,m,0.7648673999356106,1,6,test1,3,0.7649951999774203,-40.0
23,lyy,f,22,r,1,(-121.76378772032352, -121.76378772032348),26,-3,11,yes,x,5,x,0.9406138000776991,1,7,test1,3,0.9408704999368638,-48.0
23,lyy,f,22,r,1,(-3.163262682197613e-14, -172.20000000000002),27,3,1,yes,x,5,m,1.0089242999674752,0,8,test1,3,1.0090261999284849,-42.0
23,lyy,f,22,r,1,(121.76378772032346, -121.76378772032352),28,5,2,yes,x,5,x,0.7250851000426337,1,9,test1,3,0.7252531000413001,-40.0
23,lyy,f,22,r,1,(-121.76378772032352, -121.76378772032348),26,-25,14,yes,x,5,x,0.6871533000376076,1,10,test1,3,0.6872734000207856,-70.0
23,lyy,f,22,r,1,(121.76378772032346, -121.76378772032352),28,7,3,yes,x,5,x,0.7672734999796376,1,11,test1,3,0.7674027999164537,-38.0
23,lyy,f,22,r,1,(-121.76378772032348, 121.76378772032349),24,-5,12,no,m,6,m,0.8417883000802249,1,12,test1,3,0.8420755999395624,-38.0
23,lyy,f,22,r,1,(-121.76378772032348, 121.76378772032349),24,-25,14,yes,x,5,x,0.7233289000578225,1,13,test1,3,0.7235135000664741,-70.0
23,lyy,f,22,r,1,(121.76378772032349, 121.76378772032349),22,3,1,yes,x,5,m,0.9136906999628991,0,14,test1,3,0.9138239999301732,-42.0
23,lyy,f,22,r,1,(121.76378772032346, -121.76378772032352),28,25,4,yes,x,5,x,0.7878103000111878,1,15,test1,3,0.7884360000025481,-20.0
23,lyy,f,22,r,1,(172.20000000000002, 0.0),21,-7,13,yes,x,5,x,0.8345402999548241,1,16,test1,3,0.8349504000507295,-52.0
23,lyy,f,22,r,1,(172.20000000000002, 0.0),21,5,2,yes,x,5,x,0.8068442998919636,1,17,test1,3,0.8072637000586838,-40.0
23,lyy,f,22,r,1,(172.20000000000002, 0.0),21,25,4,yes,x,5,x,0.7162099999841303,1,18,test1,3,0.7163910999661312,-20.0
23,lyy,f,22,r,1,(1.0544208940658713e-14, 172.20000000000002),23,-25,14,no,m,6,x,1.2938406999455765,0,19,test1,3,1.294055699952878,-20.0
23,lyy,f,22,r,1,(172.20000000000002, 0.0),21,-7,13,no,m,6,m,1.0412836000323296,1,20,test1,3,1.0413801000686362,-20.0
23,lyy,f,22,r,1,(-3.163262682197613e-14, -172.20000000000002),27,-3,11,yes,x,5,x,1.3629490999737754,1,21,test1,3,1.363294400041923,-48.0
23,lyy,f,22,r,1,(1.0544208940658713e-14, 172.20000000000002),23,-3,11,yes,x,5,m,1.502837499952875,0,22,test1,3,1.5030622000340372,-48.0
23,lyy,f,22,r,1,(-121.76378772032352, -121.76378772032348),26,5,2,no,m,6,m,0.9722609999589622,1,23,test1,3,0.9728617001092061,-48.0
23,lyy,f,22,r,1,(172.20000000000002, 0.0),21,-5,12,yes,x,5,x,0.862776100053452,1,24,test1,3,0.8630217000609264,-50.0
23,lyy,f,22,r,1,(121.76378772032349, 121.76378772032349),22,-5,12,yes,x,5,x,0.8189775000791997,1,25,test1,3,0.8190831000683829,-50.0
23,lyy,f,22,r,1,(-121.76378772032348, 121.76378772032349),24,7,3,yes,x,5,x,0.6810454999795184,1,26,test1,3,0.6814457000000402,-38.0
23,lyy,f,22,r,1,(-172.20000000000002, 2.1088417881317425e-14),25,-5,12,no,m,6,x,1.289578599971719,0,27,test1,3,1.2896866999799386,-38.0
23,lyy,f,22,r,1,(121.76378772032346, -121.76378772032352),28,-5,12,no,m,6,m,1.056862699915655,1,28,test1,3,1.0569967000046745,-38.0
23,lyy,f,22,r,1,(172.20000000000002, 0.0),21,25,4,no,m,6,m,1.0034452000400051,1,29,test1,3,1.0037402999587357,-38.0
23,lyy,f,22,r,1,(1.0544208940658713e-14, 172.20000000000002),23,-5,12,yes,x,5,x,0.7618695999262854,1,30,test1,3,0.7622931000078097,-50.0
23,lyy,f,22,r,1,(-172.20000000000002, 2.1088417881317425e-14),25,7,3,no,m,6,m,0.9282858999213204,1,31,test1,3,0.9285835999762639,-50.0
23,lyy,f,22,r,1,(-121.76378772032352, -121.76378772032348),26,-3,11,no,m,6,m,1.224411299917847,1,32,test1,3,1.2245920000132173,-50.0
23,lyy,f,22,r,1,(121.76378772032349, 121.76378772032349),22,-25,14,yes,x,5,x,0.6863591000437737,1,33,test1,3,0.6865287000546232,-70.0
23,lyy,f,22,r,1,(-3.163262682197613e-14, -172.20000000000002),27,-3,11,no,m,6,m,0.9043910999316722,1,34,test1,3,0.9050220999633893,-70.0
23,lyy,f,22,r,1,(-121.76378772032352, -121.76378772032348),26,-3,11,yes,x,5,x,0.933744200039655,1,35,test1,3,0.9339800999732688,-48.0
23,lyy,f,22,r,1,(-121.76378772032348, 121.76378772032349),24,-3,11,yes,x,5,x,1.0489129000343382,1,36,test1,3,1.049157700035721,-48.0
23,lyy,f,22,r,1,(-121.76378772032352, -121.76378772032348),26,7,3,yes,x,5,x,0.7692997999256477,1,37,test1,3,0.7695280999178067,-38.0
23,lyy,f,22,r,1,(-121.76378772032348, 121.76378772032349),24,-3,11,no,m,6,m,1.1107347999932244,1,38,test1,3,1.1108374999603257,-38.0
23,lyy,f,22,r,1,(1.0544208940658713e-14, 172.20000000000002),23,-5,12,yes,x,5,x,1.0379021000117064,1,39,test1,3,1.0382529000053182,-50.0
23,lyy,f,22,r,1,(-172.20000000000002, 2.1088417881317425e-14),25,-5,12,yes,x,5,x,0.8021553000435233,1,40,test1,3,0.802356000058353,-50.0
23,lyy,f,22,r,1,(-172.20000000000002, 2.1088417881317425e-14),25,5,2,yes,x,5,x,0.6992070999694988,1,41,test1,3,0.699315799982287,-40.0
23,lyy,f,22,r,1,(-121.76378772032348, 121.76378772032349),24,3,1,yes,x,5,x,0.8158676000311971,1,42,test1,3,0.8161197999725118,-42.0
23,lyy,f,22,r,1,(121.76378772032346, -121.76378772032352),28,3,1,no,m,6,m,1.1315280999988317,1,43,test1,3,1.1316309000831097,-42.0
23,lyy,f,22,r,1,(-121.76378772032352, -121.76378772032348),26,-7,13,yes,x,5,x,0.8257751000346616,1,44,test1,3,0.8258816000306979,-52.0
23,lyy,f,22,r,1,(-172.20000000000002, 2.1088417881317425e-14),25,25,4,yes,x,5,x,0.7210189999314025,1,45,test1,3,0.7211224000202492,-20.0
23,lyy,f,22,r,1,(-121.76378772032348, 121.76378772032349),24,5,2,yes,x,5,x,0.7778549001086503,1,46,test1,3,0.7779787000035867,-40.0
23,lyy,f,22,r,1,(-172.20000000000002, 2.1088417881317425e-14),25,-3,11,yes,x,5,x,1.124812800087966,1,47,test1,3,1.1249556000111625,-48.0
23,lyy,f,22,r,1,(-172.20000000000002, 2.1088417881317425e-14),25,-3,11,yes,x,5,x,0.7521064999746159,1,48,test1,3,0.7524347000289708,-48.0
23,lyy,f,22,r,1,(121.76378772032346, -121.76378772032352),28,-7,13,yes,x,5,x,0.8567404999630526,1,49,test1,3,0.8571330999257043,-52.0
23,lyy,f,22,r,1,(1.0544208940658713e-14, 172.20000000000002),23,5,2,no,m,6,x,1.397119199973531,0,50,test1,3,1.3974333999212831,-52.0
23,lyy,f,22,r,1,(-172.20000000000002, 2.1088417881317425e-14),25,5,2,no,m,6,m,1.1774836999829859,1,51,test1,3,1.1780013999668881,-52.0
23,lyy,f,22,r,1,(121.76378772032349, 121.76378772032349),22,-5,12,yes,x,5,x,0.8994148999918252,1,52,test1,3,0.8995182000799105,-50.0
23,lyy,f,22,r,1,(121.76378772032349, 121.76378772032349),22,-7,13,yes,x,5,x,0.8047485999995843,1,53,test1,3,0.8048722000094131,-52.0
23,lyy,f,22,r,1,(121.76378772032349, 121.76378772032349),22,25,4,no,m,6,m,1.1397404000163078,1,54,test1,3,1.1398576999781653,-52.0
23,lyy,f,22,r,1,(-121.76378772032348, 121.76378772032349),24,3,1,yes,x,5,x,1.3404493000125512,1,55,test1,3,1.340554099995643,-42.0
23,lyy,f,22,r,1,(121.76378772032346, -121.76378772032352),28,3,1,yes,x,5,x,0.9390800000401214,1,56,test1,3,0.9391763000749052,-42.0
23,lyy,f,22,r,1,(-172.20000000000002, 2.1088417881317425e-14),25,7,3,yes,x,5,x,0.7728710999945179,1,57,test1,3,0.7730836999835446,-38.0
23,lyy,f,22,r,1,(-172.20000000000002, 2.1088417881317425e-14),25,-7,13,yes,x,5,x,0.6730158999562263,1,58,test1,3,0.6731207999400795,-52.0
23,lyy,f,22,r,1,(-172.20000000000002, 2.1088417881317425e-14),25,-3,11,no,m,6,m,0.8828074000775814,1,59,test1,3,0.8829450999619439,-52.0
23,lyy,f,22,r,1,(121.76378772032346, -121.76378772032352),28,-7,13,no,m,6,m,1.167761899996549,1,60,test1,3,1.1678868000162765,-52.0
23,lyy,f,22,r,1,(-3.163262682197613e-14, -172.20000000000002),27,-7,13,yes,x,5,x,0.7727712000487372,1,61,test1,3,0.7729575000703335,-52.0
23,lyy,f,22,r,1,(-3.163262682197613e-14, -172.20000000000002),27,25,4,no,m,6,m,0.9335828999755904,1,62,test1,3,0.9341124000493437,-52.0
23,lyy,f,22,r,1,(172.20000000000002, 0.0),21,-3,11,yes,x,5,x,0.8806636000517756,1,63,test1,3,0.8809544999385253,-48.0
23,lyy,f,22,r,1,(121.76378772032349, 121.76378772032349),22,7,3,yes,x,5,x,0.785634099971503,1,64,test1,3,0.7859689000761136,-38.0
23,lyy,f,22,r,1,(-3.163262682197613e-14, -172.20000000000002),27,25,4,yes,x,5,x,0.7369723999872804,1,65,test1,3,0.737211300060153,-20.0
23,lyy,f,22,r,1,(172.20000000000002, 0.0),21,25,4,yes,x,5,x,0.7717500999569893,1,66,test1,3,0.7720866000745445,-20.0
23,lyy,f,22,r,1,(-121.76378772032348, 121.76378772032349),24,-3,11,yes,x,5,x,0.960399099974893,1,67,test1,3,0.9605035000713542,-48.0
23,lyy,f,22,r,1,(-172.20000000000002, 2.1088417881317425e-14),25,-25,14,no,m,6,m,0.9998361000325531,1,68,test1,3,0.999968400108628,-48.0
23,lyy,f,22,r,1,(121.76378772032346, -121.76378772032352),28,-25,14,yes,x,5,x,0.8505033999681473,1,69,test1,3,0.8507561000296846,-70.0
23,lyy,f,22,r,1,(-121.76378772032352, -121.76378772032348),26,7,3,no,m,6,m,1.1843684000195935,1,70,test1,3,1.1845904000801966,-70.0
23,lyy,f,22,r,1,(1.0544208940658713e-14, 172.20000000000002),23,-25,14,yes,x,5,x,0.8397412999765947,1,71,test1,3,0.840215599979274,-70.0
23,lyy,f,22,r,1,(172.20000000000002, 0.0),21,-25,14,yes,x,5,x,0.8852749000070617,1,72,test1,3,0.8854881000006571,-70.0
23,lyy,f,22,r,1,(-121.76378772032348, 121.76378772032349),24,25,4,yes,x,5,x,0.7318841000087559,1,73,test1,3,0.7324885000707582,-20.0
23,lyy,f,22,r,1,(-172.20000000000002, 2.1088417881317425e-14),25,-7,13,no,m,6,m,1.3056193999946117,1,74,test1,3,1.3058646999998018,-20.0
23,lyy,f,22,r,1,(172.20000000000002, 0.0),21,3,1,yes,x,5,x,0.8773558000102639,1,75,test1,3,0.8774895999813452,-42.0
23,lyy,f,22,r,1,(-3.163262682197613e-14, -172.20000000000002),27,-25,14,yes,x,5,x,0.7384473999263719,1,76,test1,3,0.7387553999433294,-70.0
23,lyy,f,22,r,1,(121.76378772032346, -121.76378772032352),28,-5,12,yes,x,5,x,0.7622667000396177,1,77,test1,3,0.7623639999656007,-50.0
23,lyy,f,22,r,1,(-172.20000000000002, 2.1088417881317425e-14),25,3,1,no,m,6,m,0.9000288000097498,1,78,test1,3,0.9005127999698743,-50.0
23,lyy,f,22,r,1,(121.76378772032349, 121.76378772032349),22,5,2,yes,x,5,x,0.7048450000584126,1,79,test1,3,0.7050884000491351,-40.0
23,lyy,f,22,r,1,(1.0544208940658713e-14, 172.20000000000002),23,3,1,no,m,6,m,0.8642333999741822,1,80,test1,3,0.8644257999258116,-40.0
23,lyy,f,22,r,1,(1.0544208940658713e-14, 172.20000000000002),23,-7,13,yes,x,5,x,0.922319500008598,1,81,test1,3,0.92250620003324,-52.0
23,lyy,f,22,r,1,(121.76378772032349, 121.76378772032349),22,25,4,yes,x,5,x,0.6582891000434756,1,82,test1,3,0.6586335999891162,-20.0
23,lyy,f,22,r,1,(-121.76378772032352, -121.76378772032348),26,3,1,yes,x,5,m,0.8292249999940395,0,83,test1,3,0.8293589999666438,-42.0
23,lyy,f,22,r,1,(-121.76378772032352, -121.76378772032348),26,-5,12,yes,x,5,x,0.7809397999662906,1,84,test1,3,0.7812495999969542,-50.0
23,lyy,f,22,r,1,(1.0544208940658713e-14, 172.20000000000002),23,7,3,no,m,6,m,0.9991478999145329,1,85,test1,3,0.9996100999414921,-50.0
23,lyy,f,22,r,1,(172.20000000000002, 0.0),21,-5,12,yes,x,5,x,0.806373699917458,1,86,test1,3,0.8072436000220478,-50.0
23,lyy,f,22,r,1,(121.76378772032346, -121.76378772032352),28,5,2,yes,x,5,x,0.8631369000067934,1,87,test1,3,0.8633265000535175,-40.0
23,lyy,f,22,r,1,(-121.76378772032348, 121.76378772032349),24,3,1,no,m,6,m,0.9734597000060603,1,88,test1,3,0.9735821000067517,-40.0
23,lyy,f,22,r,1,(1.0544208940658713e-14, 172.20000000000002),23,3,1,yes,x,5,x,0.8442407000111416,1,89,test1,3,0.8445186000317335,-42.0
23,lyy,f,22,r,1,(-172.20000000000002, 2.1088417881317425e-14),25,7,3,yes,x,5,x,0.76260060002096,1,90,test1,3,0.7628564999904484,-38.0
23,lyy,f,22,r,1,(121.76378772032349, 121.76378772032349),22,5,2,no,m,6,m,0.9458458999870345,1,91,test1,3,0.9461297000525519,-38.0
23,lyy,f,22,r,1,(-3.163262682197613e-14, -172.20000000000002),27,3,1,no,m,6,m,0.9448717000195757,1,92,test1,3,0.9449785000178963,-38.0
23,lyy,f,22,r,1,(1.0544208940658713e-14, 172.20000000000002),23,-7,13,yes,x,5,x,0.8262822000542656,1,93,test1,3,0.8264069999568164,-52.0
23,lyy,f,22,r,1,(121.76378772032349, 121.76378772032349),22,-7,13,yes,x,5,x,0.8889020000351593,1,94,test1,3,0.8890073000220582,-52.0
23,lyy,f,22,r,1,(1.0544208940658713e-14, 172.20000000000002),23,-25,14,yes,x,5,x,0.7322665000101551,1,95,test1,3,0.7324805998941883,-70.0
23,lyy,f,22,r,1,(-3.163262682197613e-14, -172.20000000000002),27,7,3,yes,x,5,x,0.7922972000669688,1,96,test1,3,0.7926086999941617,-38.0
23,lyy,f,22,r,1,(121.76378772032346, -121.76378772032352),28,7,3,yes,x,5,x,0.8541568999644369,1,1,test2,3,0.8542809999780729,-38.0
23,lyy,f,22,r,1,(-121.76378772032348, 121.76378772032349),24,25,4,no,m,6,m,0.9971770000411198,1,2,test2,3,0.997418100014329,-38.0
23,lyy,f,22,r,1,(-3.163262682197613e-14, -172.20000000000002),27,5,2,yes,x,5,x,0.6832653000019491,1,3,test2,3,0.6834852999309078,-40.0
23,lyy,f,22,r,1,(121.76378772032346, -121.76378772032352),28,-25,14,no,m,6,m,0.8022728000069037,1,4,test2,3,0.8024948000675067,-40.0
23,lyy,f,22,r,1,(121.76378772032349, 121.76378772032349),22,7,3,no,m,6,m,0.8820748999714851,1,5,test2,3,0.8822593999793753,-40.0
23,lyy,f,22,r,1,(1.0544208940658713e-14, 172.20000000000002),23,7,3,yes,x,5,x,0.5744240001076832,1,6,test2,3,0.5745488998945802,-38.0
23,lyy,f,22,r,1,(-121.76378772032348, 121.76378772032349),24,-5,12,yes,x,5,x,1.0260379000101238,1,7,test2,3,1.0261751000070944,-50.0
23,lyy,f,22,r,1,(1.0544208940658713e-14, 172.20000000000002),23,25,4,yes,x,5,x,0.5857436000369489,1,8,test2,3,0.586228400003165,-20.0
23,lyy,f,22,r,1,(-3.163262682197613e-14, -172.20000000000002),27,-5,12,yes,x,5,x,0.6158204000676051,1,9,test2,3,0.616259100032039,-50.0
23,lyy,f,22,r,1,(172.20000000000002, 0.0),21,7,3,yes,x,5,x,0.7265636000083759,1,10,test2,3,0.7267219999339432,-38.0
23,lyy,f,22,r,1,(-121.76378772032352, -121.76378772032348),26,-5,12,no,m,6,m,0.9567100000567734,1,11,test2,3,0.9568850999930874,-38.0
23,lyy,f,22,r,1,(-121.76378772032348, 121.76378772032349),24,-7,13,yes,x,5,x,0.6288015999598429,1,12,test2,3,0.6291060000658035,-52.0
23,lyy,f,22,r,1,(121.76378772032349, 121.76378772032349),22,-25,14,yes,x,5,x,0.506463999976404,1,13,test2,3,0.5065706000896171,-70.0
23,lyy,f,22,r,1,(-121.76378772032352, -121.76378772032348),26,-25,14,yes,x,5,x,0.5002561999717727,1,14,test2,3,0.5008788999402896,-70.0
23,lyy,f,22,r,1,(-172.20000000000002, 2.1088417881317425e-14),25,-25,14,yes,x,5,x,0.48303140001371503,1,15,test2,3,0.4832720000995323,-70.0
23,lyy,f,22,r,1,(172.20000000000002, 0.0),21,3,1,yes,x,5,x,0.6202037999173626,1,16,test2,3,0.6203027999727055,-42.0
23,lyy,f,22,r,1,(-172.20000000000002, 2.1088417881317425e-14),25,3,1,yes,x,5,x,1.1308422000147402,1,17,test2,3,1.1309505000244826,-42.0
23,lyy,f,22,r,1,(121.76378772032346, -121.76378772032352),28,-7,13,yes,x,5,x,0.7058256999589503,1,18,test2,3,0.7060073999455199,-52.0
23,lyy,f,22,r,1,(-121.76378772032352, -121.76378772032348),26,7,3,yes,x,5,x,0.5669119999511167,1,19,test2,3,0.5671479000011459,-38.0
23,lyy,f,22,r,1,(-172.20000000000002, 2.1088417881317425e-14),25,-7,13,yes,x,5,x,0.6215418999781832,1,20,test2,3,0.6217783000320196,-52.0
23,lyy,f,22,r,1,(-121.76378772032352, -121.76378772032348),26,-25,14,no,m,6,m,1.0044412000570446,1,21,test2,3,1.0047533999895677,-52.0
23,lyy,f,22,r,1,(121.76378772032349, 121.76378772032349),22,3,1,no,m,6,m,1.0388516000239179,1,22,test2,3,1.0389697999926284,-52.0
23,lyy,f,22,r,1,(-121.76378772032348, 121.76378772032349),24,7,3,yes,x,5,x,0.6726390999974683,1,23,test2,3,0.6728189999703318,-38.0
23,lyy,f,22,r,1,(121.76378772032346, -121.76378772032352),28,-25,14,yes,x,5,x,0.6137147999834269,1,24,test2,3,0.6138428999111056,-70.0
23,lyy,f,22,r,1,(172.20000000000002, 0.0),21,3,1,no,m,6,m,0.8696597999660298,1,25,test2,3,0.8697881000116467,-70.0
23,lyy,f,22,r,1,(-3.163262682197613e-14, -172.20000000000002),27,5,2,no,m,6,m,0.7661121999844909,1,26,test2,3,0.7663948000408709,-70.0
23,lyy,f,22,r,1,(121.76378772032349, 121.76378772032349),22,3,1,yes,x,5,x,1.0977474000537768,1,27,test2,3,1.0978508999105543,-42.0
23,lyy,f,22,r,1,(-172.20000000000002, 2.1088417881317425e-14),25,3,1,yes,x,5,x,1.126786099979654,1,28,test2,3,1.1268907999619842,-42.0
23,lyy,f,22,r,1,(-121.76378772032352, -121.76378772032348),26,25,4,yes,x,5,x,0.5979143000440672,1,29,test2,3,0.5984450000105426,-20.0
23,lyy,f,22,r,1,(-121.76378772032348, 121.76378772032349),24,25,4,yes,x,5,x,0.5728171000955626,1,30,test2,3,0.5729186000535265,-20.0
23,lyy,f,22,r,1,(1.0544208940658713e-14, 172.20000000000002),23,-5,12,no,m,6,m,0.83810439996887,1,31,test2,3,0.8383693000068888,-20.0
23,lyy,f,22,r,1,(121.76378772032349, 121.76378772032349),22,-7,13,no,m,6,m,0.7357404000358656,1,32,test2,3,0.7359981000190601,-20.0
23,lyy,f,22,r,1,(121.76378772032349, 121.76378772032349),22,-3,11,yes,x,5,x,0.9540582000045106,1,33,test2,3,0.9543915999820456,-48.0
23,lyy,f,22,r,1,(121.76378772032346, -121.76378772032352),28,25,4,no,m,6,m,1.229095800081268,1,34,test2,3,1.229463600087911,-48.0
23,lyy,f,22,r,1,(-121.76378772032352, -121.76378772032348),26,5,2,yes,x,5,x,0.6076151001034304,1,35,test2,3,0.6080281999893486,-40.0
23,lyy,f,22,r,1,(1.0544208940658713e-14, 172.20000000000002),23,3,1,yes,x,5,x,1.019190700026229,1,36,test2,3,1.019483800046146,-42.0
23,lyy,f,22,r,1,(172.20000000000002, 0.0),21,7,3,no,m,6,m,0.8926014000317082,1,37,test2,3,0.8929640999995172,-42.0
23,lyy,f,22,r,1,(172.20000000000002, 0.0),21,-3,11,yes,x,5,x,1.4628410999430344,1,38,test2,3,1.463275899994187,-48.0
23,lyy,f,22,r,1,(121.76378772032349, 121.76378772032349),22,7,3,yes,x,5,x,0.5849089999683201,1,39,test2,3,0.585119100054726,-38.0
23,lyy,f,22,r,1,(-121.76378772032348, 121.76378772032349),24,5,2,no,m,6,m,0.8453719000099227,1,40,test2,3,0.8458240000763908,-38.0
23,lyy,f,22,r,1,(1.0544208940658713e-14, 172.20000000000002),23,25,4,no,m,6,m,1.0539179000770673,1,41,test2,3,1.0541968001052737,-38.0
23,lyy,f,22,r,1,(-121.76378772032352, -121.76378772032348),26,-5,12,yes,x,5,x,0.5991473000030965,1,42,test2,3,0.5993880999740213,-50.0
23,lyy,f,22,r,1,(121.76378772032349, 121.76378772032349),22,-3,11,no,m,6,m,0.7409476999891922,1,43,test2,3,0.7410582000156865,-50.0
23,lyy,f,22,r,1,(-121.76378772032348, 121.76378772032349),24,-25,14,yes,x,5,x,1.091677299933508,1,44,test2,3,1.091798499925062,-70.0
23,lyy,f,22,r,1,(-172.20000000000002, 2.1088417881317425e-14),25,5,2,yes,x,5,x,0.6707909000106156,1,45,test2,3,0.6710025999927893,-40.0
23,lyy,f,22,r,1,(-172.20000000000002, 2.1088417881317425e-14),25,-25,14,yes,x,5,x,1.0672957999631763,1,46,test2,3,1.067520200042054,-70.0
23,lyy,f,22,r,1,(-3.163262682197613e-14, -172.20000000000002),27,7,3,no,m,6,m,1.1386395000154153,1,47,test2,3,1.138975500012748,-70.0
23,lyy,f,22,r,1,(121.76378772032346, -121.76378772032352),28,-3,11,yes,x,5,x,1.036384400096722,1,48,test2,3,1.0365446999203414,-48.0
23,lyy,f,22,r,1,(-121.76378772032352, -121.76378772032348),26,25,4,yes,x,5,x,0.5867834999226034,1,49,test2,3,0.5869269000831991,-20.0
23,lyy,f,22,r,1,(121.76378772032346, -121.76378772032352),28,-3,11,yes,x,5,x,0.8747990000993013,1,50,test2,3,0.8749035999644548,-48.0
23,lyy,f,22,r,1,(172.20000000000002, 0.0),21,-3,11,no,m,6,x,0.9796656999969855,0,51,test2,3,0.9799924000399187,-48.0
23,lyy,f,22,r,1,(-3.163262682197613e-14, -172.20000000000002),27,25,4,yes,x,5,x,0.6508592999307439,1,52,test2,3,0.6510011000791565,-20.0
23,lyy,f,22,r,1,(121.76378772032349, 121.76378772032349),22,-3,11,yes,x,5,m,0.6906368000200018,0,53,test2,3,0.6909229999873787,-48.0
23,lyy,f,22,r,1,(-3.163262682197613e-14, -172.20000000000002),27,-7,13,yes,x,5,x,0.8594592999434099,1,54,test2,3,0.859584299963899,-52.0
23,lyy,f,22,r,1,(1.0544208940658713e-14, 172.20000000000002),23,-3,11,yes,x,5,x,0.6083317999728024,1,55,test2,3,0.6085339999990538,-48.0
23,lyy,f,22,r,1,(121.76378772032346, -121.76378772032352),28,7,3,no,m,6,m,0.8266699999803677,1,56,test2,3,0.8267770999809727,-48.0
23,lyy,f,22,r,1,(172.20000000000002, 0.0),21,-25,14,yes,x,5,x,0.5292554999468848,1,57,test2,3,0.5293853000039235,-70.0
23,lyy,f,22,r,1,(121.76378772032346, -121.76378772032352),28,3,1,yes,x,5,x,1.0389076001010835,1,58,test2,3,1.039065600023605,-42.0
23,lyy,f,22,r,1,(-172.20000000000002, 2.1088417881317425e-14),25,-5,12,yes,x,5,x,0.8380570999579504,1,59,test2,3,0.8382970999227837,-50.0
23,lyy,f,22,r,1,(121.76378772032349, 121.76378772032349),22,-5,12,no,m,6,m,0.8523117000004277,1,60,test2,3,0.8529063999885693,-50.0
23,lyy,f,22,r,1,(1.0544208940658713e-14, 172.20000000000002),23,-3,11,no,m,6,m,0.9090957000153139,1,61,test2,3,0.9093347999732941,-50.0
23,lyy,f,22,r,1,(172.20000000000002, 0.0),21,7,3,yes,x,5,x,0.6699546999298036,1,62,test2,3,0.6703171000117436,-38.0
23,lyy,f,22,r,1,(-3.163262682197613e-14, -172.20000000000002),27,5,2,yes,x,5,x,0.7668151000980288,1,63,test2,3,0.7670528000453487,-40.0
23,lyy,f,22,r,1,(-172.20000000000002, 2.1088417881317425e-14),25,25,4,yes,x,5,x,0.6207688999129459,1,64,test2,3,0.6208905999083072,-20.0
23,lyy,f,22,r,1,(121.76378772032349, 121.76378772032349),22,25,4,yes,x,5,x,0.5814432000042871,1,65,test2,3,0.5816183000570163,-20.0
23,lyy,f,22,r,1,(-121.76378772032348, 121.76378772032349),24,-25,14,no,m,6,m,1.2835303000174463,1,66,test2,3,1.2837814000668004,-20.0
23,lyy,f,22,r,1,(1.0544208940658713e-14, 172.20000000000002),23,5,2,yes,x,5,x,0.726934100035578,1,67,test2,3,0.7273773000342771,-40.0
23,lyy,f,22,r,1,(-3.163262682197613e-14, -172.20000000000002),27,3,1,yes,x,5,x,0.8175100000808015,1,68,test2,3,0.8179520000703633,-42.0
23,lyy,f,22,r,1,(-3.163262682197613e-14, -172.20000000000002),27,-5,12,yes,x,5,x,0.8190337000414729,1,69,test2,3,0.8192379000829533,-50.0
23,lyy,f,22,r,1,(-172.20000000000002, 2.1088417881317425e-14),25,25,4,no,m,6,m,0.841182200005278,1,70,test2,3,0.8414825999643654,-50.0
23,lyy,f,22,r,1,(-3.163262682197613e-14, -172.20000000000002),27,-7,13,no,m,6,m,0.9633395000128075,1,71,test2,3,0.963803399936296,-50.0
23,lyy,f,22,r,1,(-3.163262682197613e-14, -172.20000000000002),27,-25,14,yes,x,5,x,0.6483086000662297,1,72,test2,3,0.6484115000348538,-70.0
23,lyy,f,22,r,1,(-121.76378772032352, -121.76378772032348),26,25,4,no,m,6,m,0.7982083999086171,1,73,test2,3,0.7983071999624372,-70.0
23,lyy,f,22,r,1,(172.20000000000002, 0.0),21,-7,13,yes,x,5,x,0.8075946000171825,1,74,test2,3,0.8079383000731468,-52.0
23,lyy,f,22,r,1,(-121.76378772032352, -121.76378772032348),26,-7,13,no,m,6,m,0.8353457999182865,1,75,test2,3,0.8356282999739051,-52.0
23,lyy,f,22,r,1,(121.76378772032349, 121.76378772032349),22,-25,14,no,m,6,m,0.8538878000108525,1,76,test2,3,0.8540237999986857,-52.0
23,lyy,f,22,r,1,(-3.163262682197613e-14, -172.20000000000002),27,-25,14,no,m,6,m,0.85764860000927,1,77,test2,3,0.8579570999136195,-52.0
23,lyy,f,22,r,1,(121.76378772032346, -121.76378772032352),28,-3,11,no,m,6,m,1.0134150000521913,1,78,test2,3,1.0140304999658838,-52.0
23,lyy,f,22,r,1,(-3.163262682197613e-14, -172.20000000000002),27,7,3,yes,x,5,x,0.6560799999861047,1,79,test2,3,0.6561802999349311,-38.0
23,lyy,f,22,r,1,(-121.76378772032352, -121.76378772032348),26,5,2,yes,x,5,x,0.7706177000654861,1,80,test2,3,0.7707580000860617,-40.0
23,lyy,f,22,r,1,(1.0544208940658713e-14, 172.20000000000002),23,7,3,yes,x,5,x,0.6984451999887824,1,81,test2,3,0.6985522999893874,-38.0
23,lyy,f,22,r,1,(1.0544208940658713e-14, 172.20000000000002),23,25,4,yes,x,5,x,0.603922100039199,1,82,test2,3,0.6041712000733241,-20.0
23,lyy,f,22,r,1,(1.0544208940658713e-14, 172.20000000000002),23,5,2,yes,x,5,x,0.8192298000212759,1,83,test2,3,0.8194473000476137,-40.0
23,lyy,f,22,r,1,(121.76378772032349, 121.76378772032349),22,5,2,yes,x,5,x,0.7169056000420824,1,84,test2,3,0.7170079000061378,-40.0
23,lyy,f,22,r,1,(-121.76378772032352, -121.76378772032348),26,-7,13,yes,x,5,x,0.7988145999843255,1,85,test2,3,0.799281100044027,-52.0
23,lyy,f,22,r,1,(172.20000000000002, 0.0),21,5,2,no,m,6,m,0.8363613999681547,1,86,test2,3,0.8364633000455797,-52.0
23,lyy,f,22,r,1,(-121.76378772032352, -121.76378772032348),26,3,1,no,m,6,m,0.8109166999347508,1,87,test2,3,0.8110211999155581,-52.0
23,lyy,f,22,r,1,(-3.163262682197613e-14, -172.20000000000002),27,-3,11,yes,x,5,x,0.6719300999538973,1,88,test2,3,0.6720645000459626,-48.0
23,lyy,f,22,r,1,(172.20000000000002, 0.0),21,5,2,yes,x,5,x,0.6634532000171021,1,89,test2,3,0.6636379000265151,-40.0
23,lyy,f,22,r,1,(1.0544208940658713e-14, 172.20000000000002),23,-7,13,no,m,6,m,0.9852746000979096,1,90,test2,3,0.985445800004527,-40.0
23,lyy,f,22,r,1,(121.76378772032346, -121.76378772032352),28,5,2,no,m,6,m,0.8016385000664741,1,91,test2,3,0.8017626999644563,-40.0
23,lyy,f,22,r,1,(-121.76378772032348, 121.76378772032349),24,7,3,no,m,6,m,0.8118073999648914,1,92,test2,3,0.8120432000141591,-40.0
23,lyy,f,22,r,1,(172.20000000000002, 0.0),21,-25,14,no,m,6,m,0.7066178000532091,1,93,test2,3,0.706835399963893,-40.0
23,lyy,f,22,r,1,(-121.76378772032348, 121.76378772032349),24,-7,13,yes,x,5,x,0.6729513000464067,1,94,test2,3,0.6730840000091121,-52.0
23,lyy,f,22,r,1,(121.76378772032346, -121.76378772032352),28,-5,12,yes,x,5,x,0.6206843999680132,1,95,test2,3,0.6208749000215903,-50.0
23,lyy,f,22,r,1,(-121.76378772032352, -121.76378772032348),26,3,1,yes,x,5,m,1.2690753999631852,0,96,test2,3,1.2692109000636265,-42.0
23,lyy,f,22,r,1,(-3.163262682197613e-14, -172.20000000000002),27,-5,12,no,m,6,m,0.8038514000363648,1,1,test1,4,0.804154200013727,-42.0
23,lyy,f,22,r,1,(-121.76378772032348, 121.76378772032349),24,-7,13,no,m,6,m,0.8427702001063153,1,2,test1,4,0.8428763999836519,-42.0
23,lyy,f,22,r,1,(121.76378772032346, -121.76378772032352),28,25,4,yes,x,5,x,0.6238831999944523,1,3,test1,4,0.6244348000036553,-20.0
23,lyy,f,22,r,1,(-121.76378772032348, 121.76378772032349),24,-5,12,yes,x,5,x,0.6890194999286905,1,4,test1,4,0.6893400000408292,-50.0
23,lyy,f,22,r,1,(-121.76378772032348, 121.76378772032349),24,5,2,yes,x,5,x,0.6394242999376729,1,5,test1,4,0.6396908999886364,-40.0
23,lyy,f,22,r,1,(172.20000000000002, 0.0),21,-5,12,no,m,6,m,0.6218972000060603,1,6,test1,4,0.6222102999454364,-40.0
23,lyy,f,22,r,1,(-121.76378772032352, -121.76378772032348),26,-3,11,yes,x,5,x,1.1465041999472305,1,7,test1,4,1.1466928999871016,-48.0
23,lyy,f,22,r,1,(-3.163262682197613e-14, -172.20000000000002),27,3,1,yes,x,5,x,0.7322434999514371,1,8,test1,4,0.7323847999796271,-42.0
23,lyy,f,22,r,1,(121.76378772032346, -121.76378772032352),28,5,2,yes,x,5,x,0.6879405999789014,1,9,test1,4,0.6882115000626072,-40.0
23,lyy,f,22,r,1,(-121.76378772032352, -121.76378772032348),26,-25,14,yes,x,5,x,0.6452112999977544,1,10,test1,4,0.6454026000574231,-70.0
23,lyy,f,22,r,1,(121.76378772032346, -121.76378772032352),28,7,3,yes,x,5,x,0.6058531999588013,1,11,test1,4,0.6060803999425843,-38.0
23,lyy,f,22,r,1,(-121.76378772032348, 121.76378772032349),24,-5,12,no,m,6,m,0.9938407998997718,1,12,test1,4,0.9941241999622434,-38.0
23,lyy,f,22,r,1,(-121.76378772032348, 121.76378772032349),24,-25,14,yes,x,5,x,0.6397857000119984,1,13,test1,4,0.6399440000532195,-70.0
23,lyy,f,22,r,1,(121.76378772032349, 121.76378772032349),22,3,1,yes,x,5,x,0.856774999992922,1,14,test1,4,0.8570029999827966,-42.0
23,lyy,f,22,r,1,(121.76378772032346, -121.76378772032352),28,25,4,yes,x,5,x,0.5757511999690905,1,15,test1,4,0.5762476000236347,-20.0
23,lyy,f,22,r,1,(172.20000000000002, 0.0),21,-7,13,yes,x,5,x,0.615198599989526,1,16,test1,4,0.6154788000276312,-52.0
23,lyy,f,22,r,1,(172.20000000000002, 0.0),21,5,2,yes,x,5,x,0.6833373000845313,1,17,test1,4,0.6836052000289783,-40.0
23,lyy,f,22,r,1,(172.20000000000002, 0.0),21,25,4,yes,x,5,x,0.5984517000615597,1,18,test1,4,0.5986484000459313,-20.0
23,lyy,f,22,r,1,(1.0544208940658713e-14, 172.20000000000002),23,-25,14,no,m,6,m,0.7345960999373347,1,19,test1,4,0.7348228999180719,-20.0
23,lyy,f,22,r,1,(172.20000000000002, 0.0),21,-7,13,no,m,6,m,0.8417383999330923,1,20,test1,4,0.8421744999941438,-20.0
23,lyy,f,22,r,1,(-3.163262682197613e-14, -172.20000000000002),27,-3,11,yes,x,5,x,0.7778672999702394,1,21,test1,4,0.7780336000723764,-48.0
23,lyy,f,22,r,1,(1.0544208940658713e-14, 172.20000000000002),23,-3,11,yes,x,5,x,0.8373660000506788,1,22,test1,4,0.8374853000277653,-48.0
23,lyy,f,22,r,1,(-121.76378772032352, -121.76378772032348),26,5,2,no,m,6,m,0.8620845000259578,1,23,test1,4,0.862294299993664,-48.0
23,lyy,f,22,r,1,(172.20000000000002, 0.0),21,-5,12,yes,x,5,x,0.6241901000030339,1,24,test1,4,0.6247937000589445,-50.0
23,lyy,f,22,r,1,(121.76378772032349, 121.76378772032349),22,-5,12,yes,x,5,x,0.7670049999142066,1,25,test1,4,0.7672324000159279,-50.0
23,lyy,f,22,r,1,(-121.76378772032348, 121.76378772032349),24,7,3,yes,x,5,x,0.6535453000105917,1,26,test1,4,0.6537838999647647,-38.0
23,lyy,f,22,r,1,(-172.20000000000002, 2.1088417881317425e-14),25,-5,12,no,m,6,m,0.9847268000012264,1,27,test1,4,0.9851223999867216,-38.0
23,lyy,f,22,r,1,(121.76378772032346, -121.76378772032352),28,-5,12,no,m,6,m,0.9826279999688268,1,28,test1,4,0.9827477999497205,-38.0
23,lyy,f,22,r,1,(172.20000000000002, 0.0),21,25,4,no,m,6,m,1.0432106000371277,1,29,test1,4,1.0434111000504345,-38.0
23,lyy,f,22,r,1,(1.0544208940658713e-14, 172.20000000000002),23,-5,12,yes,x,5,x,0.6484193000942469,1,30,test1,4,0.6486911000683904,-50.0
23,lyy,f,22,r,1,(-172.20000000000002, 2.1088417881317425e-14),25,7,3,no,m,6,m,0.7466271999292076,1,31,test1,4,0.7473455000435933,-50.0
23,lyy,f,22,r,1,(-121.76378772032352, -121.76378772032348),26,-3,11,no,m,6,m,0.8140628000255674,1,32,test1,4,0.81429929996375,-50.0
23,lyy,f,22,r,1,(121.76378772032349, 121.76378772032349),22,-25,14,yes,x,5,x,0.6376292000059038,1,33,test1,4,0.6379258000524715,-70.0
23,lyy,f,22,r,1,(-3.163262682197613e-14, -172.20000000000002),27,-3,11,no,m,6,m,0.788629800081253,1,34,test1,4,0.7889208000851795,-70.0
23,lyy,f,22,r,1,(-121.76378772032352, -121.76378772032348),26,-3,11,yes,x,5,x,1.236496900091879,1,35,test1,4,1.2370853000320494,-48.0
23,lyy,f,22,r,1,(-121.76378772032348, 121.76378772032349),24,-3,11,yes,x,5,x,1.0576044999761507,1,36,test1,4,1.0578031999757513,-48.0
23,lyy,f,22,r,1,(-121.76378772032352, -121.76378772032348),26,7,3,yes,x,5,x,0.700624999939464,1,37,test1,4,0.7009441999252886,-38.0
23,lyy,f,22,r,1,(-121.76378772032348, 121.76378772032349),24,-3,11,no,m,6,m,0.9337082999991253,1,38,test1,4,0.9338331000180915,-38.0
23,lyy,f,22,r,1,(1.0544208940658713e-14, 172.20000000000002),23,-5,12,yes,x,5,x,0.767039000056684,1,39,test1,4,0.7671738000353798,-50.0
23,lyy,f,22,r,1,(-172.20000000000002, 2.1088417881317425e-14),25,-5,12,yes,x,5,x,0.7497463000472635,1,40,test1,4,0.7501394000137225,-50.0
23,lyy,f,22,r,1,(-172.20000000000002, 2.1088417881317425e-14),25,5,2,yes,x,5,x,0.646321399952285,1,41,test1,4,0.6465752999065444,-40.0
23,lyy,f,22,r,1,(-121.76378772032348, 121.76378772032349),24,3,1,yes,x,5,x,0.702469400013797,1,42,test1,4,0.70256910007447,-42.0
23,lyy,f,22,r,1,(121.76378772032346, -121.76378772032352),28,3,1,no,m,6,m,0.9050391000928357,1,43,test1,4,0.9053439000854269,-42.0
23,lyy,f,22,r,1,(-121.76378772032352, -121.76378772032348),26,-7,13,yes,x,5,x,0.7540172999724746,1,44,test1,4,0.754120200057514,-52.0
23,lyy,f,22,r,1,(-172.20000000000002, 2.1088417881317425e-14),25,25,4,yes,x,5,x,0.6269638000521809,1,45,test1,4,0.627427399973385,-20.0
23,lyy,f,22,r,1,(-121.76378772032348, 121.76378772032349),24,5,2,yes,x,5,x,0.7480237999698147,1,46,test1,4,0.7482533999718726,-40.0
23,lyy,f,22,r,1,(-172.20000000000002, 2.1088417881317425e-14),25,-3,11,yes,x,5,x,0.7530025000451133,1,47,test1,4,0.7531690000323579,-48.0
23,lyy,f,22,r,1,(-172.20000000000002, 2.1088417881317425e-14),25,-3,11,yes,x,5,x,0.7135412000352517,1,48,test1,4,0.7139394000405446,-48.0
23,lyy,f,22,r,1,(121.76378772032346, -121.76378772032352),28,-7,13,yes,x,5,x,0.797340500052087,1,49,test1,4,0.7975738999666646,-52.0
23,lyy,f,22,r,1,(1.0544208940658713e-14, 172.20000000000002),23,5,2,no,m,6,x,0.8867603000253439,0,50,test1,4,0.8868929001037031,-52.0
23,lyy,f,22,r,1,(-172.20000000000002, 2.1088417881317425e-14),25,5,2,no,m,6,m,0.8504041999112815,1,51,test1,4,0.8505676999920979,-52.0
23,lyy,f,22,r,1,(121.76378772032349, 121.76378772032349),22,-5,12,yes,x,5,x,0.8633214000146836,1,52,test1,4,0.8635508000152186,-50.0
23,lyy,f,22,r,1,(121.76378772032349, 121.76378772032349),22,-7,13,yes,x,5,x,0.7123640000354499,1,53,test1,4,0.7125990999629721,-52.0
23,lyy,f,22,r,1,(121.76378772032349, 121.76378772032349),22,25,4,no,m,6,m,0.8396784999640658,1,54,test1,4,0.8399087999714538,-52.0
23,lyy,f,22,r,1,(-121.76378772032348, 121.76378772032349),24,3,1,yes,x,5,m,0.8097525999182835,0,55,test1,4,0.8100061999866739,-42.0
23,lyy,f,22,r,1,(121.76378772032346, -121.76378772032352),28,3,1,yes,x,5,x,1.0022617999929935,1,56,test1,4,1.0028773000231013,-42.0
23,lyy,f,22,r,1,(-172.20000000000002, 2.1088417881317425e-14),25,7,3,yes,x,5,x,0.696528600063175,1,57,test1,4,0.696829600026831,-38.0
23,lyy,f,22,r,1,(-172.20000000000002, 2.1088417881317425e-14),25,-7,13,yes,x,5,m,0.9369234000332654,0,58,test1,4,0.9373099999502301,-52.0
23,lyy,f,22,r,1,(-172.20000000000002, 2.1088417881317425e-14),25,-3,11,no,m,6,m,0.97064119996503,1,59,test1,4,0.9708115999819711,-52.0
23,lyy,f,22,r,1,(121.76378772032346, -121.76378772032352),28,-7,13,no,m,6,m,1.3343825000338256,1,60,test1,4,1.3346848000073805,-52.0
23,lyy,f,22,r,1,(-3.163262682197613e-14, -172.20000000000002),27,-7,13,yes,x,5,x,0.8185159000568092,1,61,test1,4,0.8187235000077635,-52.0
23,lyy,f,22,r,1,(-3.163262682197613e-14, -172.20000000000002),27,25,4,no,m,6,m,0.9045017000753433,1,62,test1,4,0.904634999926202,-52.0
23,lyy,f,22,r,1,(172.20000000000002, 0.0),21,-3,11,yes,x,5,x,0.9342630999162793,1,63,test1,4,0.9344904000172392,-48.0
23,lyy,f,22,r,1,(121.76378772032349, 121.76378772032349),22,7,3,yes,x,5,x,0.7301593999145553,1,64,test1,4,0.7304268000880256,-38.0
23,lyy,f,22,r,1,(-3.163262682197613e-14, -172.20000000000002),27,25,4,yes,x,5,x,0.7087812999961898,1,65,test1,4,0.7090123000089079,-20.0
23,lyy,f,22,r,1,(172.20000000000002, 0.0),21,25,4,yes,x,5,x,0.6890562999760732,1,66,test1,4,0.6892868999857455,-20.0
23,lyy,f,22,r,1,(-121.76378772032348, 121.76378772032349),24,-3,11,yes,x,5,x,1.304642100003548,1,67,test1,4,1.3051255999598652,-48.0
23,lyy,f,22,r,1,(-172.20000000000002, 2.1088417881317425e-14),25,-25,14,no,m,6,m,0.8520139999454841,1,68,test1,4,0.8522974000079557,-48.0
23,lyy,f,22,r,1,(121.76378772032346, -121.76378772032352),28,-25,14,yes,x,5,x,0.7032583000836894,1,69,test1,4,0.7033631999511272,-70.0
23,lyy,f,22,r,1,(-121.76378772032352, -121.76378772032348),26,7,3,no,m,6,m,1.0203926999820396,1,70,test1,4,1.020770699949935,-70.0
23,lyy,f,22,r,1,(1.0544208940658713e-14, 172.20000000000002),23,-25,14,yes,x,5,x,0.7057081999955699,1,71,test1,4,0.7058052999200299,-70.0
23,lyy,f,22,r,1,(172.20000000000002, 0.0),21,-25,14,yes,x,5,x,0.8278403000440449,1,72,test1,4,0.8281199000775814,-70.0
23,lyy,f,22,r,1,(-121.76378772032348, 121.76378772032349),24,25,4,yes,x,5,x,0.63923510001041,1,73,test1,4,0.6398959000362083,-20.0
23,lyy,f,22,r,1,(-172.20000000000002, 2.1088417881317425e-14),25,-7,13,no,m,6,m,0.924510599928908,1,74,test1,4,0.9247615999775007,-20.0
23,lyy,f,22,r,1,(172.20000000000002, 0.0),21,3,1,yes,x,5,m,1.4032610999420285,0,75,test1,4,1.4142733999760821,-42.0
23,lyy,f,22,r,1,(-3.163262682197613e-14, -172.20000000000002),27,-25,14,yes,x,5,x,0.7357312000822276,1,76,test1,4,0.7359401000430807,-70.0
23,lyy,f,22,r,1,(121.76378772032346, -121.76378772032352),28,-5,12,yes,x,5,x,0.7848978999536484,1,77,test1,4,0.7854115999070928,-50.0
23,lyy,f,22,r,1,(-172.20000000000002, 2.1088417881317425e-14),25,3,1,no,m,6,m,1.6852521999971941,1,78,test1,4,1.6859899000264704,-50.0
23,lyy,f,22,r,1,(121.76378772032349, 121.76378772032349),22,5,2,yes,x,5,x,0.8190043000504375,1,79,test1,4,0.8193193000042811,-40.0
23,lyy,f,22,r,1,(1.0544208940658713e-14, 172.20000000000002),23,3,1,no,m,6,m,0.7761841000756249,1,80,test1,4,0.7764262999407947,-40.0
23,lyy,f,22,r,1,(1.0544208940658713e-14, 172.20000000000002),23,-7,13,yes,x,5,x,0.6913935999618843,1,81,test1,4,0.6917192001128569,-52.0
23,lyy,f,22,r,1,(121.76378772032349, 121.76378772032349),22,25,4,yes,x,5,x,0.6326335000339895,1,82,test1,4,0.6327535000164062,-20.0
23,lyy,f,22,r,1,(-121.76378772032352, -121.76378772032348),26,3,1,yes,x,5,x,0.738696499960497,1,83,test1,4,0.7389616000000387,-42.0
23,lyy,f,22,r,1,(-121.76378772032352, -121.76378772032348),26,-5,12,yes,x,5,x,0.6618702000705525,1,84,test1,4,0.6621062000049278,-50.0
23,lyy,f,22,r,1,(1.0544208940658713e-14, 172.20000000000002),23,7,3,no,m,6,m,0.9244940000353381,1,85,test1,4,0.9246255999896675,-50.0
23,lyy,f,22,r,1,(172.20000000000002, 0.0),21,-5,12,yes,x,5,x,0.8661654000170529,1,86,test1,4,0.8664572999114171,-50.0
23,lyy,f,22,r,1,(121.76378772032346, -121.76378772032352),28,5,2,yes,x,5,x,0.7880792000796646,1,87,test1,4,0.7881982000544667,-40.0
23,lyy,f,22,r,1,(-121.76378772032348, 121.76378772032349),24,3,1,no,m,6,m,1.2878667999757454,1,88,test1,4,1.2883612000150606,-40.0
23,lyy,f,22,r,1,(1.0544208940658713e-14, 172.20000000000002),23,3,1,yes,x,5,x,0.998950400040485,1,89,test1,4,0.9991225999547169,-42.0
23,lyy,f,22,r,1,(-172.20000000000002, 2.1088417881317425e-14),25,7,3,yes,x,5,x,0.628526599961333,1,90,test1,4,0.6286349999718368,-38.0
23,lyy,f,22,r,1,(121.76378772032349, 121.76378772032349),22,5,2,no,m,6,m,0.8692672000033781,1,91,test1,4,0.8695384999737144,-38.0
23,lyy,f,22,r,1,(-3.163262682197613e-14, -172.20000000000002),27,3,1,no,m,6,m,0.8198052999796346,1,92,test1,4,0.8199382999446243,-38.0
23,lyy,f,22,r,1,(1.0544208940658713e-14, 172.20000000000002),23,-7,13,yes,x,5,x,0.7964146999875084,1,93,test1,4,0.7966564999660477,-52.0
23,lyy,f,22,r,1,(121.76378772032349, 121.76378772032349),22,-7,13,yes,x,5,x,0.7195389999542385,1,94,test1,4,0.7196834000060335,-52.0
23,lyy,f,22,r,1,(1.0544208940658713e-14, 172.20000000000002),23,-25,14,yes,x,5,x,0.7229559998959303,1,95,test1,4,0.7230564999626949,-70.0
23,lyy,f,22,r,1,(-3.163262682197613e-14, -172.20000000000002),27,7,3,yes,x,5,x,0.7239656000165269,1,96,test1,4,0.7242277000332251,-38.0
23,lyy,f,22,r,1,(121.76378772032346, -121.76378772032352),28,7,3,yes,x,5,x,0.8120488000568002,1,1,test2,4,0.8122564000077546,-38.0
23,lyy,f,22,r,1,(-121.76378772032348, 121.76378772032349),24,25,4,no,m,6,m,0.8293705000542104,1,2,test2,4,0.8295905000995845,-38.0
23,lyy,f,22,r,1,(-3.163262682197613e-14, -172.20000000000002),27,5,2,yes,x,5,x,0.6514512000139803,1,3,test2,4,0.6515752000268549,-40.0
23,lyy,f,22,r,1,(121.76378772032346, -121.76378772032352),28,-25,14,no,m,6,m,0.7748458000132814,1,4,test2,4,0.7749503999948502,-40.0
23,lyy,f,22,r,1,(121.76378772032349, 121.76378772032349),22,7,3,no,m,6,m,0.7462995999958366,1,5,test2,4,0.7465198000427336,-40.0
23,lyy,f,22,r,1,(1.0544208940658713e-14, 172.20000000000002),23,7,3,yes,x,5,x,0.6808334999950603,1,6,test2,4,0.6810746999690309,-38.0
23,lyy,f,22,r,1,(-121.76378772032348, 121.76378772032349),24,-5,12,yes,x,5,x,0.8646145999664441,1,7,test2,4,0.8647674999665469,-50.0
23,lyy,f,22,r,1,(1.0544208940658713e-14, 172.20000000000002),23,25,4,yes,x,5,x,0.5327085999306291,1,8,test2,4,0.5330483999568969,-20.0
23,lyy,f,22,r,1,(-3.163262682197613e-14, -172.20000000000002),27,-5,12,yes,x,5,x,0.7017606999725103,1,9,test2,4,0.7018939999397844,-50.0
23,lyy,f,22,r,1,(172.20000000000002, 0.0),21,7,3,yes,x,5,x,0.8170598999131471,1,10,test2,4,0.8175314998952672,-38.0
23,lyy,f,22,r,1,(-121.76378772032352, -121.76378772032348),26,-5,12,no,m,6,m,0.8776998000685126,1,11,test2,4,0.877836599946022,-38.0
23,lyy,f,22,r,1,(-121.76378772032348, 121.76378772032349),24,-7,13,yes,x,5,x,0.7078024999937043,1,12,test2,4,0.7079783999361098,-52.0
23,lyy,f,22,r,1,(121.76378772032349, 121.76378772032349),22,-25,14,yes,x,5,x,0.6749841999262571,1,13,test2,4,0.6752436999231577,-70.0
23,lyy,f,22,r,1,(-121.76378772032352, -121.76378772032348),26,-25,14,yes,x,5,x,0.5961536000249907,1,14,test2,4,0.5964356999611482,-70.0
23,lyy,f,22,r,1,(-172.20000000000002, 2.1088417881317425e-14),25,-25,14,yes,x,5,x,0.6337447999976575,1,15,test2,4,0.6338818999938667,-70.0
23,lyy,f,22,r,1,(172.20000000000002, 0.0),21,3,1,yes,x,5,x,0.8448770999675617,1,16,test2,4,0.8452717999462038,-42.0
23,lyy,f,22,r,1,(-172.20000000000002, 2.1088417881317425e-14),25,3,1,yes,x,5,x,1.2355289000552148,1,17,test2,4,1.2357388999080285,-42.0
23,lyy,f,22,r,1,(121.76378772032346, -121.76378772032352),28,-7,13,yes,x,5,x,0.704652399988845,1,18,test2,4,0.7048328999662772,-52.0
23,lyy,f,22,r,1,(-121.76378772032352, -121.76378772032348),26,7,3,yes,x,5,x,0.6276256999699399,1,19,test2,4,0.628047400037758,-38.0
23,lyy,f,22,r,1,(-172.20000000000002, 2.1088417881317425e-14),25,-7,13,yes,x,5,x,0.6077170999487862,1,20,test2,4,0.6080590999918059,-52.0
23,lyy,f,22,r,1,(-121.76378772032352, -121.76378772032348),26,-25,14,no,m,6,m,0.8133270000107586,1,21,test2,4,0.813560799928382,-52.0
23,lyy,f,22,r,1,(121.76378772032349, 121.76378772032349),22,3,1,no,m,6,m,0.7288722000084817,1,22,test2,4,0.7292498999740928,-52.0
23,lyy,f,22,r,1,(-121.76378772032348, 121.76378772032349),24,7,3,yes,x,5,x,0.653606699896045,1,23,test2,4,0.6539181999396533,-38.0
23,lyy,f,22,r,1,(121.76378772032346, -121.76378772032352),28,-25,14,yes,x,5,x,0.5938630000455305,1,24,test2,4,0.5939848000416532,-70.0
23,lyy,f,22,r,1,(172.20000000000002, 0.0),21,3,1,no,m,6,m,0.8345414999639615,1,25,test2,4,0.8346588999265805,-70.0
23,lyy,f,22,r,1,(-3.163262682197613e-14, -172.20000000000002),27,5,2,no,m,6,m,1.0531151000177488,1,26,test2,4,1.0533878999995068,-70.0
23,lyy,f,22,r,1,(121.76378772032349, 121.76378772032349),22,3,1,yes,x,5,x,0.8943692999891937,1,27,test2,4,0.8947814999846742,-42.0
23,lyy,f,22,r,1,(-172.20000000000002, 2.1088417881317425e-14),25,3,1,yes,x,5,x,0.9402103000320494,1,28,test2,4,0.9403812000527978,-42.0
23,lyy,f,22,r,1,(-121.76378772032352, -121.76378772032348),26,25,4,yes,x,5,x,0.5869340000208467,1,29,test2,4,0.5870697000063956,-20.0
23,lyy,f,22,r,1,(-121.76378772032348, 121.76378772032349),24,25,4,yes,x,5,x,0.6673474999843165,1,30,test2,4,0.6680296000558883,-20.0
23,lyy,f,22,r,1,(1.0544208940658713e-14, 172.20000000000002),23,-5,12,no,m,6,m,0.8849338000873104,1,31,test2,4,0.8851579000474885,-20.0
23,lyy,f,22,r,1,(121.76378772032349, 121.76378772032349),22,-7,13,no,m,6,m,0.8740706000244245,1,32,test2,4,0.874492899980396,-20.0
23,lyy,f,22,r,1,(121.76378772032349, 121.76378772032349),22,-3,11,yes,x,5,x,0.876126000075601,1,33,test2,4,0.8763375000562519,-48.0
23,lyy,f,22,r,1,(121.76378772032346, -121.76378772032352),28,25,4,no,m,6,m,1.3786108000203967,1,34,test2,4,1.3787122999783605,-48.0
23,lyy,f,22,r,1,(-121.76378772032352, -121.76378772032348),26,5,2,yes,x,5,x,0.6926793999737129,1,35,test2,4,0.6928174999775365,-40.0
23,lyy,f,22,r,1,(1.0544208940658713e-14, 172.20000000000002),23,3,1,yes,x,5,x,0.7528702999697998,1,36,test2,4,0.752978999982588,-42.0
23,lyy,f,22,r,1,(172.20000000000002, 0.0),21,7,3,no,m,6,m,0.8178026999812573,1,37,test2,4,0.8179160000290722,-42.0
23,lyy,f,22,r,1,(172.20000000000002, 0.0),21,-3,11,yes,x,5,x,0.9451589999953285,1,38,test2,4,0.945479099988006,-48.0
23,lyy,f,22,r,1,(121.76378772032349, 121.76378772032349),22,7,3,yes,x,5,x,0.6997703000670299,1,39,test2,4,0.6999756000004709,-38.0
23,lyy,f,22,r,1,(-121.76378772032348, 121.76378772032349),24,5,2,no,m,6,m,1.0110541000030935,1,40,test2,4,1.0111610000021756,-38.0
23,lyy,f,22,r,1,(1.0544208940658713e-14, 172.20000000000002),23,25,4,no,m,6,m,0.9370202000718564,1,41,test2,4,0.9372004000470042,-38.0
23,lyy,f,22,r,1,(-121.76378772032352, -121.76378772032348),26,-5,12,yes,x,5,x,0.7874029000522569,1,42,test2,4,0.7875318999867886,-50.0
23,lyy,f,22,r,1,(121.76378772032349, 121.76378772032349),22,-3,11,no,m,6,m,1.0750205999938771,1,43,test2,4,1.0753992999671027,-50.0
23,lyy,f,22,r,1,(-121.76378772032348, 121.76378772032349),24,-25,14,yes,x,5,x,0.8862827999982983,1,44,test2,4,0.8866265999386087,-70.0
23,lyy,f,22,r,1,(-172.20000000000002, 2.1088417881317425e-14),25,5,2,yes,x,5,x,0.7679910999722779,1,45,test2,4,0.7681081000482664,-40.0
23,lyy,f,22,r,1,(-172.20000000000002, 2.1088417881317425e-14),25,-25,14,yes,x,5,x,0.9635579999303445,1,46,test2,4,0.9637400000356138,-70.0
23,lyy,f,22,r,1,(-3.163262682197613e-14, -172.20000000000002),27,7,3,no,m,6,m,0.8994567999616265,1,47,test2,4,0.8997449999442324,-70.0
23,lyy,f,22,r,1,(121.76378772032346, -121.76378772032352),28,-3,11,yes,x,5,x,1.1080440999940038,1,48,test2,4,1.1084392999764532,-48.0
23,lyy,f,22,r,1,(-121.76378772032352, -121.76378772032348),26,25,4,yes,x,5,x,0.6877149000065401,1,49,test2,4,0.6880047000013292,-20.0
23,lyy,f,22,r,1,(121.76378772032346, -121.76378772032352),28,-3,11,yes,x,5,x,0.7488827999914065,1,50,test2,4,0.7490719000343233,-48.0
23,lyy,f,22,r,1,(172.20000000000002, 0.0),21,-3,11,no,m,6,m,0.8465660000219941,1,51,test2,4,0.8466718000127003,-48.0
23,lyy,f,22,r,1,(-3.163262682197613e-14, -172.20000000000002),27,25,4,yes,x,5,x,0.6640179000096396,1,52,test2,4,0.664459599996917,-20.0
23,lyy,f,22,r,1,(121.76378772032349, 121.76378772032349),22,-3,11,yes,x,5,x,0.7852535999845713,1,53,test2,4,0.7854847999988124,-48.0
23,lyy,f,22,r,1,(-3.163262682197613e-14, -172.20000000000002),27,-7,13,yes,x,5,x,0.728506900020875,1,54,test2,4,0.7286351999500766,-52.0
23,lyy,f,22,r,1,(1.0544208940658713e-14, 172.20000000000002),23,-3,11,yes,x,5,x,0.7884624000871554,1,55,test2,4,0.7888359000207856,-48.0
23,lyy,f,22,r,1,(121.76378772032346, -121.76378772032352),28,7,3,no,m,6,m,0.9386241000611335,1,56,test2,4,0.9387734000338241,-48.0
23,lyy,f,22,r,1,(172.20000000000002, 0.0),21,-25,14,yes,x,5,x,0.7564097000285983,1,57,test2,4,0.7565840999595821,-70.0
23,lyy,f,22,r,1,(121.76378772032346, -121.76378772032352),28,3,1,yes,x,5,m,0.9391225000144914,0,58,test2,4,0.9392239000881091,-42.0
