subj_id,subj_name,subj_gender ,subj_age,subj_handedness,subj_runNum,tar_l_x,tar_l_y,loc_code,tar_ori,tar_code,tar_pre ,cor_response,pre_code,subj_response,RT,correct,trial_num,type,bloc_num,dur, real_tar
23,lyy,f,22,r,2,(-172.20000000000002, 2.1088417881317425e-14),25,5,2,yes,x,5,x,0.92160449991934,1,1,test1,1,0.9217421000357717,-40.0
23,lyy,f,22,r,2,(-172.20000000000002, 2.1088417881317425e-14),25,-7,13,no,m,6,m,0.7316707000136375,1,2,test1,1,0.7318808999843895,-40.0
23,lyy,f,22,r,2,(121.76378772032349, 121.76378772032349),22,3,1,yes,x,5,m,1.0804342000046745,0,3,test1,1,1.0805955999530852,-42.0
23,lyy,f,22,r,2,(-121.76378772032352, -121.76378772032348),26,3,1,yes,x,5,x,0.7754162000492215,1,4,test1,1,0.7755371000384912,-42.0
23,lyy,f,22,r,2,(-121.76378772032348, 121.76378772032349),24,-5,12,no,m,6,m,0.766069500008598,1,5,test1,1,0.7662649999838322,-42.0
23,lyy,f,22,r,2,(172.20000000000002, 0.0),21,5,2,no,m,6,m,1.064905200037174,1,6,test1,1,1.0650996000040323,-42.0
23,lyy,f,22,r,2,(-172.20000000000002, 2.1088417881317425e-14),25,-7,13,yes,x,5,x,0.5751784999156371,1,7,test1,1,0.5753063999582082,-52.0
23,lyy,f,22,r,2,(-121.76378772032352, -121.76378772032348),26,-25,14,yes,x,5,x,0.6033291999483481,1,8,test1,1,0.6034718999871984,-70.0
23,lyy,f,22,r,2,(121.76378772032349, 121.76378772032349),22,-25,14,yes,x,5,x,0.5361316000344232,1,9,test1,1,0.5362514000153169,-70.0
23,lyy,f,22,r,2,(-121.76378772032348, 121.76378772032349),24,-25,14,yes,x,5,x,0.4409110000124201,1,10,test1,1,0.44103159999940544,-70.0
23,lyy,f,22,r,2,(-3.163262682197613e-14, -172.20000000000002),27,-7,13,yes,x,5,x,0.5321838000090793,1,11,test1,1,0.5322796999244019,-52.0
23,lyy,f,22,r,2,(-121.76378772032348, 121.76378772032349),24,3,1,yes,x,5,x,0.910183799918741,1,12,test1,1,0.9103099999483675,-42.0
23,lyy,f,22,r,2,(1.0544208940658713e-14, 172.20000000000002),23,-5,12,no,m,6,m,0.8024238999933004,1,13,test1,1,0.8025471000000834,-42.0
23,lyy,f,22,r,2,(121.76378772032346, -121.76378772032352),28,5,2,yes,x,5,x,0.6643036999739707,1,14,test1,1,0.6644733001012355,-40.0
23,lyy,f,22,r,2,(121.76378772032349, 121.76378772032349),22,-7,13,yes,x,5,x,0.5354174999520183,1,15,test1,1,0.5356778999557719,-52.0
23,lyy,f,22,r,2,(-3.163262682197613e-14, -172.20000000000002),27,-3,11,yes,x,5,x,0.6925439999904484,1,16,test1,1,0.692664899979718,-48.0
23,lyy,f,22,r,2,(-172.20000000000002, 2.1088417881317425e-14),25,3,1,no,m,6,m,0.9135929000331089,1,17,test1,1,0.9137334000552073,-48.0
23,lyy,f,22,r,2,(-121.76378772032348, 121.76378772032349),24,-5,12,yes,x,5,x,0.5743831000290811,1,18,test1,1,0.5745679000392556,-50.0
23,lyy,f,22,r,2,(172.20000000000002, 0.0),21,5,2,yes,x,5,x,0.8248368999920785,1,19,test1,1,0.8251192000461742,-40.0
23,lyy,f,22,r,2,(-172.20000000000002, 2.1088417881317425e-14),25,25,4,no,m,6,m,1.054950200021267,1,20,test1,1,1.055108099943027,-40.0
23,lyy,f,22,r,2,(-121.76378772032348, 121.76378772032349),24,7,3,no,m,6,m,1.2173260999843478,1,21,test1,1,1.2180974000366405,-40.0
23,lyy,f,22,r,2,(-172.20000000000002, 2.1088417881317425e-14),25,-3,11,yes,x,5,x,0.7069929999997839,1,22,test1,1,0.7071878999704495,-48.0
23,lyy,f,22,r,2,(121.76378772032349, 121.76378772032349),22,-3,11,no,m,6,m,1.1711512999609113,1,23,test1,1,1.1713662999682128,-48.0
23,lyy,f,22,r,2,(-121.76378772032352, -121.76378772032348),26,25,4,no,m,6,m,1.0318229999393225,1,24,test1,1,1.0319263000274077,-48.0
23,lyy,f,22,r,2,(121.76378772032349, 121.76378772032349),22,7,3,yes,x,5,x,0.5918440000386909,1,25,test1,1,0.5919901999877766,-38.0
23,lyy,f,22,r,2,(-172.20000000000002, 2.1088417881317425e-14),25,25,4,yes,x,5,x,0.46122379996813834,1,26,test1,1,0.46142669999971986,-20.0
23,lyy,f,22,r,2,(1.0544208940658713e-14, 172.20000000000002),23,-25,14,no,m,6,m,1.1688728999579325,1,27,test1,1,1.1690363999223337,-20.0
23,lyy,f,22,r,2,(-172.20000000000002, 2.1088417881317425e-14),25,5,2,yes,x,5,x,0.5430091000162065,1,28,test1,1,0.5431784999091178,-40.0
23,lyy,f,22,r,2,(121.76378772032349, 121.76378772032349),22,25,4,no,m,6,m,0.8601889999117702,1,29,test1,1,0.8605231000110507,-40.0
23,lyy,f,22,r,2,(-121.76378772032352, -121.76378772032348),26,5,2,yes,x,5,x,0.5954262000741437,1,30,test1,1,0.5955706000095233,-40.0
23,lyy,f,22,r,2,(-121.76378772032348, 121.76378772032349),24,-25,14,no,m,6,m,1.0496389999752864,1,31,test1,1,1.0498040000675246,-40.0
23,lyy,f,22,r,2,(-121.76378772032352, -121.76378772032348),26,-5,12,no,m,6,x,1.2029727000044659,0,32,test1,1,1.2030696000438184,-40.0
23,lyy,f,22,r,2,(-121.76378772032352, -121.76378772032348),26,-25,14,no,m,6,m,1.0943623000057414,1,33,test1,1,1.0945099999662489,-40.0
23,lyy,f,22,r,2,(-121.76378772032348, 121.76378772032349),24,3,1,no,m,6,m,0.8642528000054881,1,34,test1,1,0.8644349999958649,-40.0
23,lyy,f,22,r,2,(-3.163262682197613e-14, -172.20000000000002),27,-7,13,yes,x,5,x,0.5598372999811545,1,35,test1,1,0.5599767999956384,-52.0
23,lyy,f,22,r,2,(1.0544208940658713e-14, 172.20000000000002),23,-3,11,yes,x,5,m,1.2735623000189662,0,36,test1,1,1.2739594000158831,-48.0
23,lyy,f,22,r,2,(-172.20000000000002, 2.1088417881317425e-14),25,-25,14,no,m,6,m,1.016590099898167,1,37,test1,1,1.0168303000973538,-48.0
23,lyy,f,22,r,2,(121.76378772032349, 121.76378772032349),22,-5,12,yes,x,5,x,0.6144803001079708,1,38,test1,1,0.6147925000404939,-50.0
23,lyy,f,22,r,2,(172.20000000000002, 0.0),21,25,4,no,m,6,m,1.0580462000798434,1,39,test1,1,1.0582579999463633,-50.0
23,lyy,f,22,r,2,(-121.76378772032348, 121.76378772032349),24,25,4,yes,x,5,x,0.5389619000488892,1,40,test1,1,0.5390512000303715,-20.0
23,lyy,f,22,r,2,(-121.76378772032352, -121.76378772032348),26,3,1,no,m,6,m,0.8414915999164805,1,41,test1,1,0.8419548000674695,-20.0
23,lyy,f,22,r,2,(121.76378772032349, 121.76378772032349),22,-3,11,yes,x,5,x,0.6741698000114411,1,42,test1,1,0.6746175999287516,-48.0
23,lyy,f,22,r,2,(172.20000000000002, 0.0),21,-3,11,yes,x,5,x,0.7304818999255076,1,43,test1,1,0.7306195999262854,-48.0
23,lyy,f,22,r,2,(-172.20000000000002, 2.1088417881317425e-14),25,3,1,yes,x,5,x,1.047604399966076,1,44,test1,1,1.0477109000785276,-42.0
23,lyy,f,22,r,2,(121.76378772032349, 121.76378772032349),22,-5,12,no,m,6,m,1.2244603999424726,1,45,test1,1,1.2246765999589115,-42.0
23,lyy,f,22,r,2,(121.76378772032346, -121.76378772032352),28,-5,12,yes,x,5,x,0.5886268999893218,1,46,test1,1,0.5887869000434875,-50.0
23,lyy,f,22,r,2,(1.0544208940658713e-14, 172.20000000000002),23,-3,11,yes,x,5,x,1.1050913000945002,1,47,test1,1,1.1053089000051841,-48.0
23,lyy,f,22,r,2,(-121.76378772032348, 121.76378772032349),24,5,2,yes,x,5,x,0.5795191000215709,1,48,test1,1,0.5797337999101728,-40.0
23,lyy,f,22,r,2,(1.0544208940658713e-14, 172.20000000000002),23,-3,11,no,m,6,m,1.1862753999885172,1,49,test1,1,1.1865067000035197,-40.0
23,lyy,f,22,r,2,(-172.20000000000002, 2.1088417881317425e-14),25,-5,12,yes,x,5,m,0.8366476000519469,0,50,test1,1,0.8368017999455333,-50.0
23,lyy,f,22,r,2,(-121.76378772032348, 121.76378772032349),24,5,2,yes,x,5,x,0.6449720999225974,1,51,test1,1,0.645120200002566,-40.0
23,lyy,f,22,r,2,(121.76378772032346, -121.76378772032352),28,-25,14,yes,x,5,x,0.48333840002305806,1,52,test1,1,0.48355140001513064,-70.0
23,lyy,f,22,r,2,(-121.76378772032352, -121.76378772032348),26,-7,13,yes,x,5,x,0.5536457999842241,1,53,test1,1,0.5538058000383899,-52.0
23,lyy,f,22,r,2,(172.20000000000002, 0.0),21,-5,12,yes,x,5,x,0.5234053999884054,1,54,test1,1,0.5236166000831872,-50.0
23,lyy,f,22,r,2,(172.20000000000002, 0.0),21,7,3,no,m,6,m,0.886037899996154,1,55,test1,1,0.8862186999758705,-50.0
23,lyy,f,22,r,2,(-121.76378772032352, -121.76378772032348),26,7,3,yes,x,5,x,0.4739874000661075,1,56,test1,1,0.47429869999177754,-38.0
23,lyy,f,22,r,2,(121.76378772032346, -121.76378772032352),28,3,1,no,m,6,m,0.8852413999848068,1,57,test1,1,0.8859085999429226,-38.0
23,lyy,f,22,r,2,(-3.163262682197613e-14, -172.20000000000002),27,-7,13,no,m,6,m,0.9758626000257209,1,58,test1,1,0.9759599999524653,-38.0
23,lyy,f,22,r,2,(-121.76378772032348, 121.76378772032349),24,25,4,yes,x,5,x,0.5616985999513417,1,59,test1,1,0.5619426999473944,-20.0
23,lyy,f,22,r,2,(-121.76378772032348, 121.76378772032349),24,-3,11,no,m,6,m,1.0020053999032825,1,60,test1,1,1.0021548999939114,-20.0
23,lyy,f,22,r,2,(-172.20000000000002, 2.1088417881317425e-14),25,25,4,yes,x,5,x,0.4953749000560492,1,61,test1,1,0.495495600043796,-20.0
23,lyy,f,22,r,2,(172.20000000000002, 0.0),21,-7,13,yes,x,5,x,0.5411369000794366,1,62,test1,1,0.5412552999332547,-52.0
23,lyy,f,22,r,2,(-3.163262682197613e-14, -172.20000000000002),27,-5,12,yes,x,5,x,0.5892845999915153,1,63,test1,1,0.5895004000049084,-50.0
23,lyy,f,22,r,2,(172.20000000000002, 0.0),21,25,4,yes,x,5,x,0.5326800000621006,1,64,test1,1,0.5327686999225989,-20.0
23,lyy,f,22,r,2,(-172.20000000000002, 2.1088417881317425e-14),25,-3,11,yes,x,5,x,0.7341350000351667,1,65,test1,1,0.7342610999476165,-48.0
23,lyy,f,22,r,2,(1.0544208940658713e-14, 172.20000000000002),23,25,4,no,m,6,m,0.7819901999318972,1,66,test1,1,0.7823392000282183,-48.0
23,lyy,f,22,r,2,(121.76378772032349, 121.76378772032349),22,-7,13,no,m,6,m,1.283324799966067,1,67,test1,1,1.2834783999715,-48.0
23,lyy,f,22,r,2,(-172.20000000000002, 2.1088417881317425e-14),25,-5,12,yes,x,5,x,0.5284625999629498,1,68,test1,1,0.5287311000283808,-50.0
23,lyy,f,22,r,2,(-172.20000000000002, 2.1088417881317425e-14),25,-25,14,yes,x,5,x,0.5581922000274062,1,69,test1,1,0.5583938000490889,-70.0
23,lyy,f,22,r,2,(172.20000000000002, 0.0),21,-5,12,yes,x,5,x,0.5402687999885529,1,70,test1,1,0.5403935000067577,-50.0
23,lyy,f,22,r,2,(1.0544208940658713e-14, 172.20000000000002),23,3,1,yes,x,5,x,1.1256664999527857,1,71,test1,1,1.1259734000777826,-42.0
23,lyy,f,22,r,2,(-121.76378772032352, -121.76378772032348),26,-7,13,no,m,6,m,0.6939423000440001,1,72,test1,1,0.6941398000344634,-42.0
23,lyy,f,22,r,2,(-121.76378772032352, -121.76378772032348),26,-7,13,yes,x,5,x,0.47785500006284565,1,73,test1,1,0.47811829997226596,-52.0
23,lyy,f,22,r,2,(-3.163262682197613e-14, -172.20000000000002),27,25,4,yes,x,5,x,0.45632300002034754,1,74,test1,1,0.45670640002936125,-20.0
23,lyy,f,22,r,2,(1.0544208940658713e-14, 172.20000000000002),23,-7,13,yes,x,5,x,0.5312042000005022,1,75,test1,1,0.5313960000639781,-52.0
23,lyy,f,22,r,2,(121.76378772032349, 121.76378772032349),22,5,2,yes,x,5,x,0.5900407999288291,1,76,test1,1,0.5901982999639586,-40.0
23,lyy,f,22,r,2,(-3.163262682197613e-14, -172.20000000000002),27,-25,14,no,m,6,m,0.9561647999798879,1,77,test1,1,0.9565153000876307,-40.0
23,lyy,f,22,r,2,(172.20000000000002, 0.0),21,-25,14,yes,x,5,x,0.4929705000249669,1,78,test1,1,0.4930917000165209,-70.0
23,lyy,f,22,r,2,(121.76378772032346, -121.76378772032352),28,-25,14,no,m,6,m,0.951351199997589,1,79,test1,1,0.9515261000487953,-70.0
23,lyy,f,22,r,2,(121.76378772032349, 121.76378772032349),22,5,2,no,m,6,m,0.9829809999791905,1,80,test1,1,0.9831393000204116,-70.0
23,lyy,f,22,r,2,(172.20000000000002, 0.0),21,-25,14,no,m,6,m,0.786564200068824,1,81,test1,1,0.7867729999125004,-70.0
23,lyy,f,22,r,2,(1.0544208940658713e-14, 172.20000000000002),23,-5,12,yes,x,5,x,0.654604599927552,1,82,test1,1,0.6547327999724075,-50.0
23,lyy,f,22,r,2,(121.76378772032346, -121.76378772032352),28,-5,12,no,m,6,m,0.8515741999726743,1,83,test1,1,0.8519042000407353,-50.0
23,lyy,f,22,r,2,(121.76378772032346, -121.76378772032352),28,25,4,yes,x,5,x,0.5598247000016272,1,84,test1,1,0.5599458999931812,-20.0
23,lyy,f,22,r,2,(172.20000000000002, 0.0),21,-3,11,no,m,6,m,0.7778590999078006,1,85,test1,1,0.7780809999676421,-20.0
23,lyy,f,22,r,2,(172.20000000000002, 0.0),21,25,4,yes,x,5,x,0.46356270008254796,1,86,test1,1,0.4637437000637874,-20.0
23,lyy,f,22,r,2,(121.76378772032349, 121.76378772032349),22,-3,11,yes,x,5,x,0.8690413000294939,1,87,test1,1,0.8692133000586182,-48.0
23,lyy,f,22,r,2,(121.76378772032349, 121.76378772032349),22,3,1,yes,x,5,x,0.6759917999152094,1,88,test1,1,0.6760778999887407,-42.0
23,lyy,f,22,r,2,(121.76378772032349, 121.76378772032349),22,25,4,yes,x,5,x,0.9153091000625864,1,89,test1,1,0.9155467000091448,-20.0
23,lyy,f,22,r,2,(1.0544208940658713e-14, 172.20000000000002),23,7,3,no,m,6,m,1.0629768000217155,1,90,test1,1,1.0632254999363795,-20.0
23,lyy,f,22,r,2,(121.76378772032349, 121.76378772032349),22,7,3,yes,x,5,x,0.6080903999973089,1,91,test1,1,0.608187299920246,-38.0
23,lyy,f,22,r,2,(-3.163262682197613e-14, -172.20000000000002),27,-3,11,yes,x,5,x,0.8365306999767199,1,92,test1,1,0.8366573000093922,-48.0
23,lyy,f,22,r,2,(172.20000000000002, 0.0),21,-7,13,yes,x,5,x,0.5062974999891594,1,93,test1,1,0.5063960000406951,-52.0
23,lyy,f,22,r,2,(-3.163262682197613e-14, -172.20000000000002),27,25,4,no,m,6,m,0.863431700039655,1,94,test1,1,0.8639334000181407,-52.0
23,lyy,f,22,r,2,(-3.163262682197613e-14, -172.20000000000002),27,-25,14,yes,x,5,x,0.5131733000744134,1,95,test1,1,0.5133049000287428,-70.0
23,lyy,f,22,r,2,(-3.163262682197613e-14, -172.20000000000002),27,-3,11,no,m,6,m,0.9174427000107244,1,96,test1,1,0.9176055999705568,-70.0
23,lyy,f,22,r,2,(121.76378772032346, -121.76378772032352),28,25,4,yes,x,5,x,0.623787899967283,1,1,test2,1,0.6240773000754416,-20.0
23,lyy,f,22,r,2,(172.20000000000002, 0.0),21,-7,13,no,m,6,m,0.8700850000604987,1,2,test2,1,0.8703090000199154,-20.0
23,lyy,f,22,r,2,(1.0544208940658713e-14, 172.20000000000002),23,25,4,yes,x,5,x,0.5283357000444084,1,3,test2,1,0.52860979991965,-20.0
23,lyy,f,22,r,2,(-121.76378772032352, -121.76378772032348),26,25,4,yes,x,5,x,0.5529798999195918,1,4,test2,1,0.5532239999156445,-20.0
23,lyy,f,22,r,2,(121.76378772032346, -121.76378772032352),28,3,1,yes,x,5,x,0.7729597999714315,1,5,test2,1,0.7732686999952421,-42.0
23,lyy,f,22,r,2,(-121.76378772032348, 121.76378772032349),24,-7,13,yes,x,5,x,0.5228748000226915,1,6,test2,1,0.5232287000399083,-52.0
23,lyy,f,22,r,2,(121.76378772032349, 121.76378772032349),22,-7,13,yes,x,5,x,0.5120888999663293,1,7,test2,1,0.5122204000363126,-52.0
23,lyy,f,22,r,2,(-121.76378772032348, 121.76378772032349),24,-5,12,yes,x,5,x,0.5446985999587923,1,8,test2,1,0.5449137999676168,-50.0
23,lyy,f,22,r,2,(-3.163262682197613e-14, -172.20000000000002),27,3,1,yes,x,5,x,0.9128363999770954,1,9,test2,1,0.9130316999508068,-42.0
23,lyy,f,22,r,2,(-121.76378772032348, 121.76378772032349),24,3,1,yes,x,5,x,0.7048655999824405,1,10,test2,1,0.7049823999404907,-42.0
23,lyy,f,22,r,2,(-172.20000000000002, 2.1088417881317425e-14),25,-25,14,yes,x,5,x,0.5855735000222921,1,11,test2,1,0.5857930000638589,-70.0
23,lyy,f,22,r,2,(172.20000000000002, 0.0),21,-25,14,yes,x,5,x,0.601712999981828,1,12,test2,1,0.6020417999243364,-70.0
23,lyy,f,22,r,2,(121.76378772032346, -121.76378772032352),28,-25,14,yes,x,5,x,0.5807004999369383,1,13,test2,1,0.5810172000201419,-70.0
23,lyy,f,22,r,2,(-121.76378772032352, -121.76378772032348),26,7,3,yes,x,5,x,0.6578658999642357,1,14,test2,1,0.6580210999818519,-38.0
23,lyy,f,22,r,2,(121.76378772032349, 121.76378772032349),22,3,1,no,m,6,m,1.0124331000261009,1,15,test2,1,1.0131240000482649,-38.0
23,lyy,f,22,r,2,(-121.76378772032348, 121.76378772032349),24,-3,11,yes,x,5,x,0.8572818000102416,1,16,test2,1,0.8573887000093237,-48.0
23,lyy,f,22,r,2,(172.20000000000002, 0.0),21,7,3,yes,x,5,x,0.6089580999687314,1,17,test2,1,0.6092428000411019,-38.0
23,lyy,f,22,r,2,(-3.163262682197613e-14, -172.20000000000002),27,-5,12,no,m,6,m,0.814053300069645,1,18,test2,1,0.8144399999873713,-38.0
23,lyy,f,22,r,2,(1.0544208940658713e-14, 172.20000000000002),23,3,1,yes,x,5,x,1.201107700006105,1,19,test2,1,1.2013338000979275,-42.0
23,lyy,f,22,r,2,(-172.20000000000002, 2.1088417881317425e-14),25,-7,13,yes,x,5,x,0.5400978999678046,1,20,test2,1,0.5402271000202745,-52.0
23,lyy,f,22,r,2,(121.76378772032346, -121.76378772032352),28,-7,13,no,m,6,m,0.7386873998912051,1,21,test2,1,0.7388152999337763,-52.0
23,lyy,f,22,r,2,(-3.163262682197613e-14, -172.20000000000002),27,-5,12,yes,x,5,x,0.7444944999879226,1,22,test2,1,0.744597899960354,-50.0
23,lyy,f,22,r,2,(121.76378772032346, -121.76378772032352),28,7,3,yes,x,5,x,0.5555677000666037,1,23,test2,1,0.5562859000638127,-38.0
23,lyy,f,22,r,2,(172.20000000000002, 0.0),21,3,1,yes,x,5,x,1.0384286999469623,1,24,test2,1,1.0386004999745637,-42.0
23,lyy,f,22,r,2,(121.76378772032346, -121.76378772032352),28,-7,13,yes,x,5,x,0.4813855999382213,1,25,test2,1,0.48149020003620535,-52.0
23,lyy,f,22,r,2,(121.76378772032349, 121.76378772032349),22,-5,12,yes,x,5,x,0.6738680000416934,1,26,test2,1,0.6739705000072718,-50.0
23,lyy,f,22,r,2,(-3.163262682197613e-14, -172.20000000000002),27,5,2,yes,x,5,x,0.6693115999223664,1,27,test2,1,0.6698402999900281,-40.0
23,lyy,f,22,r,2,(121.76378772032346, -121.76378772032352),28,-5,12,yes,x,5,x,0.5309659999329597,1,28,test2,1,0.5315106000052765,-50.0
23,lyy,f,22,r,2,(121.76378772032346, -121.76378772032352),28,7,3,yes,x,5,x,0.5000555000733584,1,29,test2,1,0.5002065999433398,-38.0
23,lyy,f,22,r,2,(-3.163262682197613e-14, -172.20000000000002),27,-25,14,yes,x,5,x,0.5175144999520853,1,30,test2,1,0.5181003999896348,-70.0
23,lyy,f,22,r,2,(-121.76378772032348, 121.76378772032349),24,-3,11,yes,x,5,x,1.2853241000557318,1,31,test2,1,1.2854263000190258,-48.0
23,lyy,f,22,r,2,(-172.20000000000002, 2.1088417881317425e-14),25,7,3,yes,x,5,x,0.5763510999968275,1,32,test2,1,0.5765671000117436,-38.0
23,lyy,f,22,r,2,(121.76378772032349, 121.76378772032349),22,-25,14,no,m,6,m,1.3821207999717444,1,33,test2,1,1.3822230999357998,-38.0
23,lyy,f,22,r,2,(-3.163262682197613e-14, -172.20000000000002),27,3,1,no,m,6,m,1.0168995999265462,1,34,test2,1,1.0170957000227645,-38.0
23,lyy,f,22,r,2,(1.0544208940658713e-14, 172.20000000000002),23,-5,12,yes,x,5,x,0.6621823000023142,1,35,test2,1,0.6622909000143409,-50.0
23,lyy,f,22,r,2,(-121.76378772032352, -121.76378772032348),26,5,2,yes,x,5,x,0.5097697000019252,1,36,test2,1,0.5100789000280201,-40.0
23,lyy,f,22,r,2,(-3.163262682197613e-14, -172.20000000000002),27,7,3,no,m,6,m,0.7654499000636861,1,37,test2,1,0.765659200027585,-40.0
23,lyy,f,22,r,2,(-3.163262682197613e-14, -172.20000000000002),27,5,2,yes,x,5,x,0.6719571000430733,1,38,test2,1,0.6720958000514656,-40.0
23,lyy,f,22,r,2,(1.0544208940658713e-14, 172.20000000000002),23,7,3,yes,x,5,x,0.5648147000465542,1,39,test2,1,0.5649169000098482,-38.0
23,lyy,f,22,r,2,(121.76378772032346, -121.76378772032352),28,-7,13,yes,x,5,x,0.5873315000208095,1,40,test2,1,0.5875413999892771,-52.0
23,lyy,f,22,r,2,(-121.76378772032352, -121.76378772032348),26,-25,14,yes,x,5,x,0.5262274999404326,1,41,test2,1,0.5266586999641731,-70.0
23,lyy,f,22,r,2,(-121.76378772032352, -121.76378772032348),26,3,1,yes,x,5,x,0.6952997000189498,1,42,test2,1,0.6954060000134632,-42.0
23,lyy,f,22,r,2,(121.76378772032349, 121.76378772032349),22,5,2,yes,x,5,x,0.5863289999542758,1,43,test2,1,0.5864549999823794,-40.0
23,lyy,f,22,r,2,(172.20000000000002, 0.0),21,5,2,yes,x,5,x,0.6659862999804318,1,44,test2,1,0.6666803000262007,-40.0
23,lyy,f,22,r,2,(-121.76378772032352, -121.76378772032348),26,5,2,no,m,6,x,0.9899905999191105,0,45,test2,1,0.9901611999375746,-40.0
23,lyy,f,22,r,2,(-121.76378772032348, 121.76378772032349),24,25,4,no,m,6,m,0.9575751000083983,1,46,test2,1,0.9578121999511495,-40.0
23,lyy,f,22,r,2,(-3.163262682197613e-14, -172.20000000000002),27,7,3,yes,x,5,x,0.8264693999662995,1,47,test2,1,0.8265715000452474,-38.0
23,lyy,f,22,r,2,(121.76378772032346, -121.76378772032352),28,5,2,yes,x,5,x,0.6621447999496013,1,48,test2,1,0.6622809999389574,-40.0
23,lyy,f,22,r,2,(-121.76378772032348, 121.76378772032349),24,-25,14,yes,x,5,x,0.7306998999556527,1,49,test2,1,0.7309554999228567,-70.0
23,lyy,f,22,r,2,(-121.76378772032348, 121.76378772032349),24,7,3,yes,x,5,x,0.6072738999500871,1,50,test2,1,0.607401299988851,-38.0
23,lyy,f,22,r,2,(-3.163262682197613e-14, -172.20000000000002),27,25,4,yes,x,5,x,0.5650428999215364,1,51,test2,1,0.5652531998930499,-20.0
23,lyy,f,22,r,2,(-121.76378772032348, 121.76378772032349),24,-7,13,no,m,6,m,1.1924170999554917,1,52,test2,1,1.1932189000071958,-20.0
23,lyy,f,22,r,2,(-172.20000000000002, 2.1088417881317425e-14),25,5,2,no,m,6,m,1.203123800107278,1,53,test2,1,1.2032477000029758,-20.0
23,lyy,f,22,r,2,(-121.76378772032352, -121.76378772032348),26,-5,12,yes,x,5,x,0.6962954000337049,1,54,test2,1,0.6967848000349477,-50.0
23,lyy,f,22,r,2,(121.76378772032346, -121.76378772032352),28,7,3,no,m,6,m,0.7871322999708354,1,55,test2,1,0.7872735999990255,-50.0
23,lyy,f,22,r,2,(-121.76378772032352, -121.76378772032348),26,-5,12,yes,x,5,x,0.7869431999279186,1,56,test2,1,0.7873711999272928,-50.0
23,lyy,f,22,r,2,(121.76378772032346, -121.76378772032352),28,-3,11,yes,x,5,x,0.9789347999030724,1,57,test2,1,0.9791602999903262,-48.0
23,lyy,f,22,r,2,(-121.76378772032352, -121.76378772032348),26,25,4,yes,x,5,x,0.5421962999971583,1,58,test2,1,0.5423199000069872,-20.0
23,lyy,f,22,r,2,(-172.20000000000002, 2.1088417881317425e-14),25,3,1,yes,x,5,m,1.4003723999485373,0,59,test2,1,1.4004770999308676,-42.0
23,lyy,f,22,r,2,(121.76378772032349, 121.76378772032349),22,7,3,no,m,6,m,0.8966800000052899,1,60,test2,1,0.8969069999875501,-42.0
23,lyy,f,22,r,2,(1.0544208940658713e-14, 172.20000000000002),23,-7,13,no,m,6,m,0.8586109000025317,1,61,test2,1,0.858983299927786,-42.0
23,lyy,f,22,r,2,(-121.76378772032348, 121.76378772032349),24,-7,13,yes,x,5,x,0.8049053000286222,1,62,test2,1,0.8055143000092357,-52.0
23,lyy,f,22,r,2,(-3.163262682197613e-14, -172.20000000000002),27,5,2,no,m,6,m,1.2811217999551445,1,63,test2,1,1.281443899963051,-52.0
23,lyy,f,22,r,2,(-121.76378772032352, -121.76378772032348),26,-3,11,yes,x,5,x,0.7322278999490663,1,64,test2,1,0.7323504999512807,-48.0
23,lyy,f,22,r,2,(-121.76378772032352, -121.76378772032348),26,-3,11,no,m,6,m,0.9104666999774054,1,65,test2,1,0.9107642999151722,-48.0
23,lyy,f,22,r,2,(-121.76378772032352, -121.76378772032348),26,7,3,no,m,6,m,0.8145561000565067,1,66,test2,1,0.8148055000929162,-48.0
23,lyy,f,22,r,2,(-3.163262682197613e-14, -172.20000000000002),27,7,3,yes,x,5,x,0.7227968999650329,1,67,test2,1,0.7232787000248209,-38.0
23,lyy,f,22,r,2,(1.0544208940658713e-14, 172.20000000000002),23,-7,13,yes,x,5,x,0.6373386000050232,1,68,test2,1,0.6375281000509858,-52.0
23,lyy,f,22,r,2,(121.76378772032346, -121.76378772032352),28,-3,11,yes,x,5,x,0.7951726999599487,1,69,test2,1,0.7953866000752896,-48.0
23,lyy,f,22,r,2,(172.20000000000002, 0.0),21,3,1,yes,x,5,x,1.4849630000535399,1,70,test2,1,1.4854874000884593,-42.0
23,lyy,f,22,r,2,(121.76378772032346, -121.76378772032352),28,5,2,no,m,6,m,0.8864305000752211,1,71,test2,1,0.886531800031662,-42.0
23,lyy,f,22,r,2,(172.20000000000002, 0.0),21,7,3,yes,x,5,x,0.6932438999647275,1,72,test2,1,0.6935640999581665,-38.0
23,lyy,f,22,r,2,(-172.20000000000002, 2.1088417881317425e-14),25,7,3,yes,x,5,x,0.717924700002186,1,73,test2,1,0.7180942000122741,-38.0
23,lyy,f,22,r,2,(1.0544208940658713e-14, 172.20000000000002),23,-25,14,yes,x,5,x,0.644651300041005,1,74,test2,1,0.6452004000311717,-70.0
23,lyy,f,22,r,2,(1.0544208940658713e-14, 172.20000000000002),23,5,2,yes,x,5,x,0.5778100999305025,1,75,test2,1,0.5780192000092939,-40.0
23,lyy,f,22,r,2,(-3.163262682197613e-14, -172.20000000000002),27,3,1,yes,x,5,x,0.8879921999759972,1,76,test2,1,0.8881151999812573,-42.0
23,lyy,f,22,r,2,(-172.20000000000002, 2.1088417881317425e-14),25,-5,12,no,m,6,m,1.0454204000998288,1,77,test2,1,1.0455369999399409,-42.0
23,lyy,f,22,r,2,(1.0544208940658713e-14, 172.20000000000002),23,7,3,yes,x,5,x,0.7511936000082642,1,78,test2,1,0.7513557999627665,-38.0
23,lyy,f,22,r,2,(-172.20000000000002, 2.1088417881317425e-14),25,7,3,no,m,6,m,1.1082200999371707,1,79,test2,1,1.10834579996299,-38.0
23,lyy,f,22,r,2,(172.20000000000002, 0.0),21,3,1,no,m,6,m,1.1223355999682099,1,80,test2,1,1.1225134000414982,-38.0
23,lyy,f,22,r,2,(121.76378772032349, 121.76378772032349),22,-25,14,yes,x,5,x,1.1765216999920085,1,81,test2,1,1.1768399000866339,-70.0
23,lyy,f,22,r,2,(-172.20000000000002, 2.1088417881317425e-14),25,-3,11,no,m,6,m,1.0328545999946073,1,82,test2,1,1.0329527000430971,-70.0
23,lyy,f,22,r,2,(172.20000000000002, 0.0),21,-3,11,yes,x,5,x,0.7519446999067441,1,83,test2,1,0.7522302999859676,-48.0
23,lyy,f,22,r,2,(1.0544208940658713e-14, 172.20000000000002),23,5,2,no,m,6,m,0.8845525999786332,1,84,test2,1,0.8848015000112355,-48.0
23,lyy,f,22,r,2,(172.20000000000002, 0.0),21,-5,12,no,m,6,m,1.1244730000616983,1,85,test2,1,1.124710299889557,-48.0
23,lyy,f,22,r,2,(-121.76378772032352, -121.76378772032348),26,-3,11,yes,x,5,x,0.9492893000133336,1,86,test2,1,0.9497552999528125,-48.0
23,lyy,f,22,r,2,(-121.76378772032348, 121.76378772032349),24,5,2,no,m,6,m,1.1514229000313208,1,87,test2,1,1.1519412000197917,-48.0
23,lyy,f,22,r,2,(1.0544208940658713e-14, 172.20000000000002),23,25,4,yes,x,5,x,0.6974753000540659,1,88,test2,1,0.697604599990882,-20.0
23,lyy,f,22,r,2,(121.76378772032346, -121.76378772032352),28,3,1,yes,x,5,x,0.8951790999853984,1,89,test2,1,0.8953997000353411,-42.0
23,lyy,f,22,r,2,(1.0544208940658713e-14, 172.20000000000002),23,3,1,no,m,6,m,1.1019845999544486,1,90,test2,1,1.1022660000016913,-42.0
23,lyy,f,22,r,2,(121.76378772032346, -121.76378772032352),28,-3,11,no,m,6,m,1.0934715000912547,1,91,test2,1,1.0935822000028566,-42.0
23,lyy,f,22,r,2,(-121.76378772032348, 121.76378772032349),24,7,3,yes,x,5,x,0.6570816000457853,1,92,test2,1,0.6571870999177918,-38.0
23,lyy,f,22,r,2,(1.0544208940658713e-14, 172.20000000000002),23,5,2,yes,x,5,x,0.6629416999639943,1,93,test2,1,0.6637466999236494,-40.0
23,lyy,f,22,r,2,(121.76378772032346, -121.76378772032352),28,25,4,no,m,6,m,1.227015000069514,1,94,test2,1,1.2274663000134751,-40.0
23,lyy,f,22,r,2,(121.76378772032349, 121.76378772032349),22,25,4,yes,x,5,x,0.688330200035125,1,95,test2,1,0.6885561000090092,-20.0
23,lyy,f,22,r,2,(1.0544208940658713e-14, 172.20000000000002),23,-25,14,yes,x,5,x,0.7127242999849841,1,96,test2,1,0.7129423000151291,-70.0
23,lyy,f,22,r,2,(-172.20000000000002, 2.1088417881317425e-14),25,5,2,yes,x,5,x,0.5830460999859497,1,1,test1,2,0.5833247000118718,-40.0
23,lyy,f,22,r,2,(-172.20000000000002, 2.1088417881317425e-14),25,-7,13,no,m,6,m,0.7882421999238431,1,2,test1,2,0.7890124999685213,-40.0
23,lyy,f,22,r,2,(121.76378772032349, 121.76378772032349),22,3,1,yes,x,5,x,0.7643099999986589,1,3,test1,2,0.7644444999750704,-42.0
23,lyy,f,22,r,2,(-121.76378772032352, -121.76378772032348),26,3,1,yes,x,5,x,0.9132981000002474,1,4,test1,2,0.9134245000313967,-42.0
23,lyy,f,22,r,2,(-121.76378772032348, 121.76378772032349),24,-5,12,no,m,6,m,1.096574499970302,1,5,test1,2,1.096864000079222,-42.0
23,lyy,f,22,r,2,(172.20000000000002, 0.0),21,5,2,no,m,6,m,1.0197836000006646,1,6,test1,2,1.0199553000275046,-42.0
23,lyy,f,22,r,2,(-172.20000000000002, 2.1088417881317425e-14),25,-7,13,yes,x,5,x,0.5284698000177741,1,7,test1,2,0.5285743999993429,-52.0
23,lyy,f,22,r,2,(-121.76378772032352, -121.76378772032348),26,-25,14,yes,x,5,x,0.6085465999785811,1,8,test1,2,0.6096512000076473,-70.0
23,lyy,f,22,r,2,(121.76378772032349, 121.76378772032349),22,-25,14,yes,x,5,x,0.46238879999145865,1,9,test1,2,0.46257820003665984,-70.0
23,lyy,f,22,r,2,(-121.76378772032348, 121.76378772032349),24,-25,14,yes,x,5,x,0.631266099982895,1,10,test1,2,0.6314763999544084,-70.0
23,lyy,f,22,r,2,(-3.163262682197613e-14, -172.20000000000002),27,-7,13,yes,x,5,x,0.7299707001075149,1,11,test1,2,0.7302394999423996,-52.0
23,lyy,f,22,r,2,(-121.76378772032348, 121.76378772032349),24,3,1,yes,x,5,x,1.0555341999279335,1,12,test1,2,1.055824999930337,-42.0
23,lyy,f,22,r,2,(1.0544208940658713e-14, 172.20000000000002),23,-5,12,no,m,6,m,0.9462323000188917,1,13,test1,2,0.946546099963598,-42.0
23,lyy,f,22,r,2,(121.76378772032346, -121.76378772032352),28,5,2,yes,x,5,x,0.7891254000132903,1,14,test1,2,0.7892321998951957,-40.0
23,lyy,f,22,r,2,(121.76378772032349, 121.76378772032349),22,-7,13,yes,x,5,x,0.7698866999708116,1,15,test1,2,0.7700807999353856,-52.0
23,lyy,f,22,r,2,(-3.163262682197613e-14, -172.20000000000002),27,-3,11,yes,x,5,x,1.0290530000347644,1,16,test1,2,1.0291588000254706,-48.0
23,lyy,f,22,r,2,(-172.20000000000002, 2.1088417881317425e-14),25,3,1,no,m,6,m,0.9643277000868693,1,17,test1,2,0.9646925000706688,-48.0
23,lyy,f,22,r,2,(-121.76378772032348, 121.76378772032349),24,-5,12,yes,x,5,x,0.8683230999158695,1,18,test1,2,0.8684716999996454,-50.0
23,lyy,f,22,r,2,(172.20000000000002, 0.0),21,5,2,yes,x,5,x,0.735131699941121,1,19,test1,2,0.7352337000193074,-40.0
23,lyy,f,22,r,2,(-172.20000000000002, 2.1088417881317425e-14),25,25,4,no,m,6,m,1.2500671999296173,1,20,test1,2,1.2503840000135824,-40.0
23,lyy,f,22,r,2,(-121.76378772032348, 121.76378772032349),24,7,3,no,m,6,m,1.110699599958025,1,21,test1,2,1.11093660001643,-40.0
23,lyy,f,22,r,2,(-172.20000000000002, 2.1088417881317425e-14),25,-3,11,yes,x,5,x,0.8665737999835983,1,22,test1,2,0.8669114999938756,-48.0
23,lyy,f,22,r,2,(121.76378772032349, 121.76378772032349),22,-3,11,no,m,6,m,0.8773992001079023,1,23,test1,2,0.8779549999162555,-48.0
23,lyy,f,22,r,2,(-121.76378772032352, -121.76378772032348),26,25,4,no,m,6,x,1.5205047000199556,0,24,test1,2,1.5207862000679597,-48.0
23,lyy,f,22,r,2,(121.76378772032349, 121.76378772032349),22,7,3,yes,x,5,x,0.7386567000066862,1,25,test1,2,0.7387623999966308,-38.0
23,lyy,f,22,r,2,(-172.20000000000002, 2.1088417881317425e-14),25,25,4,yes,x,5,x,0.6086781000485644,1,26,test1,2,0.6089070000452921,-20.0
23,lyy,f,22,r,2,(1.0544208940658713e-14, 172.20000000000002),23,-25,14,no,m,6,m,1.319352600025013,1,27,test1,2,1.3195672000292689,-20.0
23,lyy,f,22,r,2,(-172.20000000000002, 2.1088417881317425e-14),25,5,2,yes,x,5,x,0.6311421999707818,1,28,test1,2,0.6313739999895915,-40.0
23,lyy,f,22,r,2,(121.76378772032349, 121.76378772032349),22,25,4,no,m,6,m,0.8928138000192121,1,29,test1,2,0.8929508000146598,-40.0
23,lyy,f,22,r,2,(-121.76378772032352, -121.76378772032348),26,5,2,yes,x,5,x,0.7806299000512809,1,30,test1,2,0.7813553999876603,-40.0
23,lyy,f,22,r,2,(-121.76378772032348, 121.76378772032349),24,-25,14,no,m,6,m,1.231767199933529,1,31,test1,2,1.2319023999152705,-40.0
23,lyy,f,22,r,2,(-121.76378772032352, -121.76378772032348),26,-5,12,no,m,6,m,1.1337988999439403,1,32,test1,2,1.1339018000289798,-40.0
23,lyy,f,22,r,2,(-121.76378772032352, -121.76378772032348),26,-25,14,no,m,6,m,1.122224499937147,1,33,test1,2,1.1223274999065325,-40.0
23,lyy,f,22,r,2,(-121.76378772032348, 121.76378772032349),24,3,1,no,m,6,m,1.2557296000886708,1,34,test1,2,1.2558344000717625,-40.0
23,lyy,f,22,r,2,(-3.163262682197613e-14, -172.20000000000002),27,-7,13,yes,x,5,x,0.6681742999935523,1,35,test1,2,0.6685825999593362,-52.0
23,lyy,f,22,r,2,(1.0544208940658713e-14, 172.20000000000002),23,-3,11,yes,x,5,x,0.7523006999399513,1,36,test1,2,0.7525293999351561,-48.0
23,lyy,f,22,r,2,(-172.20000000000002, 2.1088417881317425e-14),25,-25,14,no,m,6,m,0.8894609999842942,1,37,test1,2,0.8895879000192508,-48.0
23,lyy,f,22,r,2,(121.76378772032349, 121.76378772032349),22,-5,12,yes,x,5,x,0.7239450999768451,1,38,test1,2,0.7240482000634074,-50.0
23,lyy,f,22,r,2,(172.20000000000002, 0.0),21,25,4,no,m,6,m,1.0846048999810591,1,39,test1,2,1.0850610000779852,-50.0
23,lyy,f,22,r,2,(-121.76378772032348, 121.76378772032349),24,25,4,yes,x,5,x,0.7250637999968603,1,40,test1,2,0.7251675999723375,-20.0
23,lyy,f,22,r,2,(-121.76378772032352, -121.76378772032348),26,3,1,no,m,6,m,0.8623187000630423,1,41,test1,2,0.8624878999544308,-20.0
23,lyy,f,22,r,2,(121.76378772032349, 121.76378772032349),22,-3,11,yes,x,5,x,0.8371388999512419,1,42,test1,2,0.8373599000042304,-48.0
23,lyy,f,22,r,2,(172.20000000000002, 0.0),21,-3,11,yes,x,5,x,0.9868291999446228,1,43,test1,2,0.9870734999421984,-48.0
23,lyy,f,22,r,2,(-172.20000000000002, 2.1088417881317425e-14),25,3,1,yes,x,5,x,1.190844799974002,1,44,test1,2,1.191026100073941,-42.0
23,lyy,f,22,r,2,(121.76378772032349, 121.76378772032349),22,-5,12,no,m,6,m,1.3046817999565974,1,45,test1,2,1.305025800014846,-42.0
23,lyy,f,22,r,2,(121.76378772032346, -121.76378772032352),28,-5,12,yes,x,5,x,0.689954400062561,1,46,test1,2,0.6900576000334695,-50.0
23,lyy,f,22,r,2,(1.0544208940658713e-14, 172.20000000000002),23,-3,11,yes,x,5,x,0.8733143999706954,1,47,test1,2,0.8735976000316441,-48.0
23,lyy,f,22,r,2,(-121.76378772032348, 121.76378772032349),24,5,2,yes,x,5,x,0.6484648999758065,1,48,test1,2,0.6485888999886811,-40.0
23,lyy,f,22,r,2,(1.0544208940658713e-14, 172.20000000000002),23,-3,11,no,m,6,m,0.9112910999683663,1,49,test1,2,0.9113926999270916,-40.0
23,lyy,f,22,r,2,(-172.20000000000002, 2.1088417881317425e-14),25,-5,12,yes,x,5,x,0.5464684999315068,1,50,test1,2,0.5465916999382898,-50.0
23,lyy,f,22,r,2,(-121.76378772032348, 121.76378772032349),24,5,2,yes,x,5,x,0.6450099999783561,1,51,test1,2,0.6452941000461578,-40.0
23,lyy,f,22,r,2,(121.76378772032346, -121.76378772032352),28,-25,14,yes,x,5,x,0.6457932000048459,1,52,test1,2,0.6458941999590024,-70.0
23,lyy,f,22,r,2,(-121.76378772032352, -121.76378772032348),26,-7,13,yes,x,5,x,0.6065546999452636,1,53,test1,2,0.6066877000266686,-52.0
23,lyy,f,22,r,2,(172.20000000000002, 0.0),21,-5,12,yes,x,5,x,0.577259499928914,1,54,test1,2,0.5773835999425501,-50.0
23,lyy,f,22,r,2,(172.20000000000002, 0.0),21,7,3,no,m,6,m,0.8604663000442088,1,55,test1,2,0.8605813999893144,-50.0
23,lyy,f,22,r,2,(-121.76378772032352, -121.76378772032348),26,7,3,yes,x,5,x,0.5012582000344992,1,56,test1,2,0.501585999969393,-38.0
23,lyy,f,22,r,2,(121.76378772032346, -121.76378772032352),28,3,1,no,m,6,x,1.2337780999951065,0,57,test1,2,1.2341117999749258,-38.0
23,lyy,f,22,r,2,(-3.163262682197613e-14, -172.20000000000002),27,-7,13,no,m,6,m,1.0431137999985367,1,58,test1,2,1.0432286000577733,-38.0
23,lyy,f,22,r,2,(-121.76378772032348, 121.76378772032349),24,25,4,yes,x,5,x,0.673168099950999,1,59,test1,2,0.6732979000080377,-20.0
23,lyy,f,22,r,2,(-121.76378772032348, 121.76378772032349),24,-3,11,no,m,6,m,1.0242005999898538,1,60,test1,2,1.0243543999968097,-20.0
23,lyy,f,22,r,2,(-172.20000000000002, 2.1088417881317425e-14),25,25,4,yes,x,5,x,0.5953811999643221,1,61,test1,2,0.5956242999527603,-20.0
23,lyy,f,22,r,2,(172.20000000000002, 0.0),21,-7,13,yes,x,5,x,0.6496053000446409,1,62,test1,2,0.6498952000401914,-52.0
23,lyy,f,22,r,2,(-3.163262682197613e-14, -172.20000000000002),27,-5,12,yes,x,5,x,0.6776474999496713,1,63,test1,2,0.6780039999866858,-50.0
23,lyy,f,22,r,2,(172.20000000000002, 0.0),21,25,4,yes,x,5,x,0.551373100024648,1,64,test1,2,0.5517397000221536,-20.0
23,lyy,f,22,r,2,(-172.20000000000002, 2.1088417881317425e-14),25,-3,11,yes,x,5,x,0.8313026999821886,1,65,test1,2,0.8317502000136301,-48.0
23,lyy,f,22,r,2,(1.0544208940658713e-14, 172.20000000000002),23,25,4,no,m,6,m,0.9807372000068426,1,66,test1,2,0.9809804999968037,-48.0
23,lyy,f,22,r,2,(121.76378772032349, 121.76378772032349),22,-7,13,no,m,6,m,1.3064291999908164,1,67,test1,2,1.306616900023073,-48.0
23,lyy,f,22,r,2,(-172.20000000000002, 2.1088417881317425e-14),25,-5,12,yes,x,5,x,0.8323115000966936,1,68,test1,2,0.832438400015235,-50.0
23,lyy,f,22,r,2,(-172.20000000000002, 2.1088417881317425e-14),25,-25,14,yes,x,5,x,0.6451537000248209,1,69,test1,2,0.6458819999825209,-70.0
23,lyy,f,22,r,2,(172.20000000000002, 0.0),21,-5,12,yes,x,5,x,0.6568001999985427,1,70,test1,2,0.6569816999835894,-50.0
23,lyy,f,22,r,2,(1.0544208940658713e-14, 172.20000000000002),23,3,1,yes,x,5,x,1.168748600059189,1,71,test1,2,1.1689521000953391,-42.0
23,lyy,f,22,r,2,(-121.76378772032352, -121.76378772032348),26,-7,13,no,m,6,m,1.0753664000658318,1,72,test1,2,1.0755709999939427,-42.0
23,lyy,f,22,r,2,(-121.76378772032352, -121.76378772032348),26,-7,13,yes,x,5,x,0.6909767999313772,1,73,test1,2,0.6910896999761462,-52.0
23,lyy,f,22,r,2,(-3.163262682197613e-14, -172.20000000000002),27,25,4,yes,x,5,x,0.6401349999941885,1,74,test1,2,0.6402591000078246,-20.0
23,lyy,f,22,r,2,(1.0544208940658713e-14, 172.20000000000002),23,-7,13,yes,x,5,x,0.6340572000481188,1,75,test1,2,0.6343270000070333,-52.0
23,lyy,f,22,r,2,(121.76378772032349, 121.76378772032349),22,5,2,yes,x,5,x,0.6597943999804556,1,76,test1,2,0.659921900019981,-40.0
23,lyy,f,22,r,2,(-3.163262682197613e-14, -172.20000000000002),27,-25,14,no,m,6,m,1.0042100999271497,1,77,test1,2,1.0044349000090733,-40.0
23,lyy,f,22,r,2,(172.20000000000002, 0.0),21,-25,14,yes,x,5,x,0.5362109000561759,1,78,test1,2,0.5365709000034258,-70.0
23,lyy,f,22,r,2,(121.76378772032346, -121.76378772032352),28,-25,14,no,m,6,m,0.7402349000331014,1,79,test1,2,0.7403728000354022,-70.0
23,lyy,f,22,r,2,(121.76378772032349, 121.76378772032349),22,5,2,no,m,6,m,0.9092840000521392,1,80,test1,2,0.9093862000154331,-70.0
23,lyy,f,22,r,2,(172.20000000000002, 0.0),21,-25,14,no,m,6,m,0.8186696999473497,1,81,test1,2,0.818874999997206,-70.0
23,lyy,f,22,r,2,(1.0544208940658713e-14, 172.20000000000002),23,-5,12,yes,x,5,x,0.5654215000104159,1,82,test1,2,0.5657103999983519,-50.0
23,lyy,f,22,r,2,(121.76378772032346, -121.76378772032352),28,-5,12,no,m,6,m,1.242746900068596,1,83,test1,2,1.2430929000256583,-50.0
23,lyy,f,22,r,2,(121.76378772032346, -121.76378772032352),28,25,4,yes,x,5,x,0.5855100000044331,1,84,test1,2,0.5861676000058651,-20.0
23,lyy,f,22,r,2,(172.20000000000002, 0.0),21,-3,11,no,m,6,m,0.876557599985972,1,85,test1,2,0.8769521000795066,-20.0
23,lyy,f,22,r,2,(172.20000000000002, 0.0),21,25,4,yes,x,5,x,0.8478510999120772,1,86,test1,2,0.8479528999887407,-20.0
23,lyy,f,22,r,2,(121.76378772032349, 121.76378772032349),22,-3,11,yes,x,5,x,1.0511706999968737,1,87,test1,2,1.0515326999593526,-48.0
23,lyy,f,22,r,2,(121.76378772032349, 121.76378772032349),22,3,1,yes,x,5,x,0.7197838999563828,1,88,test1,2,0.719917600043118,-42.0
23,lyy,f,22,r,2,(121.76378772032349, 121.76378772032349),22,25,4,yes,x,5,x,0.621126199956052,1,89,test1,2,0.6212774000596255,-20.0
23,lyy,f,22,r,2,(1.0544208940658713e-14, 172.20000000000002),23,7,3,no,m,6,m,1.2617696000961587,1,90,test1,2,1.2618921000976115,-20.0
23,lyy,f,22,r,2,(121.76378772032349, 121.76378772032349),22,7,3,yes,x,5,x,0.5486635999986902,1,91,test1,2,0.5489783999510109,-38.0
23,lyy,f,22,r,2,(-3.163262682197613e-14, -172.20000000000002),27,-3,11,yes,x,5,x,1.1147900000214577,1,92,test1,2,1.1152172000147402,-48.0
23,lyy,f,22,r,2,(172.20000000000002, 0.0),21,-7,13,yes,x,5,x,0.5535760000348091,1,93,test1,2,0.5538898000959307,-52.0
23,lyy,f,22,r,2,(-3.163262682197613e-14, -172.20000000000002),27,25,4,no,m,6,m,0.9786642999388278,1,94,test1,2,0.97880919999443,-52.0
23,lyy,f,22,r,2,(-3.163262682197613e-14, -172.20000000000002),27,-25,14,yes,x,5,x,0.4666749000316486,1,95,test1,2,0.4670439000474289,-70.0
23,lyy,f,22,r,2,(-3.163262682197613e-14, -172.20000000000002),27,-3,11,no,m,6,m,1.4382244000444189,1,96,test1,2,1.4384930999949574,-70.0
23,lyy,f,22,r,2,(121.76378772032346, -121.76378772032352),28,25,4,yes,x,5,x,0.5899453000165522,1,1,test2,2,0.5901802000589669,-20.0
23,lyy,f,22,r,2,(172.20000000000002, 0.0),21,-7,13,no,m,6,m,0.7383536000270396,1,2,test2,2,0.7387308001052588,-20.0
23,lyy,f,22,r,2,(1.0544208940658713e-14, 172.20000000000002),23,25,4,yes,x,5,x,0.5322575999889523,1,3,test2,2,0.5324754999019206,-20.0
23,lyy,f,22,r,2,(-121.76378772032352, -121.76378772032348),26,25,4,yes,x,5,x,0.5566677999449894,1,4,test2,2,0.557223099982366,-20.0
23,lyy,f,22,r,2,(121.76378772032346, -121.76378772032352),28,3,1,yes,x,5,x,0.588137699989602,1,5,test2,2,0.5883565000258386,-42.0
23,lyy,f,22,r,2,(-121.76378772032348, 121.76378772032349),24,-7,13,yes,x,5,x,0.5873957000439987,1,6,test2,2,0.5876385000301525,-52.0
23,lyy,f,22,r,2,(121.76378772032349, 121.76378772032349),22,-7,13,yes,x,5,x,0.5696749000344425,1,7,test2,2,0.5699667000444606,-52.0
23,lyy,f,22,r,2,(-121.76378772032348, 121.76378772032349),24,-5,12,yes,x,5,x,0.6158290000166744,1,8,test2,2,0.6160388001007959,-50.0
23,lyy,f,22,r,2,(-3.163262682197613e-14, -172.20000000000002),27,3,1,yes,x,5,x,0.6813070999924093,1,9,test2,2,0.6816610000096262,-42.0
23,lyy,f,22,r,2,(-121.76378772032348, 121.76378772032349),24,3,1,yes,x,5,x,0.7646097999531776,1,10,test2,2,0.7647816999815404,-42.0
23,lyy,f,22,r,2,(-172.20000000000002, 2.1088417881317425e-14),25,-25,14,yes,x,5,x,0.5097270000260323,1,11,test2,2,0.5102700999705121,-70.0
23,lyy,f,22,r,2,(172.20000000000002, 0.0),21,-25,14,yes,x,5,x,0.48706239997409284,1,12,test2,2,0.4873461000388488,-70.0
23,lyy,f,22,r,2,(121.76378772032346, -121.76378772032352),28,-25,14,yes,x,5,x,0.4715242999373004,1,13,test2,2,0.4716408000094816,-70.0
23,lyy,f,22,r,2,(-121.76378772032352, -121.76378772032348),26,7,3,yes,x,5,x,0.4877539000008255,1,14,test2,2,0.4880362000549212,-38.0
23,lyy,f,22,r,2,(121.76378772032349, 121.76378772032349),22,3,1,no,m,6,m,0.6803683000616729,1,15,test2,2,0.6807452000211924,-38.0
23,lyy,f,22,r,2,(-121.76378772032348, 121.76378772032349),24,-3,11,yes,x,5,x,0.5241724000079557,1,16,test2,2,0.5244593999814242,-48.0
23,lyy,f,22,r,2,(172.20000000000002, 0.0),21,7,3,yes,x,5,x,0.6867473999736831,1,17,test2,2,0.6868494000518695,-38.0
23,lyy,f,22,r,2,(-3.163262682197613e-14, -172.20000000000002),27,-5,12,no,m,6,m,0.8203728999942541,1,18,test2,2,0.8205912000266835,-38.0
23,lyy,f,22,r,2,(1.0544208940658713e-14, 172.20000000000002),23,3,1,yes,x,5,x,0.6531328000128269,1,19,test2,2,0.6532390000065789,-42.0
23,lyy,f,22,r,2,(-172.20000000000002, 2.1088417881317425e-14),25,-7,13,yes,x,5,x,0.5764459000201896,1,20,test2,2,0.5765500999987125,-52.0
23,lyy,f,22,r,2,(121.76378772032346, -121.76378772032352),28,-7,13,no,m,6,x,1.014072100049816,0,21,test2,2,1.0144722000695765,-52.0
23,lyy,f,22,r,2,(-3.163262682197613e-14, -172.20000000000002),27,-5,12,yes,x,5,x,0.6989434000570327,1,22,test2,2,0.6991527000209317,-50.0
23,lyy,f,22,r,2,(121.76378772032346, -121.76378772032352),28,7,3,yes,x,5,x,0.5446914000203833,1,23,test2,2,0.5448836999712512,-38.0
23,lyy,f,22,r,2,(172.20000000000002, 0.0),21,3,1,yes,x,5,m,0.7651418000459671,0,24,test2,2,0.7653608000837266,-42.0
23,lyy,f,22,r,2,(121.76378772032346, -121.76378772032352),28,-7,13,yes,x,5,x,0.5728181999875233,1,25,test2,2,0.5741915000835434,-52.0
23,lyy,f,22,r,2,(121.76378772032349, 121.76378772032349),22,-5,12,yes,x,5,x,0.49886279995553195,1,26,test2,2,0.4989659000420943,-50.0
23,lyy,f,22,r,2,(-3.163262682197613e-14, -172.20000000000002),27,5,2,yes,x,5,x,0.5685496999649331,1,27,test2,2,0.568808599957265,-40.0
23,lyy,f,22,r,2,(121.76378772032346, -121.76378772032352),28,-5,12,yes,x,5,x,0.6173236999893561,1,28,test2,2,0.6174322000006214,-50.0
23,lyy,f,22,r,2,(121.76378772032346, -121.76378772032352),28,7,3,yes,x,5,x,0.5324893000070006,1,29,test2,2,0.5330061999848112,-38.0
23,lyy,f,22,r,2,(-3.163262682197613e-14, -172.20000000000002),27,-25,14,yes,x,5,x,0.49073030008003116,1,30,test2,2,0.4908631999278441,-70.0
23,lyy,f,22,r,2,(-121.76378772032348, 121.76378772032349),24,-3,11,yes,x,5,x,0.8162133999867365,1,31,test2,2,0.816341600031592,-48.0
23,lyy,f,22,r,2,(-172.20000000000002, 2.1088417881317425e-14),25,7,3,yes,x,5,x,0.5910699999658391,1,32,test2,2,0.5913738999515772,-38.0
23,lyy,f,22,r,2,(121.76378772032349, 121.76378772032349),22,-25,14,no,m,6,m,0.6797426999546587,1,33,test2,2,0.6803724999772385,-38.0
23,lyy,f,22,r,2,(-3.163262682197613e-14, -172.20000000000002),27,3,1,no,m,6,m,0.9478244000347331,1,34,test2,2,0.9479282000102103,-38.0
23,lyy,f,22,r,2,(1.0544208940658713e-14, 172.20000000000002),23,-5,12,yes,x,5,x,0.5589329999638721,1,35,test2,2,0.5590837000636384,-50.0
23,lyy,f,22,r,2,(-121.76378772032352, -121.76378772032348),26,5,2,yes,x,5,x,0.5578852000180632,1,36,test2,2,0.5584201000165194,-40.0
23,lyy,f,22,r,2,(-3.163262682197613e-14, -172.20000000000002),27,7,3,no,m,6,m,0.8829744000686333,1,37,test2,2,0.8831160999834538,-40.0
23,lyy,f,22,r,2,(-3.163262682197613e-14, -172.20000000000002),27,5,2,yes,x,5,x,0.5191751000238582,1,38,test2,2,0.5200574999907985,-40.0
23,lyy,f,22,r,2,(1.0544208940658713e-14, 172.20000000000002),23,7,3,yes,x,5,x,0.6613659000722691,1,39,test2,2,0.6615287000313401,-38.0
23,lyy,f,22,r,2,(121.76378772032346, -121.76378772032352),28,-7,13,yes,x,5,x,0.5256815999746323,1,40,test2,2,0.5259478000225499,-52.0
23,lyy,f,22,r,2,(-121.76378772032352, -121.76378772032348),26,-25,14,yes,x,5,x,0.45656009996309876,1,41,test2,2,0.4566634999355301,-70.0
23,lyy,f,22,r,2,(-121.76378772032352, -121.76378772032348),26,3,1,yes,x,5,m,1.1836450999835506,0,42,test2,2,1.1838730999734253,-42.0
23,lyy,f,22,r,2,(121.76378772032349, 121.76378772032349),22,5,2,yes,x,5,x,0.6029497000854462,1,43,test2,2,0.6031774000730366,-40.0
23,lyy,f,22,r,2,(172.20000000000002, 0.0),21,5,2,yes,x,5,x,0.6450009000254795,1,44,test2,2,0.645259500015527,-40.0
23,lyy,f,22,r,2,(-121.76378772032352, -121.76378772032348),26,5,2,no,m,6,m,0.9162755999714136,1,45,test2,2,0.9164462999906391,-40.0
23,lyy,f,22,r,2,(-121.76378772032348, 121.76378772032349),24,25,4,no,m,6,m,1.1099480000557378,1,46,test2,2,1.1101848999969661,-40.0
23,lyy,f,22,r,2,(-3.163262682197613e-14, -172.20000000000002),27,7,3,yes,x,5,x,0.6991344999987632,1,47,test2,2,0.6992365999612957,-38.0
23,lyy,f,22,r,2,(121.76378772032346, -121.76378772032352),28,5,2,yes,x,5,x,0.5178514999570325,1,48,test2,2,0.5179570999462157,-40.0
23,lyy,f,22,r,2,(-121.76378772032348, 121.76378772032349),24,-25,14,yes,x,5,x,0.459622299997136,1,49,test2,2,0.4598806999856606,-70.0
23,lyy,f,22,r,2,(-121.76378772032348, 121.76378772032349),24,7,3,yes,x,5,x,0.47925860004033893,1,50,test2,2,0.47945440001785755,-38.0
23,lyy,f,22,r,2,(-3.163262682197613e-14, -172.20000000000002),27,25,4,yes,x,5,x,0.5475059000309557,1,51,test2,2,0.5476399000035599,-20.0
23,lyy,f,22,r,2,(-121.76378772032348, 121.76378772032349),24,-7,13,no,m,6,m,0.7247514999471605,1,52,test2,2,0.7251727000111714,-20.0
23,lyy,f,22,r,2,(-172.20000000000002, 2.1088417881317425e-14),25,5,2,no,m,6,x,1.492845100001432,0,53,test2,2,1.4929719000356272,-20.0
23,lyy,f,22,r,2,(-121.76378772032352, -121.76378772032348),26,-5,12,yes,x,5,x,0.6479402999393642,1,54,test2,2,0.6485007000155747,-50.0
23,lyy,f,22,r,2,(121.76378772032346, -121.76378772032352),28,7,3,no,m,6,m,0.6985175999579951,1,55,test2,2,0.6986564000835642,-50.0
23,lyy,f,22,r,2,(-121.76378772032352, -121.76378772032348),26,-5,12,yes,x,5,x,0.9845969000598416,1,56,test2,2,0.9848776999861002,-50.0
23,lyy,f,22,r,2,(121.76378772032346, -121.76378772032352),28,-3,11,yes,x,5,x,0.798961800057441,1,57,test2,2,0.7990641000214964,-48.0
23,lyy,f,22,r,2,(-121.76378772032352, -121.76378772032348),26,25,4,yes,x,5,x,0.5350824999623001,1,58,test2,2,0.5352244999958202,-20.0
23,lyy,f,22,r,2,(-172.20000000000002, 2.1088417881317425e-14),25,3,1,yes,x,5,x,1.1331829999107867,1,59,test2,2,1.1333521999185905,-42.0
23,lyy,f,22,r,2,(121.76378772032349, 121.76378772032349),22,7,3,no,m,6,m,0.7396540000336245,1,60,test2,2,0.739755199989304,-42.0
23,lyy,f,22,r,2,(1.0544208940658713e-14, 172.20000000000002),23,-7,13,no,m,6,m,0.6423549000173807,1,61,test2,2,0.6425929999677464,-42.0
23,lyy,f,22,r,2,(-121.76378772032348, 121.76378772032349),24,-7,13,yes,x,5,x,0.6280591000104323,1,62,test2,2,0.6286103000165895,-52.0
23,lyy,f,22,r,2,(-3.163262682197613e-14, -172.20000000000002),27,5,2,no,m,6,m,0.804849199950695,1,63,test2,2,0.8051535000558943,-52.0
23,lyy,f,22,r,2,(-121.76378772032352, -121.76378772032348),26,-3,11,yes,x,5,x,0.8609518999001011,1,64,test2,2,0.8612881998997182,-48.0
23,lyy,f,22,r,2,(-121.76378772032352, -121.76378772032348),26,-3,11,no,m,6,m,0.9159407999832183,1,65,test2,2,0.916117100045085,-48.0
23,lyy,f,22,r,2,(-121.76378772032352, -121.76378772032348),26,7,3,no,m,6,m,0.8501697999890894,1,66,test2,2,0.8504148999927565,-48.0
23,lyy,f,22,r,2,(-3.163262682197613e-14, -172.20000000000002),27,7,3,yes,x,5,x,0.5749700999585912,1,67,test2,2,0.5751099999761209,-38.0
23,lyy,f,22,r,2,(1.0544208940658713e-14, 172.20000000000002),23,-7,13,yes,x,5,x,0.5947230999590829,1,68,test2,2,0.5948384000221267,-52.0
23,lyy,f,22,r,2,(121.76378772032346, -121.76378772032352),28,-3,11,yes,x,5,x,0.7634625999489799,1,69,test2,2,0.763698700000532,-48.0
23,lyy,f,22,r,2,(172.20000000000002, 0.0),21,3,1,yes,x,5,x,0.9844341999851167,1,70,test2,2,0.9845411001006141,-42.0
23,lyy,f,22,r,2,(121.76378772032346, -121.76378772032352),28,5,2,no,m,6,m,1.0326784000499174,1,71,test2,2,1.0327879000687972,-42.0
23,lyy,f,22,r,2,(172.20000000000002, 0.0),21,7,3,yes,x,5,x,0.7836154999677092,1,72,test2,2,0.7838268000632524,-38.0
23,lyy,f,22,r,2,(-172.20000000000002, 2.1088417881317425e-14),25,7,3,yes,x,5,x,0.5525563000701368,1,73,test2,2,0.5531367000658065,-38.0
23,lyy,f,22,r,2,(1.0544208940658713e-14, 172.20000000000002),23,-25,14,yes,x,5,x,0.4519816000247374,1,74,test2,2,0.4520854000002146,-70.0
23,lyy,f,22,r,2,(1.0544208940658713e-14, 172.20000000000002),23,5,2,yes,x,5,x,0.6462689000181854,1,75,test2,2,0.6465661999536678,-40.0
23,lyy,f,22,r,2,(-3.163262682197613e-14, -172.20000000000002),27,3,1,yes,x,5,x,0.6886239999439567,1,76,test2,2,0.6888450999977067,-42.0
23,lyy,f,22,r,2,(-172.20000000000002, 2.1088417881317425e-14),25,-5,12,no,m,6,m,1.2526522999396548,1,77,test2,2,1.2528460000175983,-42.0
23,lyy,f,22,r,2,(1.0544208940658713e-14, 172.20000000000002),23,7,3,yes,x,5,x,0.5249437000602484,1,78,test2,2,0.525143500068225,-38.0
23,lyy,f,22,r,2,(-172.20000000000002, 2.1088417881317425e-14),25,7,3,no,m,6,m,0.9771235999651253,1,79,test2,2,0.9773974999552593,-38.0
23,lyy,f,22,r,2,(172.20000000000002, 0.0),21,3,1,no,m,6,m,1.5080022000474855,1,80,test2,2,1.5081276000710204,-38.0
23,lyy,f,22,r,2,(121.76378772032349, 121.76378772032349),22,-25,14,yes,x,5,x,0.5518830999499187,1,81,test2,2,0.5521976000163704,-70.0
23,lyy,f,22,r,2,(-172.20000000000002, 2.1088417881317425e-14),25,-3,11,no,m,6,m,0.8168450000230223,1,82,test2,2,0.8170650000683963,-70.0
23,lyy,f,22,r,2,(172.20000000000002, 0.0),21,-3,11,yes,x,5,x,1.07294510002248,1,83,test2,2,1.0733551000012085,-48.0
23,lyy,f,22,r,2,(1.0544208940658713e-14, 172.20000000000002),23,5,2,no,m,6,m,0.8412122000008821,1,84,test2,2,0.8416072999825701,-48.0
23,lyy,f,22,r,2,(172.20000000000002, 0.0),21,-5,12,no,m,6,m,0.7347806000616401,1,85,test2,2,0.7348806000081822,-48.0
23,lyy,f,22,r,2,(-121.76378772032352, -121.76378772032348),26,-3,11,yes,x,5,x,1.357674700091593,1,86,test2,2,1.3580292001133785,-48.0
23,lyy,f,22,r,2,(-121.76378772032348, 121.76378772032349),24,5,2,no,m,6,m,0.8191172000952065,1,87,test2,2,0.8193636001087725,-48.0
23,lyy,f,22,r,2,(1.0544208940658713e-14, 172.20000000000002),23,25,4,yes,x,5,x,0.5795066000428051,1,88,test2,2,0.5796064999885857,-20.0
23,lyy,f,22,r,2,(121.76378772032346, -121.76378772032352),28,3,1,yes,x,5,x,0.7403514999896288,1,89,test2,2,0.7404804000398144,-42.0
23,lyy,f,22,r,2,(1.0544208940658713e-14, 172.20000000000002),23,3,1,no,m,6,x,1.527409699978307,0,90,test2,2,1.5275495999958366,-42.0
23,lyy,f,22,r,2,(121.76378772032346, -121.76378772032352),28,-3,11,no,m,6,m,1.3700759999919683,1,91,test2,2,1.3703888000454754,-42.0
23,lyy,f,22,r,2,(-121.76378772032348, 121.76378772032349),24,7,3,yes,x,5,x,0.6353971000062302,1,92,test2,2,0.6354987000813708,-38.0
23,lyy,f,22,r,2,(1.0544208940658713e-14, 172.20000000000002),23,5,2,yes,x,5,x,0.5333449000027031,1,93,test2,2,0.533634899999015,-40.0
23,lyy,f,22,r,2,(121.76378772032346, -121.76378772032352),28,25,4,no,m,6,m,0.752033400000073,1,94,test2,2,0.7521366999717429,-40.0
23,lyy,f,22,r,2,(121.76378772032349, 121.76378772032349),22,25,4,yes,x,5,x,0.6163008000003174,1,95,test2,2,0.6164033999666572,-20.0
23,lyy,f,22,r,2,(1.0544208940658713e-14, 172.20000000000002),23,-25,14,yes,x,5,x,0.5695918999845162,1,96,test2,2,0.569896399974823,-70.0
23,lyy,f,22,r,2,(-172.20000000000002, 2.1088417881317425e-14),25,5,2,yes,x,5,x,0.7297288000117987,1,1,test1,3,0.7298590999562293,-40.0
23,lyy,f,22,r,2,(-172.20000000000002, 2.1088417881317425e-14),25,-7,13,no,m,6,m,1.3353774000424892,1,2,test1,3,1.3356761999893934,-40.0
23,lyy,f,22,r,2,(121.76378772032349, 121.76378772032349),22,3,1,yes,x,5,x,1.028087499900721,1,3,test1,3,1.028455299907364,-42.0
23,lyy,f,22,r,2,(-121.76378772032352, -121.76378772032348),26,3,1,yes,x,5,x,0.5737576999235898,1,4,test1,3,0.5738585999934003,-42.0
23,lyy,f,22,r,2,(-121.76378772032348, 121.76378772032349),24,-5,12,no,m,6,m,1.0641003999626264,1,5,test1,3,1.064805299974978,-42.0
23,lyy,f,22,r,2,(172.20000000000002, 0.0),21,5,2,no,m,6,m,1.347273699939251,1,6,test1,3,1.347407199908048,-42.0
23,lyy,f,22,r,2,(-172.20000000000002, 2.1088417881317425e-14),25,-7,13,yes,x,5,x,0.5277715999400243,1,7,test1,3,0.5278753999155015,-52.0
23,lyy,f,22,r,2,(-121.76378772032352, -121.76378772032348),26,-25,14,yes,x,5,x,0.46968169999308884,1,8,test1,3,0.4699333000462502,-70.0
23,lyy,f,22,r,2,(121.76378772032349, 121.76378772032349),22,-25,14,yes,x,5,x,0.5483703999780118,1,9,test1,3,0.5485915000317618,-70.0
23,lyy,f,22,r,2,(-121.76378772032348, 121.76378772032349),24,-25,14,yes,x,5,x,0.5138104999205098,1,10,test1,3,0.5141617999179289,-70.0
23,lyy,f,22,r,2,(-3.163262682197613e-14, -172.20000000000002),27,-7,13,yes,x,5,x,0.5722550000064075,1,11,test1,3,0.5726850000210106,-52.0
23,lyy,f,22,r,2,(-121.76378772032348, 121.76378772032349),24,3,1,yes,x,5,x,1.0399334999965504,1,12,test1,3,1.040388699970208,-42.0
23,lyy,f,22,r,2,(1.0544208940658713e-14, 172.20000000000002),23,-5,12,no,m,6,m,1.0352245999965817,1,13,test1,3,1.035898800007999,-42.0
23,lyy,f,22,r,2,(121.76378772032346, -121.76378772032352),28,5,2,yes,x,5,x,0.8456275999778882,1,14,test1,3,0.8463011999847367,-40.0
23,lyy,f,22,r,2,(121.76378772032349, 121.76378772032349),22,-7,13,yes,x,5,x,0.5499805000144988,1,15,test1,3,0.5502071999944746,-52.0
23,lyy,f,22,r,2,(-3.163262682197613e-14, -172.20000000000002),27,-3,11,yes,x,5,x,0.9846468000905588,1,16,test1,3,0.9848453999729827,-48.0
23,lyy,f,22,r,2,(-172.20000000000002, 2.1088417881317425e-14),25,3,1,no,m,6,m,0.8917712999973446,1,17,test1,3,0.8919877000153065,-48.0
23,lyy,f,22,r,2,(-121.76378772032348, 121.76378772032349),24,-5,12,yes,x,5,x,0.5026236000703648,1,18,test1,3,0.5028166999109089,-50.0
23,lyy,f,22,r,2,(172.20000000000002, 0.0),21,5,2,yes,x,5,x,0.5471500999992713,1,19,test1,3,0.5472723999992013,-40.0
23,lyy,f,22,r,2,(-172.20000000000002, 2.1088417881317425e-14),25,25,4,no,m,6,m,1.264592400053516,1,20,test1,3,1.2646945000160486,-40.0
23,lyy,f,22,r,2,(-121.76378772032348, 121.76378772032349),24,7,3,no,m,6,m,1.0129093000432476,1,21,test1,3,1.013150000013411,-40.0
23,lyy,f,22,r,2,(-172.20000000000002, 2.1088417881317425e-14),25,-3,11,yes,x,5,x,0.6776763000525534,1,22,test1,3,0.6777841999428347,-48.0
23,lyy,f,22,r,2,(121.76378772032349, 121.76378772032349),22,-3,11,no,m,6,m,0.8760843999916688,1,23,test1,3,0.8762772999471053,-48.0
23,lyy,f,22,r,2,(-121.76378772032352, -121.76378772032348),26,25,4,no,m,6,m,0.975413899985142,1,24,test1,3,0.9756980000529438,-48.0
23,lyy,f,22,r,2,(121.76378772032349, 121.76378772032349),22,7,3,yes,x,5,x,0.6729857999598607,1,25,test1,3,0.6732021999778226,-38.0
23,lyy,f,22,r,2,(-172.20000000000002, 2.1088417881317425e-14),25,25,4,yes,x,5,x,0.5472880000015721,1,26,test1,3,0.5475121999625117,-20.0
23,lyy,f,22,r,2,(1.0544208940658713e-14, 172.20000000000002),23,-25,14,no,m,6,m,1.147227599984035,1,27,test1,3,1.147515199962072,-20.0
23,lyy,f,22,r,2,(-172.20000000000002, 2.1088417881317425e-14),25,5,2,yes,x,5,x,0.7268256000243127,1,28,test1,3,0.7269424999831244,-40.0
23,lyy,f,22,r,2,(121.76378772032349, 121.76378772032349),22,25,4,no,m,6,m,1.3105503999395296,1,29,test1,3,1.3106672000139952,-40.0
23,lyy,f,22,r,2,(-121.76378772032352, -121.76378772032348),26,5,2,yes,x,5,x,1.0478330000769347,1,30,test1,3,1.048134700045921,-40.0
23,lyy,f,22,r,2,(-121.76378772032348, 121.76378772032349),24,-25,14,no,m,6,m,1.2176232000347227,1,31,test1,3,1.217858000076376,-40.0
23,lyy,f,22,r,2,(-121.76378772032352, -121.76378772032348),26,-5,12,no,m,6,m,1.0162406000308692,1,32,test1,3,1.0164381000213325,-40.0
23,lyy,f,22,r,2,(-121.76378772032352, -121.76378772032348),26,-25,14,no,m,6,m,0.9739409999456257,1,33,test1,3,0.9741763999918476,-40.0
23,lyy,f,22,r,2,(-121.76378772032348, 121.76378772032349),24,3,1,no,m,6,m,0.9391650999896228,1,34,test1,3,0.9392761000199243,-40.0
23,lyy,f,22,r,2,(-3.163262682197613e-14, -172.20000000000002),27,-7,13,yes,x,5,x,1.159905800013803,1,35,test1,3,1.1602257998893037,-52.0
23,lyy,f,22,r,2,(1.0544208940658713e-14, 172.20000000000002),23,-3,11,yes,x,5,m,1.037135099992156,0,36,test1,3,1.0372391000855714,-48.0
23,lyy,f,22,r,2,(-172.20000000000002, 2.1088417881317425e-14),25,-25,14,no,m,6,m,0.9758835999527946,1,37,test1,3,0.9760387999704108,-48.0
23,lyy,f,22,r,2,(121.76378772032349, 121.76378772032349),22,-5,12,yes,x,5,x,0.7213422000641003,1,38,test1,3,0.7214485999429598,-50.0
23,lyy,f,22,r,2,(172.20000000000002, 0.0),21,25,4,no,m,6,m,0.9698623999720439,1,39,test1,3,0.9700732999481261,-50.0
23,lyy,f,22,r,2,(-121.76378772032348, 121.76378772032349),24,25,4,yes,x,5,x,0.8664797999663278,1,40,test1,3,0.8667138000018895,-20.0
23,lyy,f,22,r,2,(-121.76378772032352, -121.76378772032348),26,3,1,no,m,6,m,0.8859858999494463,1,41,test1,3,0.8860976001014933,-20.0
23,lyy,f,22,r,2,(121.76378772032349, 121.76378772032349),22,-3,11,yes,x,5,x,1.0459560999879614,1,42,test1,3,1.0462597999721766,-48.0
23,lyy,f,22,r,2,(172.20000000000002, 0.0),21,-3,11,yes,x,5,x,0.7578412999864668,1,43,test1,3,0.7579607999650761,-48.0
23,lyy,f,22,r,2,(-172.20000000000002, 2.1088417881317425e-14),25,3,1,yes,x,5,x,1.0459910000208765,1,44,test1,3,1.046093000099063,-42.0
23,lyy,f,22,r,2,(121.76378772032349, 121.76378772032349),22,-5,12,no,m,6,x,1.3951838000211865,0,45,test1,3,1.39542519999668,-42.0
23,lyy,f,22,r,2,(121.76378772032346, -121.76378772032352),28,-5,12,yes,x,5,x,0.6891390999080613,1,46,test1,3,0.6894467000383884,-50.0
23,lyy,f,22,r,2,(1.0544208940658713e-14, 172.20000000000002),23,-3,11,yes,x,5,x,0.9876184000167996,1,47,test1,3,0.9877223999937996,-48.0
23,lyy,f,22,r,2,(-121.76378772032348, 121.76378772032349),24,5,2,yes,x,5,x,0.8420387000078335,1,48,test1,3,0.8422730000456795,-40.0
23,lyy,f,22,r,2,(1.0544208940658713e-14, 172.20000000000002),23,-3,11,no,m,6,m,1.278867399902083,1,49,test1,3,1.2790903999703005,-40.0
23,lyy,f,22,r,2,(-172.20000000000002, 2.1088417881317425e-14),25,-5,12,yes,x,5,x,0.5723218999337405,1,50,test1,3,0.5726198999909684,-50.0
23,lyy,f,22,r,2,(-121.76378772032348, 121.76378772032349),24,5,2,yes,x,5,x,0.517430100007914,1,51,test1,3,0.5176345000509173,-40.0
23,lyy,f,22,r,2,(121.76378772032346, -121.76378772032352),28,-25,14,yes,x,5,x,0.5091172999236733,1,52,test1,3,0.5097526999888942,-70.0
23,lyy,f,22,r,2,(-121.76378772032352, -121.76378772032348),26,-7,13,yes,x,5,x,0.5937355000060052,1,53,test1,3,0.5939473999897018,-52.0
23,lyy,f,22,r,2,(172.20000000000002, 0.0),21,-5,12,yes,x,5,x,0.6056450000032783,1,54,test1,3,0.6061865999363363,-50.0
23,lyy,f,22,r,2,(172.20000000000002, 0.0),21,7,3,no,m,6,m,0.8863584999926388,1,55,test1,3,0.8866163999773562,-50.0
23,lyy,f,22,r,2,(-121.76378772032352, -121.76378772032348),26,7,3,yes,x,5,x,0.6118456000695005,1,56,test1,3,0.6121729000005871,-38.0
23,lyy,f,22,r,2,(121.76378772032346, -121.76378772032352),28,3,1,no,m,6,m,0.7563608000054955,1,57,test1,3,0.7567013000370935,-38.0
23,lyy,f,22,r,2,(-3.163262682197613e-14, -172.20000000000002),27,-7,13,no,m,6,m,0.9939809999195859,1,58,test1,3,0.9941222999477759,-38.0
23,lyy,f,22,r,2,(-121.76378772032348, 121.76378772032349),24,25,4,yes,x,5,x,0.5601024999050424,1,59,test1,3,0.5607501999475062,-20.0
23,lyy,f,22,r,2,(-121.76378772032348, 121.76378772032349),24,-3,11,no,m,6,m,0.7589024999178946,1,60,test1,3,0.7591743000084534,-20.0
23,lyy,f,22,r,2,(-172.20000000000002, 2.1088417881317425e-14),25,25,4,yes,x,5,x,0.6288785999640822,1,61,test1,3,0.6290381000144407,-20.0
23,lyy,f,22,r,2,(172.20000000000002, 0.0),21,-7,13,yes,x,5,x,0.5569779999786988,1,62,test1,3,0.5570782000431791,-52.0
23,lyy,f,22,r,2,(-3.163262682197613e-14, -172.20000000000002),27,-5,12,yes,x,5,x,0.6613223999738693,1,63,test1,3,0.6614449999760836,-50.0
23,lyy,f,22,r,2,(172.20000000000002, 0.0),21,25,4,yes,x,5,x,0.532172100036405,1,64,test1,3,0.5324157000286505,-20.0
23,lyy,f,22,r,2,(-172.20000000000002, 2.1088417881317425e-14),25,-3,11,yes,x,5,x,0.6297246000031009,1,65,test1,3,0.6298369000433013,-48.0
23,lyy,f,22,r,2,(1.0544208940658713e-14, 172.20000000000002),23,25,4,no,m,6,m,0.7788657000055537,1,66,test1,3,0.7791169999400154,-48.0
23,lyy,f,22,r,2,(121.76378772032349, 121.76378772032349),22,-7,13,no,m,6,m,0.8114395999582484,1,67,test1,3,0.811713199946098,-48.0
23,lyy,f,22,r,2,(-172.20000000000002, 2.1088417881317425e-14),25,-5,12,yes,x,5,x,0.5657634000526741,1,68,test1,3,0.5660003999946639,-50.0
23,lyy,f,22,r,2,(-172.20000000000002, 2.1088417881317425e-14),25,-25,14,yes,x,5,x,0.5417673999909312,1,69,test1,3,0.5423253000481054,-70.0
23,lyy,f,22,r,2,(172.20000000000002, 0.0),21,-5,12,yes,x,5,x,0.6988731999881566,1,70,test1,3,0.6992972999578342,-50.0
23,lyy,f,22,r,2,(1.0544208940658713e-14, 172.20000000000002),23,3,1,yes,x,5,x,0.9513083000201732,1,71,test1,3,0.9514141000108793,-42.0
23,lyy,f,22,r,2,(-121.76378772032352, -121.76378772032348),26,-7,13,no,m,6,m,1.197987399995327,1,72,test1,3,1.1981003999244422,-42.0
23,lyy,f,22,r,2,(-121.76378772032352, -121.76378772032348),26,-7,13,yes,x,5,x,0.5424554999917746,1,73,test1,3,0.542596900020726,-52.0
23,lyy,f,22,r,2,(-3.163262682197613e-14, -172.20000000000002),27,25,4,yes,x,5,x,0.5781535999849439,1,74,test1,3,0.5783790000714362,-20.0
23,lyy,f,22,r,2,(1.0544208940658713e-14, 172.20000000000002),23,-7,13,yes,x,5,x,0.5572507000761107,1,75,test1,3,0.5573802000144497,-52.0
23,lyy,f,22,r,2,(121.76378772032349, 121.76378772032349),22,5,2,yes,x,5,x,0.8110952000133693,1,76,test1,3,0.8112281000940129,-40.0
23,lyy,f,22,r,2,(-3.163262682197613e-14, -172.20000000000002),27,-25,14,no,m,6,m,1.0414189000148326,1,77,test1,3,1.0417588000418618,-40.0
23,lyy,f,22,r,2,(172.20000000000002, 0.0),21,-25,14,yes,x,5,x,0.50653350003995,1,78,test1,3,0.5071176000637934,-70.0
23,lyy,f,22,r,2,(121.76378772032346, -121.76378772032352),28,-25,14,no,m,6,m,1.0081699000438675,1,79,test1,3,1.0082761000376195,-70.0
23,lyy,f,22,r,2,(121.76378772032349, 121.76378772032349),22,5,2,no,m,6,m,0.9180654000956565,1,80,test1,3,0.9183776000281796,-70.0
23,lyy,f,22,r,2,(172.20000000000002, 0.0),21,-25,14,no,m,6,m,0.8753795999800786,1,81,test1,3,0.8759149999823421,-70.0
23,lyy,f,22,r,2,(1.0544208940658713e-14, 172.20000000000002),23,-5,12,yes,x,5,x,0.5223156999563798,1,82,test1,3,0.5225388000253588,-50.0
23,lyy,f,22,r,2,(121.76378772032346, -121.76378772032352),28,-5,12,no,m,6,m,0.7899835000280291,1,83,test1,3,0.7900907000293955,-50.0
23,lyy,f,22,r,2,(121.76378772032346, -121.76378772032352),28,25,4,yes,x,5,x,0.650815200060606,1,84,test1,3,0.6512822000076994,-20.0
23,lyy,f,22,r,2,(172.20000000000002, 0.0),21,-3,11,no,m,6,m,0.8236617000075057,1,85,test1,3,0.8238694000756368,-20.0
23,lyy,f,22,r,2,(172.20000000000002, 0.0),21,25,4,yes,x,5,x,0.6094449999509379,1,86,test1,3,0.6097209999570623,-20.0
23,lyy,f,22,r,2,(121.76378772032349, 121.76378772032349),22,-3,11,yes,x,5,x,1.1015250000637025,1,87,test1,3,1.1017952000256628,-48.0
23,lyy,f,22,r,2,(121.76378772032349, 121.76378772032349),22,3,1,yes,x,5,x,0.9350795999635011,1,88,test1,3,0.9355587000027299,-42.0
23,lyy,f,22,r,2,(121.76378772032349, 121.76378772032349),22,25,4,yes,x,5,x,0.5498536999803036,1,89,test1,3,0.5501975999213755,-20.0
23,lyy,f,22,r,2,(1.0544208940658713e-14, 172.20000000000002),23,7,3,no,m,6,m,1.0313862999901175,1,90,test1,3,1.0319291999330744,-20.0
23,lyy,f,22,r,2,(121.76378772032349, 121.76378772032349),22,7,3,yes,x,5,x,0.6662404999369755,1,91,test1,3,0.6663553999969736,-38.0
23,lyy,f,22,r,2,(-3.163262682197613e-14, -172.20000000000002),27,-3,11,yes,x,5,x,0.715648700017482,1,92,test1,3,0.715973399928771,-48.0
23,lyy,f,22,r,2,(172.20000000000002, 0.0),21,-7,13,yes,x,5,x,0.5588966000359505,1,93,test1,3,0.5593847999116406,-52.0
23,lyy,f,22,r,2,(-3.163262682197613e-14, -172.20000000000002),27,25,4,no,m,6,m,0.8968826000345871,1,94,test1,3,0.8971868000226095,-52.0
23,lyy,f,22,r,2,(-3.163262682197613e-14, -172.20000000000002),27,-25,14,yes,x,5,x,0.5917416999582201,1,95,test1,3,0.5918492999626324,-70.0
23,lyy,f,22,r,2,(-3.163262682197613e-14, -172.20000000000002),27,-3,11,no,m,6,m,0.9051665000151843,1,96,test1,3,0.905334800016135,-70.0
23,lyy,f,22,r,2,(121.76378772032346, -121.76378772032352),28,25,4,yes,x,5,x,0.4831363999983296,1,1,test2,3,0.48349400004372,-20.0
23,lyy,f,22,r,2,(172.20000000000002, 0.0),21,-7,13,no,m,6,m,0.9155218999367207,1,2,test2,3,0.91570909996517,-20.0
23,lyy,f,22,r,2,(1.0544208940658713e-14, 172.20000000000002),23,25,4,yes,x,5,x,0.4839709000661969,1,3,test2,3,0.48407449992373586,-20.0
23,lyy,f,22,r,2,(-121.76378772032352, -121.76378772032348),26,25,4,yes,x,5,x,0.4248686999781057,1,4,test2,3,0.4249720999505371,-20.0
23,lyy,f,22,r,2,(121.76378772032346, -121.76378772032352),28,3,1,yes,x,5,x,0.6681828999426216,1,5,test2,3,0.6683183000423014,-42.0
23,lyy,f,22,r,2,(-121.76378772032348, 121.76378772032349),24,-7,13,yes,x,5,x,0.4879374000011012,1,6,test2,3,0.4881279000546783,-52.0
23,lyy,f,22,r,2,(121.76378772032349, 121.76378772032349),22,-7,13,yes,x,5,x,0.676795499981381,1,7,test2,3,0.6772104999981821,-52.0
23,lyy,f,22,r,2,(-121.76378772032348, 121.76378772032349),24,-5,12,yes,x,5,x,0.5427734999684617,1,8,test2,3,0.5434462999692187,-50.0
23,lyy,f,22,r,2,(-3.163262682197613e-14, -172.20000000000002),27,3,1,yes,x,5,m,0.9809250999242067,0,9,test2,3,0.981272800010629,-42.0
23,lyy,f,22,r,2,(-121.76378772032348, 121.76378772032349),24,3,1,yes,x,5,x,0.5750296000624076,1,10,test2,3,0.5753404999850318,-42.0
23,lyy,f,22,r,2,(-172.20000000000002, 2.1088417881317425e-14),25,-25,14,yes,x,5,x,0.5155011999886483,1,11,test2,3,0.5158605999313295,-70.0
23,lyy,f,22,r,2,(172.20000000000002, 0.0),21,-25,14,yes,x,5,x,0.7224077000282705,1,12,test2,3,0.7227471999358386,-70.0
23,lyy,f,22,r,2,(121.76378772032346, -121.76378772032352),28,-25,14,yes,x,5,x,0.4708201000466943,1,13,test2,3,0.47109220002312213,-70.0
23,lyy,f,22,r,2,(-121.76378772032352, -121.76378772032348),26,7,3,yes,x,5,x,0.433377500041388,1,14,test2,3,0.4337561000138521,-38.0
23,lyy,f,22,r,2,(121.76378772032349, 121.76378772032349),22,3,1,no,m,6,m,0.8993984999833629,1,15,test2,3,0.8998641000362113,-38.0
23,lyy,f,22,r,2,(-121.76378772032348, 121.76378772032349),24,-3,11,yes,x,5,x,0.8409926999593154,1,16,test2,3,0.8417464999947697,-48.0
23,lyy,f,22,r,2,(172.20000000000002, 0.0),21,7,3,yes,x,5,x,0.48714470001868904,1,17,test2,3,0.4873694999841973,-38.0
23,lyy,f,22,r,2,(-3.163262682197613e-14, -172.20000000000002),27,-5,12,no,m,6,m,1.093948800000362,1,18,test2,3,1.0942000999348238,-38.0
23,lyy,f,22,r,2,(1.0544208940658713e-14, 172.20000000000002),23,3,1,yes,x,5,x,0.9800688000395894,1,19,test2,3,0.9804719000821933,-42.0
23,lyy,f,22,r,2,(-172.20000000000002, 2.1088417881317425e-14),25,-7,13,yes,x,5,x,0.5409636000404134,1,20,test2,3,0.5414450999815017,-52.0
23,lyy,f,22,r,2,(121.76378772032346, -121.76378772032352),28,-7,13,no,m,6,m,1.2990775000071153,1,21,test2,3,1.2992570999776945,-52.0
23,lyy,f,22,r,2,(-3.163262682197613e-14, -172.20000000000002),27,-5,12,yes,x,5,x,0.5807762000476941,1,22,test2,3,0.5808776000048965,-50.0
23,lyy,f,22,r,2,(121.76378772032346, -121.76378772032352),28,7,3,yes,x,5,x,0.48315990006085485,1,23,test2,3,0.4834907000185922,-38.0
23,lyy,f,22,r,2,(172.20000000000002, 0.0),21,3,1,yes,x,5,x,0.7996161000337452,1,24,test2,3,0.799989000079222,-42.0
23,lyy,f,22,r,2,(121.76378772032346, -121.76378772032352),28,-7,13,yes,x,5,x,0.574635099968873,1,25,test2,3,0.5747399999527261,-52.0
23,lyy,f,22,r,2,(121.76378772032349, 121.76378772032349),22,-5,12,yes,x,5,x,0.5195317999459803,1,26,test2,3,0.5197572000324726,-50.0
23,lyy,f,22,r,2,(-3.163262682197613e-14, -172.20000000000002),27,5,2,yes,x,5,x,0.6123522000852972,1,27,test2,3,0.6126769999973476,-40.0
23,lyy,f,22,r,2,(121.76378772032346, -121.76378772032352),28,-5,12,yes,x,5,x,0.5424851999850944,1,28,test2,3,0.5428492999635637,-50.0
23,lyy,f,22,r,2,(121.76378772032346, -121.76378772032352),28,7,3,yes,x,5,x,0.5675947999116033,1,29,test2,3,0.5678246999159455,-38.0
23,lyy,f,22,r,2,(-3.163262682197613e-14, -172.20000000000002),27,-25,14,yes,x,5,x,0.4688629999291152,1,30,test2,3,0.4689659000141546,-70.0
23,lyy,f,22,r,2,(-121.76378772032348, 121.76378772032349),24,-3,11,yes,x,5,x,1.176214599981904,1,31,test2,3,1.1764182999031618,-48.0
23,lyy,f,22,r,2,(-172.20000000000002, 2.1088417881317425e-14),25,7,3,yes,x,5,x,0.5191708999918774,1,32,test2,3,0.5196156000019982,-38.0
23,lyy,f,22,r,2,(121.76378772032349, 121.76378772032349),22,-25,14,no,m,6,m,0.994511800003238,1,33,test2,3,0.9947259000036865,-38.0
23,lyy,f,22,r,2,(-3.163262682197613e-14, -172.20000000000002),27,3,1,no,m,6,m,0.9328016000799835,1,34,test2,3,0.9329769000178203,-38.0
23,lyy,f,22,r,2,(1.0544208940658713e-14, 172.20000000000002),23,-5,12,yes,x,5,x,0.5835050999885425,1,35,test2,3,0.5836699999636039,-50.0
23,lyy,f,22,r,2,(-121.76378772032352, -121.76378772032348),26,5,2,yes,x,5,x,0.6776865000138059,1,36,test2,3,0.6782065000152215,-40.0
23,lyy,f,22,r,2,(-3.163262682197613e-14, -172.20000000000002),27,7,3,no,m,6,m,0.9182549000252038,1,37,test2,3,0.9183593000052497,-40.0
23,lyy,f,22,r,2,(-3.163262682197613e-14, -172.20000000000002),27,5,2,yes,x,5,x,0.5576795999659225,1,38,test2,3,0.557783400057815,-40.0
23,lyy,f,22,r,2,(1.0544208940658713e-14, 172.20000000000002),23,7,3,yes,x,5,x,0.49076179997064173,1,39,test2,3,0.49126610008534044,-38.0
23,lyy,f,22,r,2,(121.76378772032346, -121.76378772032352),28,-7,13,yes,x,5,x,0.6234992000972852,1,40,test2,3,0.6239412999711931,-52.0
23,lyy,f,22,r,2,(-121.76378772032352, -121.76378772032348),26,-25,14,yes,x,5,x,0.5866519999690354,1,41,test2,3,0.5869262999622151,-70.0
23,lyy,f,22,r,2,(-121.76378772032352, -121.76378772032348),26,3,1,yes,x,5,x,0.706000900012441,1,42,test2,3,0.7062950000399724,-42.0
23,lyy,f,22,r,2,(121.76378772032349, 121.76378772032349),22,5,2,yes,x,5,x,0.6283808000152931,1,43,test2,3,0.6284860000014305,-40.0
23,lyy,f,22,r,2,(172.20000000000002, 0.0),21,5,2,yes,x,5,x,0.6456177000654861,1,44,test2,3,0.6463487999280915,-40.0
23,lyy,f,22,r,2,(-121.76378772032352, -121.76378772032348),26,5,2,no,m,6,m,0.8956498999614269,1,45,test2,3,0.8958275999175385,-40.0
23,lyy,f,22,r,2,(-121.76378772032348, 121.76378772032349),24,25,4,no,m,6,m,1.0698320999508724,1,46,test2,3,1.0699353000381961,-40.0
23,lyy,f,22,r,2,(-3.163262682197613e-14, -172.20000000000002),27,7,3,yes,x,5,x,0.5702562000369653,1,47,test2,3,0.5704378000227734,-38.0
23,lyy,f,22,r,2,(121.76378772032346, -121.76378772032352),28,5,2,yes,x,5,x,0.5976407999405637,1,48,test2,3,0.5978438999736682,-40.0
23,lyy,f,22,r,2,(-121.76378772032348, 121.76378772032349),24,-25,14,yes,x,5,x,0.5561139000346884,1,49,test2,3,0.5562841000501066,-70.0
23,lyy,f,22,r,2,(-121.76378772032348, 121.76378772032349),24,7,3,yes,x,5,x,0.5604812999954447,1,50,test2,3,0.5609537999844179,-38.0
23,lyy,f,22,r,2,(-3.163262682197613e-14, -172.20000000000002),27,25,4,yes,x,5,x,0.5420174000319093,1,51,test2,3,0.5422336000483483,-20.0
23,lyy,f,22,r,2,(-121.76378772032348, 121.76378772032349),24,-7,13,no,m,6,m,0.8910232000052929,1,52,test2,3,0.8912851000204682,-20.0
23,lyy,f,22,r,2,(-172.20000000000002, 2.1088417881317425e-14),25,5,2,no,m,6,m,0.7578936000354588,1,53,test2,3,0.7585324000101537,-20.0
23,lyy,f,22,r,2,(-121.76378772032352, -121.76378772032348),26,-5,12,yes,x,5,x,0.5781420000130311,1,54,test2,3,0.5782469999976456,-50.0
23,lyy,f,22,r,2,(121.76378772032346, -121.76378772032352),28,7,3,no,m,6,m,0.6870897000189871,1,55,test2,3,0.6871960000135005,-50.0
23,lyy,f,22,r,2,(-121.76378772032352, -121.76378772032348),26,-5,12,yes,x,5,x,0.8339744000695646,1,56,test2,3,0.8341054000193253,-50.0
23,lyy,f,22,r,2,(121.76378772032346, -121.76378772032352),28,-3,11,yes,x,5,x,0.8804149000206962,1,57,test2,3,0.8806704999879003,-48.0
23,lyy,f,22,r,2,(-121.76378772032352, -121.76378772032348),26,25,4,yes,x,5,x,0.6717203999869525,1,58,test2,3,0.6718384999549016,-20.0
23,lyy,f,22,r,2,(-172.20000000000002, 2.1088417881317425e-14),25,3,1,yes,x,5,x,0.8909127999795601,1,59,test2,3,0.8923688000068069,-42.0
23,lyy,f,22,r,2,(121.76378772032349, 121.76378772032349),22,7,3,no,m,6,m,0.9051431000698358,1,60,test2,3,0.9054243999999017,-42.0
23,lyy,f,22,r,2,(1.0544208940658713e-14, 172.20000000000002),23,-7,13,no,m,6,x,1.3129068999551237,0,61,test2,3,1.3131188999395818,-42.0
23,lyy,f,22,r,2,(-121.76378772032348, 121.76378772032349),24,-7,13,yes,x,5,x,1.1239946000277996,1,62,test2,3,1.124185400083661,-52.0
23,lyy,f,22,r,2,(-3.163262682197613e-14, -172.20000000000002),27,5,2,no,m,6,m,0.9960395999951288,1,63,test2,3,0.9966930999653414,-52.0
23,lyy,f,22,r,2,(-121.76378772032352, -121.76378772032348),26,-3,11,yes,x,5,x,0.8460276999976486,1,64,test2,3,0.8461864000419155,-48.0
23,lyy,f,22,r,2,(-121.76378772032352, -121.76378772032348),26,-3,11,no,m,6,m,0.7714644999941811,1,65,test2,3,0.7716905000852421,-48.0
23,lyy,f,22,r,2,(-121.76378772032352, -121.76378772032348),26,7,3,no,m,6,m,0.8003666000440717,1,66,test2,3,0.8006647999864072,-48.0
23,lyy,f,22,r,2,(-3.163262682197613e-14, -172.20000000000002),27,7,3,yes,x,5,x,0.7255327999591827,1,67,test2,3,0.7263936999952421,-38.0
23,lyy,f,22,r,2,(1.0544208940658713e-14, 172.20000000000002),23,-7,13,yes,x,5,x,0.7768535000504926,1,68,test2,3,0.776989399921149,-52.0
23,lyy,f,22,r,2,(121.76378772032346, -121.76378772032352),28,-3,11,yes,x,5,x,1.1490900999633595,1,69,test2,3,1.1492152999853715,-48.0
23,lyy,f,22,r,2,(172.20000000000002, 0.0),21,3,1,yes,x,5,x,0.9937250000657514,1,70,test2,3,0.9938586000353098,-42.0
23,lyy,f,22,r,2,(121.76378772032346, -121.76378772032352),28,5,2,no,m,6,m,0.8520186999812722,1,71,test2,3,0.8521593000041321,-42.0
23,lyy,f,22,r,2,(172.20000000000002, 0.0),21,7,3,yes,x,5,x,0.6751391000580043,1,72,test2,3,0.6753458000021055,-38.0
23,lyy,f,22,r,2,(-172.20000000000002, 2.1088417881317425e-14),25,7,3,yes,x,5,x,0.5829931000480428,1,73,test2,3,0.5833638999611139,-38.0
23,lyy,f,22,r,2,(1.0544208940658713e-14, 172.20000000000002),23,-25,14,yes,x,5,x,0.5674760000547394,1,74,test2,3,0.5677633000304922,-70.0
23,lyy,f,22,r,2,(1.0544208940658713e-14, 172.20000000000002),23,5,2,yes,x,5,x,0.584877600078471,1,75,test2,3,0.5849793999223039,-40.0
23,lyy,f,22,r,2,(-3.163262682197613e-14, -172.20000000000002),27,3,1,yes,x,5,x,0.783612999948673,1,76,test2,3,0.7839709999971092,-42.0
23,lyy,f,22,r,2,(-172.20000000000002, 2.1088417881317425e-14),25,-5,12,no,m,6,m,1.0188217000104487,1,77,test2,3,1.0190239000367,-42.0
23,lyy,f,22,r,2,(1.0544208940658713e-14, 172.20000000000002),23,7,3,yes,x,5,x,0.6193106999853626,1,78,test2,3,0.6195388999767601,-38.0
23,lyy,f,22,r,2,(-172.20000000000002, 2.1088417881317425e-14),25,7,3,no,m,6,m,1.1245017999317497,1,79,test2,3,1.1247972999699414,-38.0
23,lyy,f,22,r,2,(172.20000000000002, 0.0),21,3,1,no,m,6,m,1.0970050999894738,1,80,test2,3,1.09736310003791,-38.0
23,lyy,f,22,r,2,(121.76378772032349, 121.76378772032349),22,-25,14,yes,x,5,x,0.6733119999989867,1,81,test2,3,0.6734355000080541,-70.0
23,lyy,f,22,r,2,(-172.20000000000002, 2.1088417881317425e-14),25,-3,11,no,m,6,m,0.8809334000106901,1,82,test2,3,0.8812136000487953,-70.0
23,lyy,f,22,r,2,(172.20000000000002, 0.0),21,-3,11,yes,x,5,x,0.8130787999834865,1,83,test2,3,0.8131928000366315,-48.0
23,lyy,f,22,r,2,(1.0544208940658713e-14, 172.20000000000002),23,5,2,no,m,6,m,0.7971481001004577,1,84,test2,3,0.7972501000622287,-48.0
23,lyy,f,22,r,2,(172.20000000000002, 0.0),21,-5,12,no,m,6,m,1.165540200076066,1,85,test2,3,1.1656461000675336,-48.0
23,lyy,f,22,r,2,(-121.76378772032352, -121.76378772032348),26,-3,11,yes,x,5,x,0.684931099996902,1,86,test2,3,0.6854099000338465,-48.0
23,lyy,f,22,r,2,(-121.76378772032348, 121.76378772032349),24,5,2,no,m,6,m,0.7903005999978632,1,87,test2,3,0.7904407000169158,-48.0
23,lyy,f,22,r,2,(1.0544208940658713e-14, 172.20000000000002),23,25,4,yes,x,5,x,0.6493514999747276,1,88,test2,3,0.6494726999662817,-20.0
23,lyy,f,22,r,2,(121.76378772032346, -121.76378772032352),28,3,1,yes,x,5,m,0.8677328999619931,0,89,test2,3,0.8679096999112517,-42.0
23,lyy,f,22,r,2,(1.0544208940658713e-14, 172.20000000000002),23,3,1,no,m,6,m,0.7353909000521526,1,90,test2,3,0.7354971000459045,-42.0
23,lyy,f,22,r,2,(121.76378772032346, -121.76378772032352),28,-3,11,no,m,6,m,0.91531800001394,1,91,test2,3,0.9155249000759795,-42.0
23,lyy,f,22,r,2,(-121.76378772032348, 121.76378772032349),24,7,3,yes,x,5,x,0.5726621000794694,1,92,test2,3,0.5727637000381947,-38.0
23,lyy,f,22,r,2,(1.0544208940658713e-14, 172.20000000000002),23,5,2,yes,x,5,x,0.5483849999727681,1,93,test2,3,0.5485066999681294,-40.0
23,lyy,f,22,r,2,(121.76378772032346, -121.76378772032352),28,25,4,no,m,6,m,0.7081971999723464,1,94,test2,3,0.7083060001023114,-40.0
23,lyy,f,22,r,2,(121.76378772032349, 121.76378772032349),22,25,4,yes,x,5,x,0.5564908001106232,1,95,test2,3,0.5566287999972701,-20.0
23,lyy,f,22,r,2,(1.0544208940658713e-14, 172.20000000000002),23,-25,14,yes,x,5,x,0.886209899908863,1,96,test2,3,0.8864368998911232,-70.0
23,lyy,f,22,r,2,(-172.20000000000002, 2.1088417881317425e-14),25,5,2,yes,x,5,x,0.7907649000408128,1,1,test1,4,0.7911238000961021,-40.0
23,lyy,f,22,r,2,(-172.20000000000002, 2.1088417881317425e-14),25,-7,13,no,m,6,x,1.231547400006093,0,2,test1,4,1.232038400019519,-40.0
23,lyy,f,22,r,2,(121.76378772032349, 121.76378772032349),22,3,1,yes,x,5,x,0.7557671000249684,1,3,test1,4,0.7558829999761656,-42.0
23,lyy,f,22,r,2,(-121.76378772032352, -121.76378772032348),26,3,1,yes,x,5,x,0.8479814999736845,1,4,test1,4,0.8480974999256432,-42.0
23,lyy,f,22,r,2,(-121.76378772032348, 121.76378772032349),24,-5,12,no,m,6,m,0.8878153000259772,1,5,test1,4,0.8879271999467164,-42.0
23,lyy,f,22,r,2,(172.20000000000002, 0.0),21,5,2,no,m,6,m,1.098572300048545,1,6,test1,4,1.0992117999121547,-42.0
23,lyy,f,22,r,2,(-172.20000000000002, 2.1088417881317425e-14),25,-7,13,yes,x,5,x,0.7336315999273211,1,7,test1,4,0.733739799936302,-52.0
23,lyy,f,22,r,2,(-121.76378772032352, -121.76378772032348),26,-25,14,yes,x,5,x,0.7014964999398217,1,8,test1,4,0.7016696999780834,-70.0
23,lyy,f,22,r,2,(121.76378772032349, 121.76378772032349),22,-25,14,yes,x,5,x,0.6438259000424296,1,9,test1,4,0.64407779998146,-70.0
23,lyy,f,22,r,2,(-121.76378772032348, 121.76378772032349),24,-25,14,yes,x,5,x,0.6820547999814153,1,10,test1,4,0.6821564000565559,-70.0
23,lyy,f,22,r,2,(-3.163262682197613e-14, -172.20000000000002),27,-7,13,yes,x,5,x,0.7383354000048712,1,11,test1,4,0.738553800038062,-52.0
23,lyy,f,22,r,2,(-121.76378772032348, 121.76378772032349),24,3,1,yes,x,5,x,0.6854349999921396,1,12,test1,4,0.6862656999146566,-42.0
23,lyy,f,22,r,2,(1.0544208940658713e-14, 172.20000000000002),23,-5,12,no,m,6,m,1.120857400004752,1,13,test1,4,1.1215372000588104,-42.0
23,lyy,f,22,r,2,(121.76378772032346, -121.76378772032352),28,5,2,yes,x,5,x,0.5978091000579298,1,14,test1,4,0.598184600006789,-40.0
23,lyy,f,22,r,2,(121.76378772032349, 121.76378772032349),22,-7,13,yes,x,5,x,0.6071402999805287,1,15,test1,4,0.6072409000480548,-52.0
23,lyy,f,22,r,2,(-3.163262682197613e-14, -172.20000000000002),27,-3,11,yes,x,5,x,1.0959541000192985,1,16,test1,4,1.0964722000062466,-48.0
23,lyy,f,22,r,2,(-172.20000000000002, 2.1088417881317425e-14),25,3,1,no,m,6,m,0.9336728999624029,1,17,test1,4,0.9337743999203667,-48.0
23,lyy,f,22,r,2,(-121.76378772032348, 121.76378772032349),24,-5,12,yes,x,5,x,0.720500799943693,1,18,test1,4,0.7206013000104576,-50.0
23,lyy,f,22,r,2,(172.20000000000002, 0.0),21,5,2,yes,x,5,x,0.6358347999630496,1,19,test1,4,0.636048199958168,-40.0
23,lyy,f,22,r,2,(-172.20000000000002, 2.1088417881317425e-14),25,25,4,no,m,6,m,0.9863737999694422,1,20,test1,4,0.9866623999550939,-40.0
23,lyy,f,22,r,2,(-121.76378772032348, 121.76378772032349),24,7,3,no,m,6,m,1.2035246000159532,1,21,test1,4,1.203679300029762,-40.0
23,lyy,f,22,r,2,(-172.20000000000002, 2.1088417881317425e-14),25,-3,11,yes,x,5,x,0.8623628999339417,1,22,test1,4,0.8627744000405073,-48.0
23,lyy,f,22,r,2,(121.76378772032349, 121.76378772032349),22,-3,11,no,m,6,m,1.1313232999527827,1,23,test1,4,1.1315248999744654,-48.0
23,lyy,f,22,r,2,(-121.76378772032352, -121.76378772032348),26,25,4,no,m,6,m,1.1174590999726206,1,24,test1,4,1.117828999995254,-48.0
23,lyy,f,22,r,2,(121.76378772032349, 121.76378772032349),22,7,3,yes,x,5,x,0.6177560000214726,1,25,test1,4,0.617929800064303,-38.0
23,lyy,f,22,r,2,(-172.20000000000002, 2.1088417881317425e-14),25,25,4,yes,x,5,x,0.6121571999974549,1,26,test1,4,0.6123301000334322,-20.0
23,lyy,f,22,r,2,(1.0544208940658713e-14, 172.20000000000002),23,-25,14,no,m,6,m,0.8796558999456465,1,27,test1,4,0.8797572000185028,-20.0
23,lyy,f,22,r,2,(-172.20000000000002, 2.1088417881317425e-14),25,5,2,yes,x,5,x,0.7152809000108391,1,28,test1,4,0.7153959000715986,-40.0
23,lyy,f,22,r,2,(121.76378772032349, 121.76378772032349),22,25,4,no,m,6,m,1.4441130999475718,1,29,test1,4,1.444429500028491,-40.0
23,lyy,f,22,r,2,(-121.76378772032352, -121.76378772032348),26,5,2,yes,x,5,x,0.6033212000038475,1,30,test1,4,0.6036926000379026,-40.0
23,lyy,f,22,r,2,(-121.76378772032348, 121.76378772032349),24,-25,14,no,m,6,m,0.7951350000221282,1,31,test1,4,0.7953701999504119,-40.0
23,lyy,f,22,r,2,(-121.76378772032352, -121.76378772032348),26,-5,12,no,m,6,m,0.8063363999826834,1,32,test1,4,0.8065434000454843,-40.0
23,lyy,f,22,r,2,(-121.76378772032352, -121.76378772032348),26,-25,14,no,m,6,m,1.1609047000529245,1,33,test1,4,1.1612926000962034,-40.0
23,lyy,f,22,r,2,(-121.76378772032348, 121.76378772032349),24,3,1,no,m,6,m,0.8827270000474527,1,34,test1,4,0.883323400048539,-40.0
23,lyy,f,22,r,2,(-3.163262682197613e-14, -172.20000000000002),27,-7,13,yes,x,5,x,0.7758632999612018,1,35,test1,4,0.7762313999701291,-52.0
23,lyy,f,22,r,2,(1.0544208940658713e-14, 172.20000000000002),23,-3,11,yes,x,5,x,0.8827388000208884,1,36,test1,4,0.8828378000762314,-48.0
23,lyy,f,22,r,2,(-172.20000000000002, 2.1088417881317425e-14),25,-25,14,no,m,6,m,0.9476319999666885,1,37,test1,4,0.9477970000589266,-48.0
23,lyy,f,22,r,2,(121.76378772032349, 121.76378772032349),22,-5,12,yes,x,5,x,0.744079599971883,1,38,test1,4,0.7442741999402642,-50.0
23,lyy,f,22,r,2,(172.20000000000002, 0.0),21,25,4,no,m,6,m,0.8882843001047149,1,39,test1,4,0.8883978000376374,-50.0
23,lyy,f,22,r,2,(-121.76378772032348, 121.76378772032349),24,25,4,yes,x,5,x,0.7488884000340477,1,40,test1,4,0.7491925000213087,-20.0
23,lyy,f,22,r,2,(-121.76378772032352, -121.76378772032348),26,3,1,no,m,6,m,0.9911127999657765,1,41,test1,4,0.9913981000427157,-20.0
23,lyy,f,22,r,2,(121.76378772032349, 121.76378772032349),22,-3,11,yes,x,5,x,0.8583676000125706,1,42,test1,4,0.8585550000425428,-48.0
23,lyy,f,22,r,2,(172.20000000000002, 0.0),21,-3,11,yes,x,5,m,1.1273876000195742,0,43,test1,4,1.1276083999546245,-48.0
23,lyy,f,22,r,2,(-172.20000000000002, 2.1088417881317425e-14),25,3,1,yes,x,5,x,0.8495737999910489,1,44,test1,4,0.849674400058575,-42.0
23,lyy,f,22,r,2,(121.76378772032349, 121.76378772032349),22,-5,12,no,m,6,m,0.8775814999826252,1,45,test1,4,0.8780471000354737,-42.0
23,lyy,f,22,r,2,(121.76378772032346, -121.76378772032352),28,-5,12,yes,x,5,x,0.6982412999495864,1,46,test1,4,0.6986626000143588,-50.0
23,lyy,f,22,r,2,(1.0544208940658713e-14, 172.20000000000002),23,-3,11,yes,x,5,x,0.9456017999909818,1,47,test1,4,0.9457723000086844,-48.0
23,lyy,f,22,r,2,(-121.76378772032348, 121.76378772032349),24,5,2,yes,x,5,x,0.6937077000038698,1,48,test1,4,0.6940226999577135,-40.0
23,lyy,f,22,r,2,(1.0544208940658713e-14, 172.20000000000002),23,-3,11,no,m,6,m,0.9697089000837877,1,49,test1,4,0.9698459999635816,-40.0
23,lyy,f,22,r,2,(-172.20000000000002, 2.1088417881317425e-14),25,-5,12,yes,x,5,x,0.7040069000795484,1,50,test1,4,0.7041050000116229,-50.0
23,lyy,f,22,r,2,(-121.76378772032348, 121.76378772032349),24,5,2,yes,x,5,x,0.6659508000593632,1,51,test1,4,0.6660515000112355,-40.0
23,lyy,f,22,r,2,(121.76378772032346, -121.76378772032352),28,-25,14,yes,x,5,x,0.615483200061135,1,52,test1,4,0.6156685000751168,-70.0
23,lyy,f,22,r,2,(-121.76378772032352, -121.76378772032348),26,-7,13,yes,x,5,x,0.6496317000128329,1,53,test1,4,0.6497340999776497,-52.0
23,lyy,f,22,r,2,(172.20000000000002, 0.0),21,-5,12,yes,x,5,x,0.6129891000455245,1,54,test1,4,0.6133026999887079,-50.0
23,lyy,f,22,r,2,(172.20000000000002, 0.0),21,7,3,no,m,6,m,1.1097787000471726,1,55,test1,4,1.1099183999467641,-50.0
23,lyy,f,22,r,2,(-121.76378772032352, -121.76378772032348),26,7,3,yes,x,5,x,0.6460182000882924,1,56,test1,4,0.6462259000400081,-38.0
23,lyy,f,22,r,2,(121.76378772032346, -121.76378772032352),28,3,1,no,m,6,m,0.8705052000004798,1,57,test1,4,0.870608999975957,-38.0
23,lyy,f,22,r,2,(-3.163262682197613e-14, -172.20000000000002),27,-7,13,no,m,6,m,0.848827299894765,1,58,test1,4,0.8490653999615461,-38.0
23,lyy,f,22,r,2,(-121.76378772032348, 121.76378772032349),24,25,4,yes,x,5,x,0.647760899970308,1,59,test1,4,0.6480226999847218,-20.0
23,lyy,f,22,r,2,(-121.76378772032348, 121.76378772032349),24,-3,11,no,m,6,m,0.9286359999096021,1,60,test1,4,0.9290044999215752,-20.0
23,lyy,f,22,r,2,(-172.20000000000002, 2.1088417881317425e-14),25,25,4,yes,x,5,x,0.6466425999533385,1,61,test1,4,0.6471107000252232,-20.0
23,lyy,f,22,r,2,(172.20000000000002, 0.0),21,-7,13,yes,x,5,x,0.6857682000845671,1,62,test1,4,0.6859453999204561,-52.0
23,lyy,f,22,r,2,(-3.163262682197613e-14, -172.20000000000002),27,-5,12,yes,x,5,x,0.6809577000094578,1,63,test1,4,0.681194799952209,-50.0
23,lyy,f,22,r,2,(172.20000000000002, 0.0),21,25,4,yes,x,5,x,0.6256713001057506,1,64,test1,4,0.6261704000644386,-20.0
23,lyy,f,22,r,2,(-172.20000000000002, 2.1088417881317425e-14),25,-3,11,yes,x,5,x,0.9606471000006422,1,65,test1,4,0.9607539999997243,-48.0
23,lyy,f,22,r,2,(1.0544208940658713e-14, 172.20000000000002),23,25,4,no,m,6,m,1.0872514999937266,1,66,test1,4,1.0875311000272632,-48.0
23,lyy,f,22,r,2,(121.76378772032349, 121.76378772032349),22,-7,13,no,m,6,m,1.2474527000449598,1,67,test1,4,1.2476952000288293,-48.0
23,lyy,f,22,r,2,(-172.20000000000002, 2.1088417881317425e-14),25,-5,12,yes,x,5,x,0.8405168999452144,1,68,test1,4,0.8407102000201121,-50.0
23,lyy,f,22,r,2,(-172.20000000000002, 2.1088417881317425e-14),25,-25,14,yes,x,5,x,0.713494100025855,1,69,test1,4,0.7137796999886632,-70.0
23,lyy,f,22,r,2,(172.20000000000002, 0.0),21,-5,12,yes,x,5,x,0.7120846000034362,1,70,test1,4,0.7123095999704674,-50.0
23,lyy,f,22,r,2,(1.0544208940658713e-14, 172.20000000000002),23,3,1,yes,x,5,x,1.1546644000336528,1,71,test1,4,1.155005499953404,-42.0
23,lyy,f,22,r,2,(-121.76378772032352, -121.76378772032348),26,-7,13,no,m,6,m,0.8751221999991685,1,72,test1,4,0.8752601000014693,-42.0
23,lyy,f,22,r,2,(-121.76378772032352, -121.76378772032348),26,-7,13,yes,x,5,x,0.7547278000274673,1,73,test1,4,0.7551166000775993,-52.0
23,lyy,f,22,r,2,(-3.163262682197613e-14, -172.20000000000002),27,25,4,yes,x,5,x,0.6680938999634236,1,74,test1,4,0.6689423000207171,-20.0
23,lyy,f,22,r,2,(1.0544208940658713e-14, 172.20000000000002),23,-7,13,yes,x,5,x,0.655994699918665,1,75,test1,4,0.6564590999623761,-52.0
23,lyy,f,22,r,2,(121.76378772032349, 121.76378772032349),22,5,2,yes,x,5,x,0.7008074999321252,1,76,test1,4,0.7012363000540063,-40.0
23,lyy,f,22,r,2,(-3.163262682197613e-14, -172.20000000000002),27,-25,14,no,m,6,m,0.9030950999585912,1,77,test1,4,0.9035686000715941,-40.0
23,lyy,f,22,r,2,(172.20000000000002, 0.0),21,-25,14,yes,x,5,x,0.6620255999732763,1,78,test1,4,0.6621814001118764,-70.0
23,lyy,f,22,r,2,(121.76378772032346, -121.76378772032352),28,-25,14,no,m,6,m,0.8861323000164703,1,79,test1,4,0.886496499995701,-70.0
23,lyy,f,22,r,2,(121.76378772032349, 121.76378772032349),22,5,2,no,m,6,m,1.0493322999682277,1,80,test1,4,1.049469199962914,-70.0
23,lyy,f,22,r,2,(172.20000000000002, 0.0),21,-25,14,no,m,6,m,0.8048082999885082,1,81,test1,4,0.8049987000413239,-70.0
23,lyy,f,22,r,2,(1.0544208940658713e-14, 172.20000000000002),23,-5,12,yes,x,5,x,1.0882596999872476,1,82,test1,4,1.08839219994843,-50.0
23,lyy,f,22,r,2,(121.76378772032346, -121.76378772032352),28,-5,12,no,m,6,m,0.8445780000183731,1,83,test1,4,0.8446828000014648,-50.0
23,lyy,f,22,r,2,(121.76378772032346, -121.76378772032352),28,25,4,yes,x,5,x,0.6462673000060022,1,84,test1,4,0.6465106999967247,-20.0
23,lyy,f,22,r,2,(172.20000000000002, 0.0),21,-3,11,no,m,6,m,0.7519174999324605,1,85,test1,4,0.7522327000042424,-20.0
23,lyy,f,22,r,2,(172.20000000000002, 0.0),21,25,4,yes,x,5,x,0.8169815000146627,1,86,test1,4,0.8171232000458986,-20.0
23,lyy,f,22,r,2,(121.76378772032349, 121.76378772032349),22,-3,11,yes,x,5,x,0.7641282000113279,1,87,test1,4,0.7644147999817505,-48.0
23,lyy,f,22,r,2,(121.76378772032349, 121.76378772032349),22,3,1,yes,x,5,x,0.6815779999596998,1,88,test1,4,0.6821191000053659,-42.0
23,lyy,f,22,r,2,(121.76378772032349, 121.76378772032349),22,25,4,yes,x,5,x,0.5991797000169754,1,89,test1,4,0.5993875999702141,-20.0
23,lyy,f,22,r,2,(1.0544208940658713e-14, 172.20000000000002),23,7,3,no,m,6,m,1.2256984000559896,1,90,test1,4,1.225956100039184,-20.0
23,lyy,f,22,r,2,(121.76378772032349, 121.76378772032349),22,7,3,yes,x,5,x,0.7311330999946222,1,91,test1,4,0.7313016999978572,-38.0
23,lyy,f,22,r,2,(-3.163262682197613e-14, -172.20000000000002),27,-3,11,yes,x,5,x,1.2360648000612855,1,92,test1,4,1.236809300025925,-48.0
23,lyy,f,22,r,2,(172.20000000000002, 0.0),21,-7,13,yes,x,5,x,0.6253059000009671,1,93,test1,4,0.62563120003324,-52.0
23,lyy,f,22,r,2,(-3.163262682197613e-14, -172.20000000000002),27,25,4,no,m,6,m,0.8346738000400364,1,94,test1,4,0.8348975999979302,-52.0
23,lyy,f,22,r,2,(-3.163262682197613e-14, -172.20000000000002),27,-25,14,yes,x,5,x,0.5188004999654368,1,95,test1,4,0.5191227999748662,-70.0
23,lyy,f,22,r,2,(-3.163262682197613e-14, -172.20000000000002),27,-3,11,no,m,6,m,0.7685801999177784,1,96,test1,4,0.7687073999550194,-70.0
23,lyy,f,22,r,2,(121.76378772032346, -121.76378772032352),28,25,4,yes,x,5,x,0.7117930999957025,1,1,test2,4,0.7120073999976739,-20.0
23,lyy,f,22,r,2,(172.20000000000002, 0.0),21,-7,13,no,m,6,m,0.7727471999824047,1,2,test2,4,0.7728609999176115,-20.0
23,lyy,f,22,r,2,(1.0544208940658713e-14, 172.20000000000002),23,25,4,yes,x,5,x,0.42148070002440363,1,3,test2,4,0.42162849998567253,-20.0
23,lyy,f,22,r,2,(-121.76378772032352, -121.76378772032348),26,25,4,yes,x,5,x,0.5322417999850586,1,4,test2,4,0.5324645000509918,-20.0
23,lyy,f,22,r,2,(121.76378772032346, -121.76378772032352),28,3,1,yes,x,5,m,0.7783904999960214,0,5,test2,4,0.7786078000208363,-42.0
23,lyy,f,22,r,2,(-121.76378772032348, 121.76378772032349),24,-7,13,yes,x,5,x,0.5632962000090629,1,6,test2,4,0.5634405999444425,-52.0
23,lyy,f,22,r,2,(121.76378772032349, 121.76378772032349),22,-7,13,yes,x,5,x,0.9616782000521198,1,7,test2,4,0.961808199994266,-52.0
23,lyy,f,22,r,2,(-121.76378772032348, 121.76378772032349),24,-5,12,yes,x,5,x,0.7090867999941111,1,8,test2,4,0.70919209998101,-50.0
23,lyy,f,22,r,2,(-3.163262682197613e-14, -172.20000000000002),27,3,1,yes,x,5,x,0.7557141000870615,1,9,test2,4,0.7558418000116944,-42.0
23,lyy,f,22,r,2,(-121.76378772032348, 121.76378772032349),24,3,1,yes,x,5,x,0.6529071000404656,1,10,test2,4,0.6531360000371933,-42.0
23,lyy,f,22,r,2,(-172.20000000000002, 2.1088417881317425e-14),25,-25,14,yes,x,5,x,0.5197763999458402,1,11,test2,4,0.5198788999114186,-70.0
23,lyy,f,22,r,2,(172.20000000000002, 0.0),21,-25,14,yes,x,5,x,0.5348077999660745,1,12,test2,4,0.5351373999146745,-70.0
23,lyy,f,22,r,2,(121.76378772032346, -121.76378772032352),28,-25,14,yes,x,5,x,0.6939421000424773,1,13,test2,4,0.6941991000203416,-70.0
23,lyy,f,22,r,2,(-121.76378772032352, -121.76378772032348),26,7,3,yes,x,5,x,0.5360949999885634,1,14,test2,4,0.5361967999488115,-38.0
23,lyy,f,22,r,2,(121.76378772032349, 121.76378772032349),22,3,1,no,m,6,m,0.9591149999760091,1,15,test2,4,0.959293800056912,-38.0
23,lyy,f,22,r,2,(-121.76378772032348, 121.76378772032349),24,-3,11,yes,x,5,x,0.9232072000158951,1,16,test2,4,0.9234009999781847,-48.0
23,lyy,f,22,r,2,(172.20000000000002, 0.0),21,7,3,yes,x,5,m,0.5889422000618652,0,17,test2,4,0.5893721000757068,-38.0
23,lyy,f,22,r,2,(-3.163262682197613e-14, -172.20000000000002),27,-5,12,no,m,6,m,0.8855261999415234,1,18,test2,4,0.8858027999522164,-38.0
23,lyy,f,22,r,2,(1.0544208940658713e-14, 172.20000000000002),23,3,1,yes,x,5,x,0.7001926999073476,1,19,test2,4,0.70042399992235,-42.0
23,lyy,f,22,r,2,(-172.20000000000002, 2.1088417881317425e-14),25,-7,13,yes,x,5,x,0.5191233999794349,1,20,test2,4,0.5195899000391364,-52.0
23,lyy,f,22,r,2,(121.76378772032346, -121.76378772032352),28,-7,13,no,m,6,m,1.3037478000624105,1,21,test2,4,1.3038748999824747,-52.0
23,lyy,f,22,r,2,(-3.163262682197613e-14, -172.20000000000002),27,-5,12,yes,x,5,x,0.8208278999663889,1,22,test2,4,0.8210319000063464,-50.0
23,lyy,f,22,r,2,(121.76378772032346, -121.76378772032352),28,7,3,yes,x,5,x,0.8117995999054983,1,23,test2,4,0.8120963999535888,-38.0
23,lyy,f,22,r,2,(172.20000000000002, 0.0),21,3,1,yes,x,5,x,1.1273660999722779,1,24,test2,4,1.1276794000295922,-42.0
23,lyy,f,22,r,2,(121.76378772032346, -121.76378772032352),28,-7,13,yes,x,5,x,0.5199882999295369,1,25,test2,4,0.5206568000139669,-52.0
23,lyy,f,22,r,2,(121.76378772032349, 121.76378772032349),22,-5,12,yes,x,5,x,0.7518220000201836,1,26,test2,4,0.7521266000112519,-50.0
23,lyy,f,22,r,2,(-3.163262682197613e-14, -172.20000000000002),27,5,2,yes,x,5,x,0.5297676000045612,1,27,test2,4,0.5299372998997569,-40.0
23,lyy,f,22,r,2,(121.76378772032346, -121.76378772032352),28,-5,12,yes,x,5,x,0.5101573000429198,1,28,test2,4,0.5103448999579996,-50.0
23,lyy,f,22,r,2,(121.76378772032346, -121.76378772032352),28,7,3,yes,x,5,x,0.4945393999805674,1,29,test2,4,0.49494280002545565,-38.0
23,lyy,f,22,r,2,(-3.163262682197613e-14, -172.20000000000002),27,-25,14,yes,x,5,x,0.4185656000627205,1,30,test2,4,0.41898389998823404,-70.0
23,lyy,f,22,r,2,(-121.76378772032348, 121.76378772032349),24,-3,11,yes,x,5,x,0.759774399921298,1,31,test2,4,0.7599895000457764,-48.0
23,lyy,f,22,r,2,(-172.20000000000002, 2.1088417881317425e-14),25,7,3,yes,x,5,x,0.5496507999487221,1,32,test2,4,0.5497516000177711,-38.0
23,lyy,f,22,r,2,(121.76378772032349, 121.76378772032349),22,-25,14,no,m,6,m,1.0433045000536367,1,33,test2,4,1.0437121998984367,-38.0
23,lyy,f,22,r,2,(-3.163262682197613e-14, -172.20000000000002),27,3,1,no,m,6,m,1.2892895999830216,1,34,test2,4,1.2893933999584988,-38.0
23,lyy,f,22,r,2,(1.0544208940658713e-14, 172.20000000000002),23,-5,12,yes,x,5,x,0.5933183000888675,1,35,test2,4,0.593453099951148,-50.0
23,lyy,f,22,r,2,(-121.76378772032352, -121.76378772032348),26,5,2,yes,x,5,x,0.5679874999914318,1,36,test2,4,0.5683733000187203,-40.0
23,lyy,f,22,r,2,(-3.163262682197613e-14, -172.20000000000002),27,7,3,no,m,6,m,1.0343546000076458,1,37,test2,4,1.034455499961041,-40.0
23,lyy,f,22,r,2,(-3.163262682197613e-14, -172.20000000000002),27,5,2,yes,x,5,x,0.943263600114733,1,38,test2,4,0.9435071999905631,-40.0
23,lyy,f,22,r,2,(1.0544208940658713e-14, 172.20000000000002),23,7,3,yes,x,5,x,0.604513099999167,1,39,test2,4,0.6050946000032127,-38.0
23,lyy,f,22,r,2,(121.76378772032346, -121.76378772032352),28,-7,13,yes,x,5,x,0.5695559999439865,1,40,test2,4,0.5696883000200614,-52.0
23,lyy,f,22,r,2,(-121.76378772032352, -121.76378772032348),26,-25,14,yes,x,5,x,0.4714503000723198,1,41,test2,4,0.47158619994297624,-70.0
23,lyy,f,22,r,2,(-121.76378772032352, -121.76378772032348),26,3,1,yes,x,5,x,0.5994654000969604,1,42,test2,4,0.6005363999865949,-42.0
23,lyy,f,22,r,2,(121.76378772032349, 121.76378772032349),22,5,2,yes,x,5,x,0.5884208999341354,1,43,test2,4,0.5886250999756157,-40.0
23,lyy,f,22,r,2,(172.20000000000002, 0.0),21,5,2,yes,x,5,x,0.5865205000154674,1,44,test2,4,0.5867908999789506,-40.0
23,lyy,f,22,r,2,(-121.76378772032352, -121.76378772032348),26,5,2,no,m,6,m,1.1028398000635207,1,45,test2,4,1.1030154000036418,-40.0
23,lyy,f,22,r,2,(-121.76378772032348, 121.76378772032349),24,25,4,no,m,6,m,0.7802841999800876,1,46,test2,4,0.7804372000973672,-40.0
23,lyy,f,22,r,2,(-3.163262682197613e-14, -172.20000000000002),27,7,3,yes,x,5,x,0.4900502000236884,1,47,test2,4,0.4901660999748856,-38.0
23,lyy,f,22,r,2,(121.76378772032346, -121.76378772032352),28,5,2,yes,x,5,x,0.6129465999547392,1,48,test2,4,0.6130551999667659,-40.0
23,lyy,f,22,r,2,(-121.76378772032348, 121.76378772032349),24,-25,14,yes,x,5,x,0.46095670002978295,1,49,test2,4,0.46124089998193085,-70.0
23,lyy,f,22,r,2,(-121.76378772032348, 121.76378772032349),24,7,3,yes,x,5,x,0.53950819990132,1,50,test2,4,0.5396469999104738,-38.0
23,lyy,f,22,r,2,(-3.163262682197613e-14, -172.20000000000002),27,25,4,yes,x,5,x,0.47525719995610416,1,51,test2,4,0.4755044999765232,-20.0
23,lyy,f,22,r,2,(-121.76378772032348, 121.76378772032349),24,-7,13,no,m,6,x,0.8538532999809831,0,52,test2,4,0.8539740999694914,-20.0
23,lyy,f,22,r,2,(-172.20000000000002, 2.1088417881317425e-14),25,5,2,no,m,6,m,1.038947399938479,1,53,test2,4,1.0391367999836802,-20.0
23,lyy,f,22,r,2,(-121.76378772032352, -121.76378772032348),26,-5,12,yes,x,5,x,0.6197425000136718,1,54,test2,4,0.6198668000288308,-50.0
23,lyy,f,22,r,2,(121.76378772032346, -121.76378772032352),28,7,3,no,m,6,m,0.9431021000491455,1,55,test2,4,0.9433302000397816,-50.0
23,lyy,f,22,r,2,(-121.76378772032352, -121.76378772032348),26,-5,12,yes,x,5,x,0.6097329000476748,1,56,test2,4,0.6100249999435619,-50.0
23,lyy,f,22,r,2,(121.76378772032346, -121.76378772032352),28,-3,11,yes,x,5,x,1.0479660000419244,1,57,test2,4,1.0486010999884456,-48.0
23,lyy,f,22,r,2,(-121.76378772032352, -121.76378772032348),26,25,4,yes,x,5,x,0.6031490999739617,1,58,test2,4,0.6033502999925986,-20.0
23,lyy,f,22,r,2,(-172.20000000000002, 2.1088417881317425e-14),25,3,1,yes,x,5,x,0.9829346000915393,1,59,test2,4,0.9833751999540254,-42.0
23,lyy,f,22,r,2,(121.76378772032349, 121.76378772032349),22,7,3,no,m,6,m,0.7734017999609932,1,60,test2,4,0.7736999000189826,-42.0
23,lyy,f,22,r,2,(1.0544208940658713e-14, 172.20000000000002),23,-7,13,no,m,6,m,0.8287254000315443,1,61,test2,4,0.8289447000715882,-42.0
23,lyy,f,22,r,2,(-121.76378772032348, 121.76378772032349),24,-7,13,yes,x,5,x,0.7206968000391498,1,62,test2,4,0.7209707999136299,-52.0
23,lyy,f,22,r,2,(-3.163262682197613e-14, -172.20000000000002),27,5,2,no,m,6,m,1.0663887999253348,1,63,test2,4,1.0664944000309333,-52.0
23,lyy,f,22,r,2,(-121.76378772032352, -121.76378772032348),26,-3,11,yes,x,5,x,0.8088691000593826,1,64,test2,4,0.8091484000906348,-48.0
23,lyy,f,22,r,2,(-121.76378772032352, -121.76378772032348),26,-3,11,no,m,6,m,0.8205646999413148,1,65,test2,4,0.8207836999790743,-48.0
23,lyy,f,22,r,2,(-121.76378772032352, -121.76378772032348),26,7,3,no,m,6,m,1.1426482000388205,1,66,test2,4,1.1427499999990687,-48.0
23,lyy,f,22,r,2,(-3.163262682197613e-14, -172.20000000000002),27,7,3,yes,x,5,x,0.5803679999662563,1,67,test2,4,0.5805917999241501,-38.0
23,lyy,f,22,r,2,(1.0544208940658713e-14, 172.20000000000002),23,-7,13,yes,x,5,m,0.9721528999507427,0,68,test2,4,0.9725634000496939,-52.0
23,lyy,f,22,r,2,(121.76378772032346, -121.76378772032352),28,-3,11,yes,x,5,x,1.073978199972771,1,69,test2,4,1.0741983000189066,-48.0
23,lyy,f,22,r,2,(172.20000000000002, 0.0),21,3,1,yes,x,5,x,1.0544392000883818,1,70,test2,4,1.054676799918525,-42.0
23,lyy,f,22,r,2,(121.76378772032346, -121.76378772032352),28,5,2,no,m,6,m,0.8900407999753952,1,71,test2,4,0.8902761999052018,-42.0
23,lyy,f,22,r,2,(172.20000000000002, 0.0),21,7,3,yes,x,5,x,0.610461900010705,1,72,test2,4,0.610688199987635,-38.0
23,lyy,f,22,r,2,(-172.20000000000002, 2.1088417881317425e-14),25,7,3,yes,x,5,x,0.525247500045225,1,73,test2,4,0.5254171000560746,-38.0
23,lyy,f,22,r,2,(1.0544208940658713e-14, 172.20000000000002),23,-25,14,yes,x,5,x,0.584374799975194,1,74,test2,4,0.5848699000198394,-70.0
23,lyy,f,22,r,2,(1.0544208940658713e-14, 172.20000000000002),23,5,2,yes,x,5,x,0.7867894999217242,1,75,test2,4,0.7871155999600887,-40.0
23,lyy,f,22,r,2,(-3.163262682197613e-14, -172.20000000000002),27,3,1,yes,x,5,x,0.812558599980548,1,76,test2,4,0.8126618000678718,-42.0
23,lyy,f,22,r,2,(-172.20000000000002, 2.1088417881317425e-14),25,-5,12,no,m,6,m,0.6995495000155643,1,77,test2,4,0.6998994000023231,-42.0
23,lyy,f,22,r,2,(1.0544208940658713e-14, 172.20000000000002),23,7,3,yes,x,5,x,0.5647414000704885,1,78,test2,4,0.5651792000280693,-38.0
