subj_id,subj_name,subj_gender ,subj_age,subj_handedness,subj_runNum,tar_l_x,tar_l_y,loc_code,tar_ori,tar_code,tar_pre ,cor_response,pre_code,subj_response,RT,correct,trial_num,type,bloc_num,dur, real_tar
24,cjx,m,19,r,2,(121.76378772032349, 121.76378772032349),22,7,3,no,m,6,m,0.844678399967961,1,1,test1,1,0.8448386000236496,0.0
24,cjx,m,19,r,2,(172.20000000000002, 0.0),21,25,4,yes,x,5,x,0.3815064000664279,1,2,test1,1,0.3816491999896243,-20.0
24,cjx,m,19,r,2,(-121.76378772032348, 121.76378772032349),24,-7,13,yes,x,5,x,0.428263199981302,1,3,test1,1,0.4285367000848055,-52.0
24,cjx,m,19,r,2,(-3.163262682197613e-14, -172.20000000000002),27,-7,13,yes,x,5,x,0.41957929998170584,1,4,test1,1,0.41975270002149045,-52.0
24,cjx,m,19,r,2,(121.76378772032346, -121.76378772032352),28,-5,12,yes,x,5,x,0.5878566999454051,1,5,test1,1,0.5880021998891607,-50.0
24,cjx,m,19,r,2,(-121.76378772032352, -121.76378772032348),26,5,2,yes,x,5,x,0.565491900080815,1,6,test1,1,0.5655895000090823,-40.0
24,cjx,m,19,r,2,(-172.20000000000002, 2.1088417881317425e-14),25,-25,14,yes,x,5,x,0.3474229999119416,1,7,test1,1,0.34756150003522635,-70.0
24,cjx,m,19,r,2,(121.76378772032346, -121.76378772032352),28,7,3,yes,x,5,x,0.4656059999251738,1,8,test1,1,0.46645920001901686,-38.0
24,cjx,m,19,r,2,(1.0544208940658713e-14, 172.20000000000002),23,-7,13,yes,x,5,x,0.34015659999568015,1,9,test1,1,0.3402532000327483,-52.0
24,cjx,m,19,r,2,(1.0544208940658713e-14, 172.20000000000002),23,25,4,yes,x,5,x,0.322624700027518,1,10,test1,1,0.3227682000724599,-20.0
24,cjx,m,19,r,2,(-121.76378772032352, -121.76378772032348),26,-3,11,no,m,6,m,0.7231806999770924,1,11,test1,1,0.7233353999909014,-20.0
24,cjx,m,19,r,2,(-121.76378772032348, 121.76378772032349),24,-3,11,yes,x,5,m,0.6562561000464484,0,12,test1,1,0.6564510999014601,-48.0
24,cjx,m,19,r,2,(-121.76378772032352, -121.76378772032348),26,-5,12,no,m,6,m,0.8385156999574974,1,13,test1,1,0.8386099999770522,-48.0
24,cjx,m,19,r,2,(121.76378772032346, -121.76378772032352),28,-25,14,no,m,6,m,0.7138575999997556,1,14,test1,1,0.714051500079222,-48.0
24,cjx,m,19,r,2,(-121.76378772032352, -121.76378772032348),26,-7,13,yes,x,5,x,0.49245109991170466,1,15,test1,1,0.4925990999909118,-52.0
24,cjx,m,19,r,2,(-121.76378772032348, 121.76378772032349),24,-25,14,yes,x,5,x,0.37032310001086444,1,16,test1,1,0.3704372000647709,-70.0
24,cjx,m,19,r,2,(-121.76378772032348, 121.76378772032349),24,3,1,no,m,6,m,0.8472186999861151,1,17,test1,1,0.8473995999665931,-70.0
24,cjx,m,19,r,2,(172.20000000000002, 0.0),21,5,2,yes,x,5,x,0.789343599928543,1,18,test1,1,0.7895070998929441,-40.0
24,cjx,m,19,r,2,(-121.76378772032348, 121.76378772032349),24,7,3,no,m,6,m,0.6860598999774083,1,19,test1,1,0.6866530999541283,-40.0
24,cjx,m,19,r,2,(121.76378772032349, 121.76378772032349),22,-3,11,yes,x,5,m,0.6422266999725252,0,20,test1,1,0.6423767999513075,-48.0
24,cjx,m,19,r,2,(172.20000000000002, 0.0),21,-3,11,no,m,6,m,0.845191300031729,1,21,test1,1,0.8456144999945536,-48.0
24,cjx,m,19,r,2,(-172.20000000000002, 2.1088417881317425e-14),25,-7,13,no,m,6,m,0.8081970999483019,1,22,test1,1,0.8082841000286862,-48.0
24,cjx,m,19,r,2,(1.0544208940658713e-14, 172.20000000000002),23,-3,11,yes,x,5,x,1.0860422999830917,1,23,test1,1,1.086200900026597,-48.0
24,cjx,m,19,r,2,(121.76378772032346, -121.76378772032352),28,3,1,yes,x,5,x,1.256728999898769,1,24,test1,1,1.2569072999758646,-42.0
24,cjx,m,19,r,2,(-121.76378772032348, 121.76378772032349),24,-3,11,yes,x,5,m,1.1341769999125972,0,25,test1,1,1.1343201000709087,-48.0
24,cjx,m,19,r,2,(121.76378772032346, -121.76378772032352),28,3,1,no,m,6,m,0.8053568999748677,1,26,test1,1,0.8054560000309721,-48.0
24,cjx,m,19,r,2,(-121.76378772032352, -121.76378772032348),26,-3,11,yes,x,5,x,0.8343717999523506,1,27,test1,1,0.834576900000684,-48.0
24,cjx,m,19,r,2,(-3.163262682197613e-14, -172.20000000000002),27,-7,13,yes,x,5,x,0.5095527999801561,1,28,test1,1,0.5098603999940678,-52.0
24,cjx,m,19,r,2,(121.76378772032349, 121.76378772032349),22,7,3,yes,x,5,x,0.45397010003216565,1,29,test1,1,0.4542816000757739,-38.0
24,cjx,m,19,r,2,(121.76378772032349, 121.76378772032349),22,-5,12,no,m,6,m,0.6717040000949055,1,30,test1,1,0.6718390999594703,-38.0
24,cjx,m,19,r,2,(-172.20000000000002, 2.1088417881317425e-14),25,25,4,yes,x,5,x,0.42360249999910593,1,31,test1,1,0.42373360006604344,-20.0
24,cjx,m,19,r,2,(-121.76378772032348, 121.76378772032349),24,-3,11,no,m,6,m,0.6620152000105008,1,32,test1,1,0.6621077999006957,-20.0
24,cjx,m,19,r,2,(-121.76378772032352, -121.76378772032348),26,-7,13,no,m,6,m,0.6883204999612644,1,33,test1,1,0.6885226999875158,-20.0
24,cjx,m,19,r,2,(1.0544208940658713e-14, 172.20000000000002),23,3,1,yes,x,5,x,0.6585387999657542,1,34,test1,1,0.6588640999980271,-42.0
24,cjx,m,19,r,2,(1.0544208940658713e-14, 172.20000000000002),23,3,1,no,m,6,m,0.620809999993071,1,35,test1,1,0.6209532000357285,-42.0
24,cjx,m,19,r,2,(1.0544208940658713e-14, 172.20000000000002),23,5,2,yes,x,5,x,0.5633570000063628,1,36,test1,1,0.563508199993521,-40.0
24,cjx,m,19,r,2,(-3.163262682197613e-14, -172.20000000000002),27,-5,12,yes,x,5,x,0.5169932000571862,1,37,test1,1,0.517900500097312,-50.0
24,cjx,m,19,r,2,(172.20000000000002, 0.0),21,3,1,yes,x,5,m,0.8457670999923721,0,38,test1,1,0.8459958999883384,-42.0
24,cjx,m,19,r,2,(121.76378772032349, 121.76378772032349),22,-25,14,no,m,6,m,0.908413999946788,1,39,test1,1,0.9086073000216857,-42.0
24,cjx,m,19,r,2,(-172.20000000000002, 2.1088417881317425e-14),25,25,4,yes,x,5,x,0.42171799996867776,1,40,test1,1,0.42188019992318004,-20.0
24,cjx,m,19,r,2,(-121.76378772032352, -121.76378772032348),26,-5,12,yes,x,5,x,0.7405301999533549,1,41,test1,1,0.7406194999348372,-50.0
24,cjx,m,19,r,2,(121.76378772032349, 121.76378772032349),22,5,2,yes,x,5,x,0.4778850000584498,1,42,test1,1,0.47809810005128384,-40.0
24,cjx,m,19,r,2,(121.76378772032346, -121.76378772032352),28,3,1,yes,x,5,m,0.9389350999845192,0,43,test1,1,0.9391632999759167,-42.0
24,cjx,m,19,r,2,(-121.76378772032352, -121.76378772032348),26,7,3,yes,x,5,m,0.7817277000285685,0,44,test1,1,0.782063000020571,-38.0
24,cjx,m,19,r,2,(172.20000000000002, 0.0),21,-7,13,no,m,6,m,1.2529115000506863,1,45,test1,1,1.2530389999737963,-38.0
24,cjx,m,19,r,2,(1.0544208940658713e-14, 172.20000000000002),23,-5,12,no,m,6,m,1.1195051000686362,1,46,test1,1,1.1197546999901533,-38.0
24,cjx,m,19,r,2,(-172.20000000000002, 2.1088417881317425e-14),25,-25,14,no,m,6,m,0.9654279999667779,1,47,test1,1,0.9655487999552861,-38.0
24,cjx,m,19,r,2,(-121.76378772032348, 121.76378772032349),24,7,3,yes,x,5,x,0.4415628999704495,1,48,test1,1,0.44203639996703714,-38.0
24,cjx,m,19,r,2,(121.76378772032346, -121.76378772032352),28,-5,12,yes,x,5,x,0.5574108000146225,1,49,test1,1,0.5575512000359595,-50.0
24,cjx,m,19,r,2,(-121.76378772032348, 121.76378772032349),24,5,2,yes,x,5,x,0.48870859993621707,1,50,test1,1,0.4889631000114605,-40.0
24,cjx,m,19,r,2,(-172.20000000000002, 2.1088417881317425e-14),25,-3,11,no,m,6,m,0.8322597000515088,1,51,test1,1,0.8323592999950051,-40.0
24,cjx,m,19,r,2,(172.20000000000002, 0.0),21,7,3,no,m,6,m,1.0793903999729082,1,52,test1,1,1.0796029000775889,-40.0
24,cjx,m,19,r,2,(121.76378772032349, 121.76378772032349),22,-5,12,yes,x,5,x,0.511827600072138,1,53,test1,1,0.5119995001005009,-50.0
24,cjx,m,19,r,2,(-121.76378772032352, -121.76378772032348),26,-5,12,yes,x,5,x,0.4597305000061169,1,54,test1,1,0.4598260000348091,-50.0
24,cjx,m,19,r,2,(121.76378772032349, 121.76378772032349),22,-7,13,yes,x,5,x,0.4081492000259459,1,55,test1,1,0.40828870004042983,-52.0
24,cjx,m,19,r,2,(1.0544208940658713e-14, 172.20000000000002),23,-25,14,yes,x,5,x,0.385454099974595,1,56,test1,1,0.3857220000354573,-70.0
24,cjx,m,19,r,2,(-3.163262682197613e-14, -172.20000000000002),27,7,3,yes,x,5,x,0.33926179993432015,1,57,test1,1,0.3393695999402553,-38.0
24,cjx,m,19,r,2,(-121.76378772032348, 121.76378772032349),24,3,1,yes,x,5,x,0.9802496000193059,1,58,test1,1,0.9804838999407366,-42.0
24,cjx,m,19,r,2,(-121.76378772032352, -121.76378772032348),26,5,2,no,m,6,m,0.891993899946101,1,59,test1,1,0.8920944000128657,-42.0
24,cjx,m,19,r,2,(1.0544208940658713e-14, 172.20000000000002),23,-7,13,yes,x,5,x,0.41529389994684607,1,60,test1,1,0.41552290006075054,-52.0
24,cjx,m,19,r,2,(-172.20000000000002, 2.1088417881317425e-14),25,-7,13,yes,x,5,x,0.5402876000152901,1,61,test1,1,0.5403881999664009,-52.0
24,cjx,m,19,r,2,(-172.20000000000002, 2.1088417881317425e-14),25,5,2,yes,x,5,x,0.49249390000477433,1,62,test1,1,0.49310149997472763,-40.0
24,cjx,m,19,r,2,(1.0544208940658713e-14, 172.20000000000002),23,-5,12,yes,x,5,x,0.45867530000396073,1,63,test1,1,0.4588295000139624,-50.0
24,cjx,m,19,r,2,(-121.76378772032348, 121.76378772032349),24,3,1,yes,x,5,x,0.6745138999540359,1,64,test1,1,0.6747284000739455,-42.0
24,cjx,m,19,r,2,(1.0544208940658713e-14, 172.20000000000002),23,-25,14,no,m,6,m,1.6441327000502497,1,65,test1,1,1.6442709000548348,-42.0
24,cjx,m,19,r,2,(-3.163262682197613e-14, -172.20000000000002),27,3,1,yes,x,5,m,0.7033581000287086,0,66,test1,1,0.7035376999992877,-42.0
24,cjx,m,19,r,2,(1.0544208940658713e-14, 172.20000000000002),23,-3,11,no,m,6,m,0.7130345000186935,1,67,test1,1,0.7132073000539094,-42.0
24,cjx,m,19,r,2,(-3.163262682197613e-14, -172.20000000000002),27,5,2,yes,x,5,x,0.4859473999822512,1,68,test1,1,0.4861717999447137,-40.0
24,cjx,m,19,r,2,(-121.76378772032352, -121.76378772032348),26,-7,13,yes,x,5,x,0.44669260003138334,1,69,test1,1,0.44682190008461475,-52.0
24,cjx,m,19,r,2,(-3.163262682197613e-14, -172.20000000000002),27,25,4,yes,x,5,x,0.38628410000819713,1,70,test1,1,0.3864923999644816,-20.0
24,cjx,m,19,r,2,(172.20000000000002, 0.0),21,3,1,yes,x,5,x,0.7779364000307396,1,71,test1,1,0.778160099987872,-42.0
24,cjx,m,19,r,2,(-121.76378772032348, 121.76378772032349),24,7,3,yes,x,5,x,0.4084476000862196,1,72,test1,1,0.4090305999852717,-38.0
24,cjx,m,19,r,2,(-121.76378772032352, -121.76378772032348),26,-25,14,no,m,6,m,0.8567814999260008,1,73,test1,1,0.8569898999994621,-38.0
24,cjx,m,19,r,2,(121.76378772032346, -121.76378772032352),28,5,2,no,m,6,m,0.6884643000084907,1,74,test1,1,0.6886268999660388,-38.0
24,cjx,m,19,r,2,(121.76378772032346, -121.76378772032352),28,-7,13,no,m,6,m,0.5956232999451458,1,75,test1,1,0.5962073999689892,-38.0
24,cjx,m,19,r,2,(172.20000000000002, 0.0),21,-7,13,yes,x,5,x,0.4647582999896258,1,76,test1,1,0.4650406000437215,-52.0
24,cjx,m,19,r,2,(121.76378772032349, 121.76378772032349),22,25,4,no,m,6,m,0.7224817000096664,1,77,test1,1,0.7226647000061348,-52.0
24,cjx,m,19,r,2,(172.20000000000002, 0.0),21,-25,14,yes,x,5,x,0.45895810006186366,1,78,test1,1,0.4592927999328822,-70.0
24,cjx,m,19,r,2,(-172.20000000000002, 2.1088417881317425e-14),25,5,2,no,m,6,m,0.5527947000227869,1,79,test1,1,0.5529079999541864,-70.0
24,cjx,m,19,r,2,(121.76378772032349, 121.76378772032349),22,5,2,no,m,6,m,0.8037423000205308,1,80,test1,1,0.8038530999328941,-70.0
24,cjx,m,19,r,2,(-121.76378772032348, 121.76378772032349),24,-25,14,no,m,6,m,0.8495588999940082,1,81,test1,1,0.8498600999591872,-70.0
24,cjx,m,19,r,2,(-172.20000000000002, 2.1088417881317425e-14),25,-5,12,yes,x,5,x,0.5057473999913782,1,82,test1,1,0.5059733000816777,-50.0
24,cjx,m,19,r,2,(121.76378772032346, -121.76378772032352),28,25,4,yes,x,5,x,0.4029966000234708,1,83,test1,1,0.4035738999955356,-20.0
24,cjx,m,19,r,2,(-3.163262682197613e-14, -172.20000000000002),27,25,4,yes,x,5,x,0.41328850004356354,1,84,test1,1,0.4134527000132948,-20.0
24,cjx,m,19,r,2,(-172.20000000000002, 2.1088417881317425e-14),25,7,3,yes,x,5,x,0.35820100002456456,1,85,test1,1,0.358348699985072,-38.0
24,cjx,m,19,r,2,(121.76378772032349, 121.76378772032349),22,-25,14,yes,x,5,x,0.3862686000065878,1,86,test1,1,0.3863689999561757,-70.0
24,cjx,m,19,r,2,(121.76378772032349, 121.76378772032349),22,-7,13,yes,x,5,x,0.37899120000656694,1,87,test1,1,0.37922980007715523,-52.0
24,cjx,m,19,r,2,(1.0544208940658713e-14, 172.20000000000002),23,25,4,yes,x,5,x,0.3584374999627471,1,88,test1,1,0.3586396999889985,-20.0
24,cjx,m,19,r,2,(-3.163262682197613e-14, -172.20000000000002),27,3,1,no,m,6,m,0.6034638999262825,1,89,test1,1,0.6044519999995828,-20.0
24,cjx,m,19,r,2,(-121.76378772032352, -121.76378772032348),26,3,1,yes,x,5,x,1.0050126999849454,1,90,test1,1,1.005208900081925,-42.0
24,cjx,m,19,r,2,(172.20000000000002, 0.0),21,-5,12,yes,x,5,x,0.5191813999554142,1,91,test1,1,0.5194636000087485,-50.0
24,cjx,m,19,r,2,(-121.76378772032352, -121.76378772032348),26,7,3,yes,x,5,x,0.4275240000570193,1,92,test1,1,0.4277031000237912,-38.0
24,cjx,m,19,r,2,(-121.76378772032348, 121.76378772032349),24,-5,12,yes,x,5,x,0.6028745999792591,1,93,test1,1,0.6031842000083998,-50.0
24,cjx,m,19,r,2,(-3.163262682197613e-14, -172.20000000000002),27,7,3,yes,x,5,x,0.45930590003263205,1,94,test1,1,0.4596003999467939,-38.0
24,cjx,m,19,r,2,(121.76378772032346, -121.76378772032352),28,-3,11,yes,x,5,m,0.7672456000000238,0,95,test1,1,0.7673947000876069,-48.0
24,cjx,m,19,r,2,(-121.76378772032352, -121.76378772032348),26,25,4,yes,x,5,x,0.41555649996735156,1,96,test1,1,0.41564979997929186,-20.0
24,cjx,m,19,r,2,(1.0544208940658713e-14, 172.20000000000002),23,7,3,yes,x,5,x,0.6013076000381261,1,1,test2,1,0.6016693999990821,-38.0
24,cjx,m,19,r,2,(172.20000000000002, 0.0),21,3,1,no,m,6,m,0.6394912999821827,1,2,test2,1,0.6397909999359399,-38.0
24,cjx,m,19,r,2,(-3.163262682197613e-14, -172.20000000000002),27,-25,14,yes,x,5,x,0.4047629999695346,1,3,test2,1,0.4049828000133857,-70.0
24,cjx,m,19,r,2,(-121.76378772032352, -121.76378772032348),26,3,1,yes,x,5,m,0.7423495999537408,0,4,test2,1,0.7424531999276951,-42.0
24,cjx,m,19,r,2,(-172.20000000000002, 2.1088417881317425e-14),25,-5,12,no,m,6,m,0.8037689999910071,1,5,test2,1,0.8039647999685258,-42.0
24,cjx,m,19,r,2,(-121.76378772032352, -121.76378772032348),26,-3,11,yes,x,5,x,0.6522514999378473,1,6,test2,1,0.6525815000059083,-48.0
24,cjx,m,19,r,2,(172.20000000000002, 0.0),21,7,3,yes,x,5,x,0.47511349990963936,1,7,test2,1,0.4753583000274375,-38.0
24,cjx,m,19,r,2,(121.76378772032346, -121.76378772032352),28,25,4,no,m,6,m,0.6065387999406084,1,8,test2,1,0.6066569000249729,-38.0
24,cjx,m,19,r,2,(-3.163262682197613e-14, -172.20000000000002),27,-5,12,no,m,6,m,0.6973670999286696,1,9,test2,1,0.6974685000022873,-38.0
24,cjx,m,19,r,2,(-172.20000000000002, 2.1088417881317425e-14),25,-7,13,yes,x,5,x,0.7671782000688836,1,10,test2,1,0.7678879000013694,-52.0
24,cjx,m,19,r,2,(121.76378772032349, 121.76378772032349),22,3,1,yes,x,5,x,0.9875541999936104,1,11,test2,1,0.9877950999652967,-42.0
24,cjx,m,19,r,2,(1.0544208940658713e-14, 172.20000000000002),23,5,2,no,m,6,m,1.0084353999700397,1,12,test2,1,1.00880439998582,-42.0
24,cjx,m,19,r,2,(121.76378772032349, 121.76378772032349),22,25,4,yes,x,5,x,0.5416064999299124,1,13,test2,1,0.5418362999334931,-20.0
24,cjx,m,19,r,2,(121.76378772032349, 121.76378772032349),22,25,4,yes,x,5,x,0.3777735000476241,1,14,test2,1,0.37787419999949634,-20.0
24,cjx,m,19,r,2,(121.76378772032346, -121.76378772032352),28,5,2,yes,x,5,x,0.5213363000657409,1,15,test2,1,0.5215347000630572,-40.0
24,cjx,m,19,r,2,(121.76378772032349, 121.76378772032349),22,-7,13,no,m,6,m,0.6666913999943063,1,16,test2,1,0.666858300101012,-40.0
24,cjx,m,19,r,2,(-3.163262682197613e-14, -172.20000000000002),27,-7,13,no,m,6,m,0.7928297000471503,1,17,test2,1,0.7930690998909995,-40.0
24,cjx,m,19,r,2,(-121.76378772032348, 121.76378772032349),24,-7,13,no,m,6,m,0.6112716000061482,1,18,test2,1,0.611473000026308,-40.0
24,cjx,m,19,r,2,(121.76378772032346, -121.76378772032352),28,7,3,yes,x,5,x,0.42397510004229844,1,19,test2,1,0.42409670003689826,-38.0
24,cjx,m,19,r,2,(-172.20000000000002, 2.1088417881317425e-14),25,3,1,yes,x,5,x,0.7998534999787807,1,20,test2,1,0.799955099937506,-42.0
24,cjx,m,19,r,2,(-121.76378772032348, 121.76378772032349),24,-7,13,yes,x,5,x,0.45357880007941276,1,21,test2,1,0.45374899997841567,-52.0
24,cjx,m,19,r,2,(1.0544208940658713e-14, 172.20000000000002),23,-3,11,yes,x,5,x,0.5960029999259859,1,22,test2,1,0.596110500046052,-48.0
24,cjx,m,19,r,2,(-121.76378772032348, 121.76378772032349),24,-25,14,yes,x,5,x,0.4488072000676766,1,23,test2,1,0.4489097000332549,-70.0
24,cjx,m,19,r,2,(-172.20000000000002, 2.1088417881317425e-14),25,7,3,yes,x,5,x,0.43535960000008345,1,24,test2,1,0.4357213000766933,-38.0
24,cjx,m,19,r,2,(172.20000000000002, 0.0),21,5,2,no,m,6,m,0.6679058000445366,1,25,test2,1,0.6680084000108764,-38.0
24,cjx,m,19,r,2,(121.76378772032346, -121.76378772032352),28,-25,14,yes,x,5,x,0.38745760009624064,1,26,test2,1,0.3875654999865219,-70.0
24,cjx,m,19,r,2,(-3.163262682197613e-14, -172.20000000000002),27,5,2,no,m,6,m,0.6837224001064897,1,27,test2,1,0.6842360999435186,-70.0
24,cjx,m,19,r,2,(-172.20000000000002, 2.1088417881317425e-14),25,7,3,no,m,6,m,0.5940120999002829,1,28,test2,1,0.5945036999182776,-70.0
24,cjx,m,19,r,2,(-3.163262682197613e-14, -172.20000000000002),27,-5,12,yes,x,5,x,0.5139173000352457,1,29,test2,1,0.5144538000458851,-50.0
24,cjx,m,19,r,2,(-172.20000000000002, 2.1088417881317425e-14),25,3,1,yes,x,5,x,0.9511664999881759,1,30,test2,1,0.9517294999677688,-42.0
24,cjx,m,19,r,2,(-121.76378772032352, -121.76378772032348),26,25,4,no,m,6,m,0.5664820000529289,1,31,test2,1,0.5666167000308633,-42.0
24,cjx,m,19,r,2,(121.76378772032346, -121.76378772032352),28,-3,11,no,m,6,m,0.8578959000296891,1,32,test2,1,0.8579972999868914,-42.0
24,cjx,m,19,r,2,(172.20000000000002, 0.0),21,-25,14,no,m,6,m,0.6320341000100598,1,33,test2,1,0.6321815999690443,-42.0
24,cjx,m,19,r,2,(-121.76378772032352, -121.76378772032348),26,5,2,yes,x,5,x,0.4151611999841407,1,34,test2,1,0.4155689000617713,-40.0
24,cjx,m,19,r,2,(172.20000000000002, 0.0),21,-5,12,no,m,6,m,0.790374799980782,1,35,test2,1,0.7908436999423429,-40.0
24,cjx,m,19,r,2,(-172.20000000000002, 2.1088417881317425e-14),25,3,1,no,m,6,m,0.661516199936159,1,36,test2,1,0.6619926999555901,-40.0
24,cjx,m,19,r,2,(1.0544208940658713e-14, 172.20000000000002),23,3,1,yes,x,5,x,0.5069212999660522,1,37,test2,1,0.5072228000499308,-42.0
24,cjx,m,19,r,2,(172.20000000000002, 0.0),21,7,3,yes,x,5,x,0.44394210004247725,1,38,test2,1,0.4440824000630528,-38.0
24,cjx,m,19,r,2,(121.76378772032349, 121.76378772032349),22,3,1,no,m,6,m,0.8905045000137761,1,39,test2,1,0.8908299999311566,-38.0
24,cjx,m,19,r,2,(121.76378772032349, 121.76378772032349),22,-3,11,yes,x,5,x,0.8693468999117613,1,40,test2,1,0.8695688999723643,-48.0
24,cjx,m,19,r,2,(121.76378772032346, -121.76378772032352),28,-3,11,yes,x,5,x,1.1936127999797463,1,41,test2,1,1.1939565999200568,-48.0
24,cjx,m,19,r,2,(-3.163262682197613e-14, -172.20000000000002),27,-25,14,no,m,6,m,0.7084594999905676,1,42,test2,1,0.7088246999774128,-48.0
24,cjx,m,19,r,2,(1.0544208940658713e-14, 172.20000000000002),23,-7,13,no,m,6,m,1.013791700010188,1,43,test2,1,1.0139051000587642,-48.0
24,cjx,m,19,r,2,(121.76378772032349, 121.76378772032349),22,-3,11,no,m,6,m,0.5612290999852121,1,44,test2,1,0.561522200005129,-48.0
24,cjx,m,19,r,2,(121.76378772032346, -121.76378772032352),28,-7,13,yes,x,5,x,0.4401635999092832,1,45,test2,1,0.4402939999708906,-52.0
24,cjx,m,19,r,2,(-3.163262682197613e-14, -172.20000000000002),27,5,2,yes,x,5,x,0.6123637999407947,1,46,test2,1,0.6129608999472111,-40.0
24,cjx,m,19,r,2,(1.0544208940658713e-14, 172.20000000000002),23,-5,12,yes,x,5,x,0.45942620001733303,1,47,test2,1,0.45952829997986555,-50.0
24,cjx,m,19,r,2,(-172.20000000000002, 2.1088417881317425e-14),25,5,2,yes,x,5,x,0.45423559995833784,1,48,test2,1,0.4545371999265626,-40.0
24,cjx,m,19,r,2,(-172.20000000000002, 2.1088417881317425e-14),25,-5,12,yes,x,5,x,0.6110042000655085,1,49,test2,1,0.6112948999507353,-50.0
24,cjx,m,19,r,2,(121.76378772032346, -121.76378772032352),28,-7,13,yes,x,5,x,0.5643735999474302,1,50,test2,1,0.5646093999966979,-52.0
24,cjx,m,19,r,2,(121.76378772032349, 121.76378772032349),22,3,1,yes,x,5,x,1.3529702000087127,1,51,test2,1,1.3531928999582306,-42.0
24,cjx,m,19,r,2,(-121.76378772032352, -121.76378772032348),26,3,1,no,m,6,m,0.7344943999778479,1,52,test2,1,0.734710399992764,-42.0
24,cjx,m,19,r,2,(-3.163262682197613e-14, -172.20000000000002),27,-3,11,no,m,6,m,0.5534458999754861,1,53,test2,1,0.553825999959372,-42.0
24,cjx,m,19,r,2,(121.76378772032346, -121.76378772032352),28,25,4,yes,x,5,x,0.40301030001137406,1,54,test2,1,0.4036596000660211,-20.0
24,cjx,m,19,r,2,(121.76378772032346, -121.76378772032352),28,-5,12,no,m,6,m,0.6580465000588447,1,55,test2,1,0.6581500000320375,-20.0
24,cjx,m,19,r,2,(1.0544208940658713e-14, 172.20000000000002),23,5,2,yes,x,5,x,0.5436840000329539,1,56,test2,1,0.5437901000259444,-40.0
24,cjx,m,19,r,2,(-172.20000000000002, 2.1088417881317425e-14),25,25,4,no,m,6,m,1.1146230000304058,1,57,test2,1,1.1147346999496222,-40.0
24,cjx,m,19,r,2,(-3.163262682197613e-14, -172.20000000000002),27,-3,11,yes,x,5,x,0.6253212000010535,1,58,test2,1,0.6254600000102073,-48.0
24,cjx,m,19,r,2,(-3.163262682197613e-14, -172.20000000000002),27,3,1,yes,x,5,x,0.5795986999291927,1,59,test2,1,0.5797024000203237,-42.0
24,cjx,m,19,r,2,(172.20000000000002, 0.0),21,-7,13,yes,x,5,x,0.5027973999967799,1,60,test2,1,0.5034792000660673,-52.0
24,cjx,m,19,r,2,(-121.76378772032352, -121.76378772032348),26,7,3,no,m,6,m,0.612231699982658,1,61,test2,1,0.6123751000268385,-52.0
24,cjx,m,19,r,2,(172.20000000000002, 0.0),21,5,2,yes,x,5,x,0.498753699939698,1,62,test2,1,0.49907539994455874,-40.0
24,cjx,m,19,r,2,(121.76378772032349, 121.76378772032349),22,5,2,yes,x,5,x,0.5689002999570221,1,63,test2,1,0.5693354000104591,-40.0
24,cjx,m,19,r,2,(-3.163262682197613e-14, -172.20000000000002),27,-3,11,yes,x,5,x,0.5453401999548078,1,64,test2,1,0.5455022000242025,-48.0
24,cjx,m,19,r,2,(121.76378772032346, -121.76378772032352),28,7,3,no,m,6,m,0.800728700007312,1,65,test2,1,0.800945800030604,-48.0
24,cjx,m,19,r,2,(121.76378772032349, 121.76378772032349),22,-25,14,yes,x,5,x,0.3914731000550091,1,66,test2,1,0.39177609991747886,-70.0
24,cjx,m,19,r,2,(121.76378772032346, -121.76378772032352),28,-25,14,yes,x,5,x,0.3499647999415174,1,67,test2,1,0.35020650003571063,-70.0
24,cjx,m,19,r,2,(-3.163262682197613e-14, -172.20000000000002),27,7,3,no,m,6,m,0.6961911000544205,1,68,test2,1,0.696449700044468,-70.0
24,cjx,m,19,r,2,(-121.76378772032348, 121.76378772032349),24,25,4,yes,x,5,x,0.3837406999664381,1,69,test2,1,0.3840431999415159,-20.0
24,cjx,m,19,r,2,(-172.20000000000002, 2.1088417881317425e-14),25,-25,14,yes,x,5,x,0.360967299900949,1,70,test2,1,0.3610690999776125,-70.0
24,cjx,m,19,r,2,(121.76378772032349, 121.76378772032349),22,7,3,yes,x,5,x,0.6375200999900699,1,71,test2,1,0.637763199978508,-38.0
24,cjx,m,19,r,2,(172.20000000000002, 0.0),21,-5,12,yes,x,5,x,0.5683275000192225,1,72,test2,1,0.5685947000747547,-50.0
24,cjx,m,19,r,2,(-121.76378772032348, 121.76378772032349),24,5,2,no,m,6,m,0.7513507000403479,1,73,test2,1,0.751582800061442,-50.0
24,cjx,m,19,r,2,(-121.76378772032348, 121.76378772032349),24,-5,12,yes,x,5,x,0.5441924000624567,1,74,test2,1,0.5445619000820443,-50.0
24,cjx,m,19,r,2,(-121.76378772032348, 121.76378772032349),24,25,4,no,m,6,m,0.768560399999842,1,75,test2,1,0.7689799999352545,-50.0
24,cjx,m,19,r,2,(172.20000000000002, 0.0),21,25,4,no,m,6,m,0.5406624999595806,1,76,test2,1,0.5408633999759331,-50.0
24,cjx,m,19,r,2,(1.0544208940658713e-14, 172.20000000000002),23,7,3,no,m,6,m,0.6523802999872714,1,77,test2,1,0.6524898000061512,-50.0
24,cjx,m,19,r,2,(-121.76378772032348, 121.76378772032349),24,-5,12,no,m,6,m,0.5566320000216365,1,78,test2,1,0.5567358999978751,-50.0
24,cjx,m,19,r,2,(-3.163262682197613e-14, -172.20000000000002),27,-25,14,yes,x,5,x,0.41378409997560084,1,79,test2,1,0.413982400088571,-70.0
24,cjx,m,19,r,2,(-3.163262682197613e-14, -172.20000000000002),27,25,4,no,m,6,m,0.5370943000307307,1,80,test2,1,0.5373864000430331,-70.0
24,cjx,m,19,r,2,(172.20000000000002, 0.0),21,25,4,yes,x,5,x,0.404874200001359,1,81,test2,1,0.4055477000074461,-20.0
24,cjx,m,19,r,2,(-121.76378772032348, 121.76378772032349),24,25,4,yes,x,5,x,0.5042489999905229,1,82,test2,1,0.5046440999722108,-20.0
24,cjx,m,19,r,2,(-121.76378772032352, -121.76378772032348),26,-25,14,yes,x,5,x,0.4117034999653697,1,83,test2,1,0.41181419999338686,-70.0
24,cjx,m,19,r,2,(121.76378772032346, -121.76378772032352),28,5,2,yes,x,5,x,0.47512750001624227,1,84,test2,1,0.47527039994020015,-40.0
24,cjx,m,19,r,2,(121.76378772032349, 121.76378772032349),22,-5,12,yes,x,5,x,0.4208900999510661,1,85,test2,1,0.4210806000046432,-50.0
24,cjx,m,19,r,2,(1.0544208940658713e-14, 172.20000000000002),23,7,3,yes,x,5,x,0.3653090000152588,1,86,test2,1,0.3655281000537798,-38.0
24,cjx,m,19,r,2,(-121.76378772032348, 121.76378772032349),24,5,2,yes,x,5,x,0.334959700005129,1,87,test2,1,0.3350815000012517,-40.0
24,cjx,m,19,r,2,(172.20000000000002, 0.0),21,-3,11,yes,x,5,x,0.493569300044328,1,88,test2,1,0.49368450010661036,-48.0
24,cjx,m,19,r,2,(-172.20000000000002, 2.1088417881317425e-14),25,-3,11,yes,x,5,x,0.36965130001772195,1,89,test2,1,0.3703080000123009,-48.0
24,cjx,m,19,r,2,(-121.76378772032352, -121.76378772032348),26,-25,14,yes,x,5,x,0.36562459997367114,1,90,test2,1,0.3658028000500053,-70.0
24,cjx,m,19,r,2,(1.0544208940658713e-14, 172.20000000000002),23,25,4,no,m,6,m,0.6891878000460565,1,91,test2,1,0.6897083000512794,-70.0
24,cjx,m,19,r,2,(1.0544208940658713e-14, 172.20000000000002),23,-25,14,yes,x,5,x,0.37527040007989854,1,92,test2,1,0.3754093999741599,-70.0
24,cjx,m,19,r,2,(-172.20000000000002, 2.1088417881317425e-14),25,-3,11,yes,x,5,x,0.6556032999651507,1,93,test2,1,0.6557290999917313,-48.0
24,cjx,m,19,r,2,(172.20000000000002, 0.0),21,-25,14,yes,x,5,x,0.41361010004766285,1,94,test2,1,0.413713299902156,-70.0
24,cjx,m,19,r,2,(-121.76378772032352, -121.76378772032348),26,25,4,yes,x,5,x,0.3799130000406876,1,95,test2,1,0.3800141999963671,-20.0
24,cjx,m,19,r,2,(172.20000000000002, 0.0),21,-3,11,yes,x,5,x,0.7076570000499487,1,96,test2,1,0.7079924000427127,-48.0
24,cjx,m,19,r,2,(121.76378772032349, 121.76378772032349),22,7,3,no,m,6,m,0.6671283999457955,1,1,test1,2,0.6675669000251219,-48.0
24,cjx,m,19,r,2,(172.20000000000002, 0.0),21,25,4,yes,x,5,x,0.36996089993044734,1,2,test1,2,0.3700787000125274,-20.0
24,cjx,m,19,r,2,(-121.76378772032348, 121.76378772032349),24,-7,13,yes,x,5,x,0.38563080003950745,1,3,test1,2,0.38584380003158003,-52.0
24,cjx,m,19,r,2,(-3.163262682197613e-14, -172.20000000000002),27,-7,13,yes,x,5,x,0.3438610000303015,1,4,test1,2,0.344213500036858,-52.0
24,cjx,m,19,r,2,(121.76378772032346, -121.76378772032352),28,-5,12,yes,x,5,x,0.5548516999697313,1,5,test1,2,0.5554348999867216,-50.0
24,cjx,m,19,r,2,(-121.76378772032352, -121.76378772032348),26,5,2,yes,x,5,x,0.5456066000042483,1,6,test1,2,0.5457109999842942,-40.0
24,cjx,m,19,r,2,(-172.20000000000002, 2.1088417881317425e-14),25,-25,14,yes,x,5,x,0.3522649999940768,1,7,test1,2,0.35250539996195585,-70.0
24,cjx,m,19,r,2,(121.76378772032346, -121.76378772032352),28,7,3,yes,x,5,x,0.4302166999550536,1,8,test1,2,0.43075050006154925,-38.0
24,cjx,m,19,r,2,(1.0544208940658713e-14, 172.20000000000002),23,-7,13,yes,x,5,x,0.3717486000386998,1,9,test1,2,0.3720962000079453,-52.0
24,cjx,m,19,r,2,(1.0544208940658713e-14, 172.20000000000002),23,25,4,yes,x,5,x,0.32756000000517815,1,10,test1,2,0.3276639999821782,-20.0
24,cjx,m,19,r,2,(-121.76378772032352, -121.76378772032348),26,-3,11,no,m,6,m,0.5767312999814749,1,11,test1,2,0.5768756000325084,-20.0
24,cjx,m,19,r,2,(-121.76378772032348, 121.76378772032349),24,-3,11,yes,x,5,x,0.5618539999704808,1,12,test1,2,0.5620773000409827,-48.0
24,cjx,m,19,r,2,(-121.76378772032352, -121.76378772032348),26,-5,12,no,m,6,m,0.640520800021477,1,13,test1,2,0.640646499930881,-48.0
24,cjx,m,19,r,2,(121.76378772032346, -121.76378772032352),28,-25,14,no,m,6,m,0.7425533999921754,1,14,test1,2,0.7427035999717191,-48.0
24,cjx,m,19,r,2,(-121.76378772032352, -121.76378772032348),26,-7,13,yes,x,5,x,0.41102200001478195,1,15,test1,2,0.41112850001081824,-52.0
24,cjx,m,19,r,2,(-121.76378772032348, 121.76378772032349),24,-25,14,yes,x,5,x,0.9221519000129774,1,16,test1,2,0.9222565999953076,-70.0
24,cjx,m,19,r,2,(-121.76378772032348, 121.76378772032349),24,3,1,no,m,6,m,0.5962341000558808,1,17,test1,2,0.5964761999202892,-70.0
24,cjx,m,19,r,2,(172.20000000000002, 0.0),21,5,2,yes,x,5,x,0.7078809000086039,1,18,test1,2,0.7080138999735937,-40.0
24,cjx,m,19,r,2,(-121.76378772032348, 121.76378772032349),24,7,3,no,m,6,m,0.6124333000043407,1,19,test1,2,0.6128633000189438,-40.0
24,cjx,m,19,r,2,(121.76378772032349, 121.76378772032349),22,-3,11,yes,x,5,x,0.6604748000390828,1,20,test1,2,0.6609640000388026,-48.0
24,cjx,m,19,r,2,(172.20000000000002, 0.0),21,-3,11,no,m,6,m,0.7007115000160411,1,21,test1,2,0.7008150999899954,-48.0
24,cjx,m,19,r,2,(-172.20000000000002, 2.1088417881317425e-14),25,-7,13,no,m,6,m,0.5539768000598997,1,22,test1,2,0.5542219000635669,-48.0
24,cjx,m,19,r,2,(1.0544208940658713e-14, 172.20000000000002),23,-3,11,yes,x,5,x,0.615061099990271,1,23,test1,2,0.6151647999649867,-48.0
24,cjx,m,19,r,2,(121.76378772032346, -121.76378772032352),28,3,1,yes,x,5,x,0.7190062999725342,1,24,test1,2,0.7191354000242427,-42.0
24,cjx,m,19,r,2,(-121.76378772032348, 121.76378772032349),24,-3,11,yes,x,5,x,0.5139632999198511,1,25,test1,2,0.5141674999613315,-48.0
24,cjx,m,19,r,2,(121.76378772032346, -121.76378772032352),28,3,1,no,m,6,m,0.5612497000256553,1,26,test1,2,0.5618187999352813,-48.0
24,cjx,m,19,r,2,(-121.76378772032352, -121.76378772032348),26,-3,11,yes,x,5,x,0.5214517000131309,1,27,test1,2,0.521577600040473,-48.0
24,cjx,m,19,r,2,(-3.163262682197613e-14, -172.20000000000002),27,-7,13,yes,x,5,x,0.4483355999691412,1,28,test1,2,0.4484503000276163,-52.0
24,cjx,m,19,r,2,(121.76378772032349, 121.76378772032349),22,7,3,yes,x,5,x,0.43028750002849847,1,29,test1,2,0.43051519989967346,-38.0
24,cjx,m,19,r,2,(121.76378772032349, 121.76378772032349),22,-5,12,no,m,6,m,0.7331027999753132,1,30,test1,2,0.7336472000461072,-38.0
24,cjx,m,19,r,2,(-172.20000000000002, 2.1088417881317425e-14),25,25,4,yes,x,5,x,0.3755018999800086,1,31,test1,2,0.37595289992168546,-20.0
24,cjx,m,19,r,2,(-121.76378772032348, 121.76378772032349),24,-3,11,no,m,6,m,0.5780099999392405,1,32,test1,2,0.5785041999770328,-20.0
24,cjx,m,19,r,2,(-121.76378772032352, -121.76378772032348),26,-7,13,no,m,6,m,0.5289640000555664,1,33,test1,2,0.5290724000660703,-20.0
24,cjx,m,19,r,2,(1.0544208940658713e-14, 172.20000000000002),23,3,1,yes,x,5,x,0.41955590003635734,1,34,test1,2,0.419666999951005,-42.0
24,cjx,m,19,r,2,(1.0544208940658713e-14, 172.20000000000002),23,3,1,no,m,6,m,0.6015134999761358,1,35,test1,2,0.6016819999786094,-42.0
24,cjx,m,19,r,2,(1.0544208940658713e-14, 172.20000000000002),23,5,2,yes,x,5,x,0.4151569000678137,1,36,test1,2,0.4155236999504268,-40.0
24,cjx,m,19,r,2,(-3.163262682197613e-14, -172.20000000000002),27,-5,12,yes,x,5,x,0.44798589998390526,1,37,test1,2,0.44837640004698187,-50.0
24,cjx,m,19,r,2,(172.20000000000002, 0.0),21,3,1,yes,x,5,x,0.7504054000601172,1,38,test1,2,0.7507979000220075,-42.0
24,cjx,m,19,r,2,(121.76378772032349, 121.76378772032349),22,-25,14,no,m,6,m,0.5699551999568939,1,39,test1,2,0.5704047000035644,-42.0
24,cjx,m,19,r,2,(-172.20000000000002, 2.1088417881317425e-14),25,25,4,yes,x,5,x,0.3906365999719128,1,40,test1,2,0.39079750003293157,-20.0
24,cjx,m,19,r,2,(-121.76378772032352, -121.76378772032348),26,-5,12,yes,x,5,x,0.5023703000042588,1,41,test1,2,0.5025056999875233,-50.0
24,cjx,m,19,r,2,(121.76378772032349, 121.76378772032349),22,5,2,yes,x,5,x,0.6940101000946015,1,42,test1,2,0.694981399923563,-40.0
24,cjx,m,19,r,2,(121.76378772032346, -121.76378772032352),28,3,1,yes,x,5,x,0.5949575999984518,1,43,test1,2,0.5952003999846056,-42.0
24,cjx,m,19,r,2,(-121.76378772032352, -121.76378772032348),26,7,3,yes,x,5,x,0.3941520999651402,1,44,test1,2,0.3948082000715658,-38.0
24,cjx,m,19,r,2,(172.20000000000002, 0.0),21,-7,13,no,m,6,m,0.8557408000342548,1,45,test1,2,0.8558613000204787,-38.0
24,cjx,m,19,r,2,(1.0544208940658713e-14, 172.20000000000002),23,-5,12,no,m,6,m,0.6217285000020638,1,46,test1,2,0.6218586000613868,-38.0
24,cjx,m,19,r,2,(-172.20000000000002, 2.1088417881317425e-14),25,-25,14,no,m,6,m,0.6282123998971656,1,47,test1,2,0.62860619998537,-38.0
24,cjx,m,19,r,2,(-121.76378772032348, 121.76378772032349),24,7,3,yes,x,5,x,0.4234605000820011,1,48,test1,2,0.4240258999634534,-38.0
24,cjx,m,19,r,2,(121.76378772032346, -121.76378772032352),28,-5,12,yes,x,5,x,0.6140630999580026,1,49,test1,2,0.6146711999317631,-50.0
24,cjx,m,19,r,2,(-121.76378772032348, 121.76378772032349),24,5,2,yes,x,5,x,0.43177140003535897,1,50,test1,2,0.43186879996210337,-40.0
24,cjx,m,19,r,2,(-172.20000000000002, 2.1088417881317425e-14),25,-3,11,no,m,6,m,0.6459481000201777,1,51,test1,2,0.6461123999906704,-40.0
24,cjx,m,19,r,2,(172.20000000000002, 0.0),21,7,3,no,m,6,m,0.894320199964568,1,52,test1,2,0.8944901999784634,-40.0
24,cjx,m,19,r,2,(121.76378772032349, 121.76378772032349),22,-5,12,yes,x,5,x,0.4655754999257624,1,53,test1,2,0.4657273000339046,-50.0
24,cjx,m,19,r,2,(-121.76378772032352, -121.76378772032348),26,-5,12,yes,x,5,x,0.7911431998945773,1,54,test1,2,0.791254400042817,-50.0
24,cjx,m,19,r,2,(121.76378772032349, 121.76378772032349),22,-7,13,yes,x,5,x,0.4291001999517903,1,55,test1,2,0.42949590005446225,-52.0
24,cjx,m,19,r,2,(1.0544208940658713e-14, 172.20000000000002),23,-25,14,yes,x,5,x,0.5129301999695599,1,56,test1,2,0.513529899995774,-70.0
24,cjx,m,19,r,2,(-3.163262682197613e-14, -172.20000000000002),27,7,3,yes,x,5,x,0.40075819997582585,1,57,test1,2,0.40097119996789843,-38.0
24,cjx,m,19,r,2,(-121.76378772032348, 121.76378772032349),24,3,1,yes,x,5,x,0.4598903999431059,1,58,test1,2,0.4601010999176651,-42.0
24,cjx,m,19,r,2,(-121.76378772032352, -121.76378772032348),26,5,2,no,m,6,m,0.7726523000746965,1,59,test1,2,0.7729892000788823,-42.0
24,cjx,m,19,r,2,(1.0544208940658713e-14, 172.20000000000002),23,-7,13,yes,x,5,x,0.4255065000616014,1,60,test1,2,0.42578240006696433,-52.0
24,cjx,m,19,r,2,(-172.20000000000002, 2.1088417881317425e-14),25,-7,13,yes,x,5,x,0.35129709995817393,1,61,test1,2,0.3518743000458926,-52.0
24,cjx,m,19,r,2,(-172.20000000000002, 2.1088417881317425e-14),25,5,2,yes,x,5,x,0.34701430005952716,1,62,test1,2,0.347243299940601,-40.0
24,cjx,m,19,r,2,(1.0544208940658713e-14, 172.20000000000002),23,-5,12,yes,x,5,x,0.39646139997057617,1,63,test1,2,0.3965877000009641,-50.0
24,cjx,m,19,r,2,(-121.76378772032348, 121.76378772032349),24,3,1,yes,x,5,x,0.35440190008375794,1,64,test1,2,0.3546750999521464,-42.0
24,cjx,m,19,r,2,(1.0544208940658713e-14, 172.20000000000002),23,-25,14,no,m,6,m,0.7146032999735326,1,65,test1,2,0.7151298999087885,-42.0
24,cjx,m,19,r,2,(-3.163262682197613e-14, -172.20000000000002),27,3,1,yes,x,5,x,0.6038195000728592,1,66,test1,2,0.6040124000282958,-42.0
24,cjx,m,19,r,2,(1.0544208940658713e-14, 172.20000000000002),23,-3,11,no,m,6,m,0.9887664000270888,1,67,test1,2,0.9890051999827847,-42.0
24,cjx,m,19,r,2,(-3.163262682197613e-14, -172.20000000000002),27,5,2,yes,x,5,x,0.47624280001036823,1,68,test1,2,0.47681669995654374,-40.0
24,cjx,m,19,r,2,(-121.76378772032352, -121.76378772032348),26,-7,13,yes,x,5,x,0.684798099915497,1,69,test1,2,0.6850130000384524,-52.0
24,cjx,m,19,r,2,(-3.163262682197613e-14, -172.20000000000002),27,25,4,yes,x,5,x,0.48162209999281913,1,70,test1,2,0.4819149000104517,-20.0
24,cjx,m,19,r,2,(172.20000000000002, 0.0),21,3,1,yes,x,5,x,1.0093687999760732,1,71,test1,2,1.0097094000084326,-42.0
24,cjx,m,19,r,2,(-121.76378772032348, 121.76378772032349),24,7,3,yes,x,5,x,0.39028279995545745,1,72,test1,2,0.3903916999697685,-38.0
24,cjx,m,19,r,2,(-121.76378772032352, -121.76378772032348),26,-25,14,no,m,6,m,0.6448088999604806,1,73,test1,2,0.6449132999405265,-38.0
24,cjx,m,19,r,2,(121.76378772032346, -121.76378772032352),28,5,2,no,m,6,m,0.6022868000436574,1,74,test1,2,0.6025104000000283,-38.0
24,cjx,m,19,r,2,(121.76378772032346, -121.76378772032352),28,-7,13,no,m,6,m,0.4959395999321714,1,75,test1,2,0.49611079995520413,-38.0
24,cjx,m,19,r,2,(172.20000000000002, 0.0),21,-7,13,yes,x,5,x,0.4338359000394121,1,76,test1,2,0.43405840010382235,-52.0
24,cjx,m,19,r,2,(121.76378772032349, 121.76378772032349),22,25,4,no,m,6,m,0.594083399977535,1,77,test1,2,0.5942254000110552,-52.0
24,cjx,m,19,r,2,(172.20000000000002, 0.0),21,-25,14,yes,x,5,x,0.40881689998786896,1,78,test1,2,0.40912609989754856,-70.0
24,cjx,m,19,r,2,(-172.20000000000002, 2.1088417881317425e-14),25,5,2,no,m,6,m,0.5566475000232458,1,79,test1,2,0.5570145000237972,-70.0
24,cjx,m,19,r,2,(121.76378772032349, 121.76378772032349),22,5,2,no,m,6,m,0.5302755000302568,1,80,test1,2,0.5305310999974608,-70.0
24,cjx,m,19,r,2,(-121.76378772032348, 121.76378772032349),24,-25,14,no,m,6,m,0.793727400014177,1,81,test1,2,0.7940477000083774,-70.0
24,cjx,m,19,r,2,(-172.20000000000002, 2.1088417881317425e-14),25,-5,12,yes,x,5,x,0.5591210999991745,1,82,test1,2,0.5594205999514088,-50.0
24,cjx,m,19,r,2,(121.76378772032346, -121.76378772032352),28,25,4,yes,x,5,x,0.3409656999865547,1,83,test1,2,0.3413477001013234,-20.0
24,cjx,m,19,r,2,(-3.163262682197613e-14, -172.20000000000002),27,25,4,yes,x,5,x,0.34182939992751926,1,84,test1,2,0.3421161000151187,-20.0
24,cjx,m,19,r,2,(-172.20000000000002, 2.1088417881317425e-14),25,7,3,yes,x,5,x,0.4210728000616655,1,85,test1,2,0.42123479989822954,-38.0
24,cjx,m,19,r,2,(121.76378772032349, 121.76378772032349),22,-25,14,yes,x,5,x,0.4096750000026077,1,86,test1,2,0.40984890004619956,-70.0
24,cjx,m,19,r,2,(121.76378772032349, 121.76378772032349),22,-7,13,yes,x,5,x,0.3280707999365404,1,87,test1,2,0.32829139998648316,-52.0
24,cjx,m,19,r,2,(1.0544208940658713e-14, 172.20000000000002),23,25,4,yes,x,5,x,0.2953581999754533,1,88,test1,2,0.295627300045453,-20.0
24,cjx,m,19,r,2,(-3.163262682197613e-14, -172.20000000000002),27,3,1,no,m,6,m,0.8765637000324205,1,89,test1,2,0.8766964999958873,-20.0
24,cjx,m,19,r,2,(-121.76378772032352, -121.76378772032348),26,3,1,yes,x,5,m,0.494075300055556,0,90,test1,2,0.4947900000261143,-42.0
24,cjx,m,19,r,2,(172.20000000000002, 0.0),21,-5,12,yes,x,5,x,0.4364374000579119,1,91,test1,2,0.4366484999191016,-50.0
24,cjx,m,19,r,2,(-121.76378772032352, -121.76378772032348),26,7,3,yes,x,5,x,0.3952647000551224,1,92,test1,2,0.3954755000304431,-38.0
24,cjx,m,19,r,2,(-121.76378772032348, 121.76378772032349),24,-5,12,yes,x,5,x,0.5365352000808343,1,93,test1,2,0.5368355000391603,-50.0
24,cjx,m,19,r,2,(-3.163262682197613e-14, -172.20000000000002),27,7,3,yes,x,5,x,0.41604639997240156,1,94,test1,2,0.41630539996549487,-38.0
24,cjx,m,19,r,2,(121.76378772032346, -121.76378772032352),28,-3,11,yes,x,5,m,0.5831267000176013,0,95,test1,2,0.5836625000229105,-48.0
24,cjx,m,19,r,2,(-121.76378772032352, -121.76378772032348),26,25,4,yes,x,5,x,0.32682349998503923,1,96,test1,2,0.3270399000030011,-20.0
24,cjx,m,19,r,2,(1.0544208940658713e-14, 172.20000000000002),23,7,3,yes,x,5,x,1.01342529989779,1,1,test2,2,1.0136265999171883,-38.0
24,cjx,m,19,r,2,(172.20000000000002, 0.0),21,3,1,no,m,6,m,0.5966728000203148,1,2,test2,2,0.5972113000461832,-38.0
24,cjx,m,19,r,2,(-3.163262682197613e-14, -172.20000000000002),27,-25,14,yes,x,5,x,0.3916235000360757,1,3,test2,2,0.3922784000169486,-70.0
24,cjx,m,19,r,2,(-121.76378772032352, -121.76378772032348),26,3,1,yes,x,5,m,0.5299237000290304,0,4,test2,2,0.5301376999123022,-42.0
24,cjx,m,19,r,2,(-172.20000000000002, 2.1088417881317425e-14),25,-5,12,no,m,6,m,0.5775761000113562,1,5,test2,2,0.5778127000667155,-42.0
24,cjx,m,19,r,2,(-121.76378772032352, -121.76378772032348),26,-3,11,yes,x,5,x,0.6142285000532866,1,6,test2,2,0.6146396000403911,-48.0
24,cjx,m,19,r,2,(172.20000000000002, 0.0),21,7,3,yes,x,5,x,0.5913893999531865,1,7,test2,2,0.5915042000124231,-38.0
24,cjx,m,19,r,2,(121.76378772032346, -121.76378772032352),28,25,4,no,m,6,m,0.611338600050658,1,8,test2,2,0.611572900088504,-38.0
24,cjx,m,19,r,2,(-3.163262682197613e-14, -172.20000000000002),27,-5,12,no,m,6,m,0.6425018000882119,1,9,test2,2,0.6429931999882683,-38.0
24,cjx,m,19,r,2,(-172.20000000000002, 2.1088417881317425e-14),25,-7,13,yes,x,5,x,0.5992566000204533,1,10,test2,2,0.5993783000158146,-52.0
24,cjx,m,19,r,2,(121.76378772032349, 121.76378772032349),22,3,1,yes,x,5,m,0.6191667000530288,0,11,test2,2,0.6192981000058353,-42.0
24,cjx,m,19,r,2,(1.0544208940658713e-14, 172.20000000000002),23,5,2,no,m,6,m,0.9714180999435484,1,12,test2,2,0.9716347999637946,-42.0
24,cjx,m,19,r,2,(121.76378772032349, 121.76378772032349),22,25,4,yes,x,5,x,0.4015566000016406,1,13,test2,2,0.40174000000115484,-20.0
24,cjx,m,19,r,2,(121.76378772032349, 121.76378772032349),22,25,4,yes,x,5,x,0.43907590000890195,1,14,test2,2,0.43918039998970926,-20.0
24,cjx,m,19,r,2,(121.76378772032346, -121.76378772032352),28,5,2,yes,x,5,x,0.6285261999582872,1,15,test2,2,0.6288340999744833,-40.0
24,cjx,m,19,r,2,(121.76378772032349, 121.76378772032349),22,-7,13,no,m,6,m,1.0647690000478178,1,16,test2,2,1.0650008000666276,-40.0
24,cjx,m,19,r,2,(-3.163262682197613e-14, -172.20000000000002),27,-7,13,no,m,6,m,0.7099739999976009,1,17,test2,2,0.710242599947378,-40.0
24,cjx,m,19,r,2,(-121.76378772032348, 121.76378772032349),24,-7,13,no,m,6,m,1.180613600066863,1,18,test2,2,1.1807200000621378,-40.0
24,cjx,m,19,r,2,(121.76378772032346, -121.76378772032352),28,7,3,yes,x,5,x,0.522802299936302,1,19,test2,2,0.5230952999554574,-38.0
24,cjx,m,19,r,2,(-172.20000000000002, 2.1088417881317425e-14),25,3,1,yes,x,5,x,0.6627522999187931,1,20,test2,2,0.6629356999183074,-42.0
24,cjx,m,19,r,2,(-121.76378772032348, 121.76378772032349),24,-7,13,yes,x,5,x,0.4544080999912694,1,21,test2,2,0.4546845000004396,-52.0
24,cjx,m,19,r,2,(1.0544208940658713e-14, 172.20000000000002),23,-3,11,yes,x,5,x,0.5219543999992311,1,22,test2,2,0.5223449000623077,-48.0
24,cjx,m,19,r,2,(-121.76378772032348, 121.76378772032349),24,-25,14,yes,x,5,x,0.3291309999767691,1,23,test2,2,0.329746300005354,-70.0
24,cjx,m,19,r,2,(-172.20000000000002, 2.1088417881317425e-14),25,7,3,yes,x,5,x,0.48517599992919713,1,24,test2,2,0.4853021999588236,-38.0
24,cjx,m,19,r,2,(172.20000000000002, 0.0),21,5,2,no,m,6,m,0.7456535999663174,1,25,test2,2,0.7461126999696717,-38.0
24,cjx,m,19,r,2,(121.76378772032346, -121.76378772032352),28,-25,14,yes,x,5,x,0.38860679999925196,1,26,test2,2,0.3888980000047013,-70.0
24,cjx,m,19,r,2,(-3.163262682197613e-14, -172.20000000000002),27,5,2,no,m,6,m,0.5760336000239477,1,27,test2,2,0.5762429999886081,-70.0
24,cjx,m,19,r,2,(-172.20000000000002, 2.1088417881317425e-14),25,7,3,no,m,6,m,0.5896390000125393,1,28,test2,2,0.5898492999840528,-70.0
24,cjx,m,19,r,2,(-3.163262682197613e-14, -172.20000000000002),27,-5,12,yes,x,5,x,0.48949910001829267,1,29,test2,2,0.48968180001247674,-50.0
24,cjx,m,19,r,2,(-172.20000000000002, 2.1088417881317425e-14),25,3,1,yes,x,5,x,0.4727988999802619,1,30,test2,2,0.4729817999759689,-42.0
24,cjx,m,19,r,2,(-121.76378772032352, -121.76378772032348),26,25,4,no,m,6,m,0.6760580000700429,1,31,test2,2,0.67616629996337,-42.0
24,cjx,m,19,r,2,(121.76378772032346, -121.76378772032352),28,-3,11,no,m,6,m,0.6615131000289693,1,32,test2,2,0.6616197000257671,-42.0
24,cjx,m,19,r,2,(172.20000000000002, 0.0),21,-25,14,no,m,6,m,0.6727544999448583,1,33,test2,2,0.6730509999906644,-42.0
24,cjx,m,19,r,2,(-121.76378772032352, -121.76378772032348),26,5,2,yes,x,5,x,0.4904065999435261,1,34,test2,2,0.4906745000043884,-40.0
24,cjx,m,19,r,2,(172.20000000000002, 0.0),21,-5,12,no,m,6,m,0.5968782999552786,1,35,test2,2,0.5969818999292329,-40.0
24,cjx,m,19,r,2,(-172.20000000000002, 2.1088417881317425e-14),25,3,1,no,m,6,m,0.631310599972494,1,36,test2,2,0.6314489999786019,-40.0
24,cjx,m,19,r,2,(1.0544208940658713e-14, 172.20000000000002),23,3,1,yes,x,5,x,0.6075269000139087,1,37,test2,2,0.6076278000837192,-42.0
24,cjx,m,19,r,2,(172.20000000000002, 0.0),21,7,3,yes,x,5,x,0.47733869997318834,1,38,test2,2,0.47766980004962534,-38.0
24,cjx,m,19,r,2,(121.76378772032349, 121.76378772032349),22,3,1,no,m,6,m,0.5580336001003161,1,39,test2,2,0.5582164999796078,-38.0
24,cjx,m,19,r,2,(121.76378772032349, 121.76378772032349),22,-3,11,yes,x,5,x,0.5958534999517724,1,40,test2,2,0.5962850999785587,-48.0
24,cjx,m,19,r,2,(121.76378772032346, -121.76378772032352),28,-3,11,yes,x,5,x,0.8998581999912858,1,41,test2,2,0.900306300027296,-48.0
24,cjx,m,19,r,2,(-3.163262682197613e-14, -172.20000000000002),27,-25,14,no,m,6,m,0.6518751999828964,1,42,test2,2,0.6519819999812171,-48.0
24,cjx,m,19,r,2,(1.0544208940658713e-14, 172.20000000000002),23,-7,13,no,m,6,m,0.6222596999723464,1,43,test2,2,0.6224879999645054,-48.0
24,cjx,m,19,r,2,(121.76378772032349, 121.76378772032349),22,-3,11,no,m,6,m,0.6116924000671133,1,44,test2,2,0.6119417999871075,-48.0
24,cjx,m,19,r,2,(121.76378772032346, -121.76378772032352),28,-7,13,yes,x,5,x,0.4618864000076428,1,45,test2,2,0.46198979998007417,-52.0
24,cjx,m,19,r,2,(-3.163262682197613e-14, -172.20000000000002),27,5,2,yes,x,5,x,0.4409876000136137,1,46,test2,2,0.4413898999337107,-40.0
24,cjx,m,19,r,2,(1.0544208940658713e-14, 172.20000000000002),23,-5,12,yes,x,5,x,0.39161219995003194,1,47,test2,2,0.3920303999911994,-50.0
24,cjx,m,19,r,2,(-172.20000000000002, 2.1088417881317425e-14),25,5,2,yes,x,5,x,0.5139627000316978,1,48,test2,2,0.5141185000538826,-40.0
24,cjx,m,19,r,2,(-172.20000000000002, 2.1088417881317425e-14),25,-5,12,yes,x,5,x,0.38367629994172603,1,49,test2,2,0.3839153000153601,-50.0
24,cjx,m,19,r,2,(121.76378772032346, -121.76378772032352),28,-7,13,yes,x,5,x,0.3909894999815151,1,50,test2,2,0.3911262000910938,-52.0
24,cjx,m,19,r,2,(121.76378772032349, 121.76378772032349),22,3,1,yes,x,5,x,0.5761856000171974,1,51,test2,2,0.5764499000506476,-42.0
24,cjx,m,19,r,2,(-121.76378772032352, -121.76378772032348),26,3,1,no,m,6,m,0.6667428000364453,1,52,test2,2,0.6671315999701619,-42.0
24,cjx,m,19,r,2,(-3.163262682197613e-14, -172.20000000000002),27,-3,11,no,m,6,m,1.0570752999046817,1,53,test2,2,1.0575357000343502,-42.0
24,cjx,m,19,r,2,(121.76378772032346, -121.76378772032352),28,25,4,yes,x,5,x,0.3900162000209093,1,54,test2,2,0.3906800999538973,-20.0
24,cjx,m,19,r,2,(121.76378772032346, -121.76378772032352),28,-5,12,no,m,6,m,0.6109450999647379,1,55,test2,2,0.6115496000275016,-20.0
24,cjx,m,19,r,2,(1.0544208940658713e-14, 172.20000000000002),23,5,2,yes,x,5,x,0.5012801999691874,1,56,test2,2,0.5015108999796212,-40.0
24,cjx,m,19,r,2,(-172.20000000000002, 2.1088417881317425e-14),25,25,4,no,m,6,m,0.6009977998910472,1,57,test2,2,0.6013654000125825,-40.0
24,cjx,m,19,r,2,(-3.163262682197613e-14, -172.20000000000002),27,-3,11,yes,x,5,x,0.6549556000391021,1,58,test2,2,0.655059100012295,-48.0
24,cjx,m,19,r,2,(-3.163262682197613e-14, -172.20000000000002),27,3,1,yes,x,5,x,0.7913900000276044,1,59,test2,2,0.7918150998884812,-42.0
24,cjx,m,19,r,2,(172.20000000000002, 0.0),21,-7,13,yes,x,5,x,0.523679899983108,1,60,test2,2,0.5242101000621915,-52.0
24,cjx,m,19,r,2,(-121.76378772032352, -121.76378772032348),26,7,3,no,m,6,m,0.7249641000526026,1,61,test2,2,0.7254209000384435,-52.0
24,cjx,m,19,r,2,(172.20000000000002, 0.0),21,5,2,yes,x,5,x,0.5382036999799311,1,62,test2,2,0.5384148000739515,-40.0
24,cjx,m,19,r,2,(121.76378772032349, 121.76378772032349),22,5,2,yes,x,5,x,0.47105729999020696,1,63,test2,2,0.4712751000188291,-40.0
24,cjx,m,19,r,2,(-3.163262682197613e-14, -172.20000000000002),27,-3,11,yes,x,5,x,0.5451398999430239,1,64,test2,2,0.5452468999428675,-48.0
24,cjx,m,19,r,2,(121.76378772032346, -121.76378772032352),28,7,3,no,m,6,m,0.585183700080961,1,65,test2,2,0.5856856999453157,-48.0
24,cjx,m,19,r,2,(121.76378772032349, 121.76378772032349),22,-25,14,yes,x,5,x,0.4357760999118909,1,66,test2,2,0.43659389996901155,-70.0
24,cjx,m,19,r,2,(121.76378772032346, -121.76378772032352),28,-25,14,yes,x,5,x,0.43398299999535084,1,67,test2,2,0.4346003000391647,-70.0
24,cjx,m,19,r,2,(-3.163262682197613e-14, -172.20000000000002),27,7,3,no,m,6,m,0.6718627999071032,1,68,test2,2,0.6719822000013664,-70.0
24,cjx,m,19,r,2,(-121.76378772032348, 121.76378772032349),24,25,4,yes,x,5,x,0.386158199980855,1,69,test2,2,0.3864219000097364,-20.0
24,cjx,m,19,r,2,(-172.20000000000002, 2.1088417881317425e-14),25,-25,14,yes,x,5,x,0.4233546999748796,1,70,test2,2,0.42351879994384944,-70.0
24,cjx,m,19,r,2,(121.76378772032349, 121.76378772032349),22,7,3,yes,x,5,x,0.47037509991787374,1,71,test2,2,0.47047979990020394,-38.0
24,cjx,m,19,r,2,(172.20000000000002, 0.0),21,-5,12,yes,x,5,x,0.39662560005672276,1,72,test2,2,0.3967310000443831,-50.0
24,cjx,m,19,r,2,(-121.76378772032348, 121.76378772032349),24,5,2,no,m,6,m,0.5887949999887496,1,73,test2,2,0.5889379000291228,-50.0
24,cjx,m,19,r,2,(-121.76378772032348, 121.76378772032349),24,-5,12,yes,x,5,x,0.5239640000509098,1,74,test2,2,0.5242850000504404,-50.0
24,cjx,m,19,r,2,(-121.76378772032348, 121.76378772032349),24,25,4,no,m,6,m,0.6300282999873161,1,75,test2,2,0.6303870000410825,-50.0
24,cjx,m,19,r,2,(172.20000000000002, 0.0),21,25,4,no,m,6,m,0.6807490999344736,1,76,test2,2,0.6808555000461638,-50.0
24,cjx,m,19,r,2,(1.0544208940658713e-14, 172.20000000000002),23,7,3,no,m,6,m,0.5639874000335112,1,77,test2,2,0.5642801000503823,-50.0
24,cjx,m,19,r,2,(-121.76378772032348, 121.76378772032349),24,-5,12,no,m,6,m,0.7084393000695854,1,78,test2,2,0.7087332999799401,-50.0
24,cjx,m,19,r,2,(-3.163262682197613e-14, -172.20000000000002),27,-25,14,yes,x,5,x,0.4097689000191167,1,79,test2,2,0.40987220010720193,-70.0
24,cjx,m,19,r,2,(-3.163262682197613e-14, -172.20000000000002),27,25,4,no,m,6,m,0.5490828999318182,1,80,test2,2,0.5491892999270931,-70.0
24,cjx,m,19,r,2,(172.20000000000002, 0.0),21,25,4,yes,x,5,x,0.6592100999550894,1,81,test2,2,0.6593262000242248,-20.0
24,cjx,m,19,r,2,(-121.76378772032348, 121.76378772032349),24,25,4,yes,x,5,x,0.42725930002052337,1,82,test2,2,0.42752939998172224,-20.0
24,cjx,m,19,r,2,(-121.76378772032352, -121.76378772032348),26,-25,14,yes,x,5,x,0.4447037000209093,1,83,test2,2,0.44480729999486357,-70.0
24,cjx,m,19,r,2,(121.76378772032346, -121.76378772032352),28,5,2,yes,x,5,x,0.6318476999877021,1,84,test2,2,0.6321234999923036,-40.0
24,cjx,m,19,r,2,(121.76378772032349, 121.76378772032349),22,-5,12,yes,x,5,x,0.8283241000026464,1,85,test2,2,0.8289589999476448,-50.0
24,cjx,m,19,r,2,(1.0544208940658713e-14, 172.20000000000002),23,7,3,yes,x,5,x,0.39366409997455776,1,86,test2,2,0.39379599993117154,-38.0
24,cjx,m,19,r,2,(-121.76378772032348, 121.76378772032349),24,5,2,yes,x,5,x,0.6034737000009045,1,87,test2,2,0.6037088000448421,-40.0
24,cjx,m,19,r,2,(172.20000000000002, 0.0),21,-3,11,yes,x,5,x,0.6027297000400722,1,88,test2,2,0.6029572000261396,-48.0
24,cjx,m,19,r,2,(-172.20000000000002, 2.1088417881317425e-14),25,-3,11,yes,x,5,x,1.0763047999935225,1,89,test2,2,1.076408699969761,-48.0
24,cjx,m,19,r,2,(-121.76378772032352, -121.76378772032348),26,-25,14,yes,x,5,x,0.7469451000215486,1,90,test2,2,0.7473177999490872,-70.0
24,cjx,m,19,r,2,(1.0544208940658713e-14, 172.20000000000002),23,25,4,no,m,6,m,0.723172300029546,1,91,test2,2,0.723278799909167,-70.0
24,cjx,m,19,r,2,(1.0544208940658713e-14, 172.20000000000002),23,-25,14,yes,x,5,x,0.43688559997826815,1,92,test2,2,0.43710270000156015,-70.0
24,cjx,m,19,r,2,(-172.20000000000002, 2.1088417881317425e-14),25,-3,11,yes,x,5,x,0.5106524999719113,1,93,test2,2,0.5107604999793693,-48.0
24,cjx,m,19,r,2,(172.20000000000002, 0.0),21,-25,14,yes,x,5,x,0.4076274000108242,1,94,test2,2,0.4078684999840334,-70.0
24,cjx,m,19,r,2,(-121.76378772032352, -121.76378772032348),26,25,4,yes,x,5,x,0.37522000004537404,1,95,test2,2,0.37532009999267757,-20.0
24,cjx,m,19,r,2,(172.20000000000002, 0.0),21,-3,11,yes,x,5,x,0.7327570000197738,1,96,test2,2,0.7330400999635458,-48.0
24,cjx,m,19,r,2,(121.76378772032349, 121.76378772032349),22,7,3,no,m,6,m,0.6016597000416368,1,1,test1,3,0.602039499906823,-48.0
24,cjx,m,19,r,2,(172.20000000000002, 0.0),21,25,4,yes,x,5,x,0.3928436000132933,1,2,test1,3,0.39351930003613234,-20.0
24,cjx,m,19,r,2,(-121.76378772032348, 121.76378772032349),24,-7,13,yes,x,5,x,0.5162039999850094,1,3,test1,3,0.5166786999907345,-52.0
24,cjx,m,19,r,2,(-3.163262682197613e-14, -172.20000000000002),27,-7,13,yes,x,5,x,0.5017028000438586,1,4,test1,3,0.5018106000497937,-52.0
24,cjx,m,19,r,2,(121.76378772032346, -121.76378772032352),28,-5,12,yes,x,5,x,0.5552553000161424,1,5,test1,3,0.5554873999208212,-50.0
24,cjx,m,19,r,2,(-121.76378772032352, -121.76378772032348),26,5,2,yes,x,5,x,0.5734788000117987,1,6,test1,3,0.5737078000092879,-40.0
24,cjx,m,19,r,2,(-172.20000000000002, 2.1088417881317425e-14),25,-25,14,yes,x,5,x,0.4377337000332773,1,7,test1,3,0.43820530001539737,-70.0
24,cjx,m,19,r,2,(121.76378772032346, -121.76378772032352),28,7,3,yes,x,5,x,0.5615963999880478,1,8,test1,3,0.5619571000570431,-38.0
24,cjx,m,19,r,2,(1.0544208940658713e-14, 172.20000000000002),23,-7,13,yes,x,5,x,0.4764772999333218,1,9,test1,3,0.476705199922435,-52.0
24,cjx,m,19,r,2,(1.0544208940658713e-14, 172.20000000000002),23,25,4,yes,x,5,x,0.351096999947913,1,10,test1,3,0.35160040005575866,-20.0
24,cjx,m,19,r,2,(-121.76378772032352, -121.76378772032348),26,-3,11,no,m,6,m,0.7257774999598041,1,11,test1,3,0.7258836000692099,-20.0
24,cjx,m,19,r,2,(-121.76378772032348, 121.76378772032349),24,-3,11,yes,x,5,x,0.6367896000156179,1,12,test1,3,0.6370948000112548,-48.0
24,cjx,m,19,r,2,(-121.76378772032352, -121.76378772032348),26,-5,12,no,m,6,m,0.5652753999456763,1,13,test1,3,0.5655276000034064,-48.0
24,cjx,m,19,r,2,(121.76378772032346, -121.76378772032352),28,-25,14,no,m,6,m,0.7158627000171691,1,14,test1,3,0.7161202999996021,-48.0
24,cjx,m,19,r,2,(-121.76378772032352, -121.76378772032348),26,-7,13,yes,x,5,x,0.4544902000343427,1,15,test1,3,0.4551441000076011,-52.0
24,cjx,m,19,r,2,(-121.76378772032348, 121.76378772032349),24,-25,14,yes,x,5,x,0.47053970000706613,1,16,test1,3,0.47064139996655285,-70.0
24,cjx,m,19,r,2,(-121.76378772032348, 121.76378772032349),24,3,1,no,m,6,m,0.7693285000277683,1,17,test1,3,0.7697312999516726,-70.0
24,cjx,m,19,r,2,(172.20000000000002, 0.0),21,5,2,yes,x,5,m,0.522972600068897,0,18,test1,3,0.5230747000314295,-40.0
24,cjx,m,19,r,2,(-121.76378772032348, 121.76378772032349),24,7,3,no,m,6,m,0.6119703999720514,1,19,test1,3,0.6121327000437304,-40.0
24,cjx,m,19,r,2,(121.76378772032349, 121.76378772032349),22,-3,11,yes,x,5,x,0.8603444000473246,1,20,test1,3,0.8605594000546262,-48.0
24,cjx,m,19,r,2,(172.20000000000002, 0.0),21,-3,11,no,m,6,m,0.8968329000053927,1,21,test1,3,0.8969598000403494,-48.0
24,cjx,m,19,r,2,(-172.20000000000002, 2.1088417881317425e-14),25,-7,13,no,m,6,m,0.6703329000156373,1,22,test1,3,0.6706927999621257,-48.0
24,cjx,m,19,r,2,(1.0544208940658713e-14, 172.20000000000002),23,-3,11,yes,x,5,x,0.5619689000304788,1,23,test1,3,0.5623032000148669,-48.0
24,cjx,m,19,r,2,(121.76378772032346, -121.76378772032352),28,3,1,yes,x,5,x,0.7831673000473529,1,24,test1,3,0.7832721000304446,-42.0
24,cjx,m,19,r,2,(-121.76378772032348, 121.76378772032349),24,-3,11,yes,x,5,x,0.7782462999457493,1,25,test1,3,0.778753999969922,-48.0
24,cjx,m,19,r,2,(121.76378772032346, -121.76378772032352),28,3,1,no,m,6,m,0.7120245000114664,1,26,test1,3,0.7127351999515668,-48.0
24,cjx,m,19,r,2,(-121.76378772032352, -121.76378772032348),26,-3,11,yes,x,5,x,0.5417674001073465,1,27,test1,3,0.541962799965404,-48.0
24,cjx,m,19,r,2,(-3.163262682197613e-14, -172.20000000000002),27,-7,13,yes,x,5,x,0.42283820000011474,1,28,test1,3,0.42295350006315857,-52.0
24,cjx,m,19,r,2,(121.76378772032349, 121.76378772032349),22,7,3,yes,x,5,x,0.5273039001040161,1,29,test1,3,0.5275082999141887,-38.0
24,cjx,m,19,r,2,(121.76378772032349, 121.76378772032349),22,-5,12,no,m,6,m,0.7264360999688506,1,30,test1,3,0.7266358999768272,-38.0
24,cjx,m,19,r,2,(-172.20000000000002, 2.1088417881317425e-14),25,25,4,yes,x,5,x,0.4022565999766812,1,31,test1,3,0.4029681000392884,-20.0
24,cjx,m,19,r,2,(-121.76378772032348, 121.76378772032349),24,-3,11,no,m,6,m,0.9203389000613242,1,32,test1,3,0.9206089000217617,-20.0
24,cjx,m,19,r,2,(-121.76378772032352, -121.76378772032348),26,-7,13,no,m,6,m,0.743832099949941,1,33,test1,3,0.7439656999194995,-20.0
24,cjx,m,19,r,2,(1.0544208940658713e-14, 172.20000000000002),23,3,1,yes,x,5,x,0.5831661999691278,1,34,test1,3,0.5833255000179633,-42.0
24,cjx,m,19,r,2,(1.0544208940658713e-14, 172.20000000000002),23,3,1,no,m,6,m,0.6290993000147864,1,35,test1,3,0.629229300073348,-42.0
24,cjx,m,19,r,2,(1.0544208940658713e-14, 172.20000000000002),23,5,2,yes,x,5,x,0.414420000044629,1,36,test1,3,0.4151099999435246,-40.0
24,cjx,m,19,r,2,(-3.163262682197613e-14, -172.20000000000002),27,-5,12,yes,x,5,x,0.5115683999611065,1,37,test1,3,0.5118881000671536,-50.0
24,cjx,m,19,r,2,(172.20000000000002, 0.0),21,3,1,yes,x,5,x,0.6231366000138223,1,38,test1,3,0.6235706000588834,-42.0
24,cjx,m,19,r,2,(121.76378772032349, 121.76378772032349),22,-25,14,no,m,6,m,0.9040338000049815,1,39,test1,3,0.9043291000416502,-42.0
24,cjx,m,19,r,2,(-172.20000000000002, 2.1088417881317425e-14),25,25,4,yes,x,5,x,0.476665599970147,1,40,test1,3,0.4770001999568194,-20.0
24,cjx,m,19,r,2,(-121.76378772032352, -121.76378772032348),26,-5,12,yes,x,5,x,0.42708340007811785,1,41,test1,3,0.42751070007216185,-50.0
24,cjx,m,19,r,2,(121.76378772032349, 121.76378772032349),22,5,2,yes,x,5,x,0.5238222000189126,1,42,test1,3,0.5240278000710532,-40.0
24,cjx,m,19,r,2,(121.76378772032346, -121.76378772032352),28,3,1,yes,x,5,x,0.6606773999519646,1,43,test1,3,0.6609152999008074,-42.0
24,cjx,m,19,r,2,(-121.76378772032352, -121.76378772032348),26,7,3,yes,x,5,x,0.46269069996196777,1,44,test1,3,0.46301609999500215,-38.0
24,cjx,m,19,r,2,(172.20000000000002, 0.0),21,-7,13,no,m,6,m,0.6413384999614209,1,45,test1,3,0.6414462000830099,-38.0
24,cjx,m,19,r,2,(1.0544208940658713e-14, 172.20000000000002),23,-5,12,no,m,6,x,0.7857901999959722,0,46,test1,3,0.7860596000682563,-38.0
24,cjx,m,19,r,2,(-172.20000000000002, 2.1088417881317425e-14),25,-25,14,no,m,6,m,0.8430918999947608,1,47,test1,3,0.8431990999961272,-38.0
24,cjx,m,19,r,2,(-121.76378772032348, 121.76378772032349),24,7,3,yes,x,5,x,0.4553341999417171,1,48,test1,3,0.4554400999331847,-38.0
24,cjx,m,19,r,2,(121.76378772032346, -121.76378772032352),28,-5,12,yes,x,5,x,0.7143935000058264,1,49,test1,3,0.7144999000011012,-50.0
24,cjx,m,19,r,2,(-121.76378772032348, 121.76378772032349),24,5,2,yes,x,5,x,0.4340963999275118,1,50,test1,3,0.434290700010024,-40.0
24,cjx,m,19,r,2,(-172.20000000000002, 2.1088417881317425e-14),25,-3,11,no,m,6,m,0.7937892999034375,1,51,test1,3,0.7939247000031173,-40.0
24,cjx,m,19,r,2,(172.20000000000002, 0.0),21,7,3,no,m,6,m,0.8607851999113336,1,52,test1,3,0.8609147999668494,-40.0
24,cjx,m,19,r,2,(121.76378772032349, 121.76378772032349),22,-5,12,yes,x,5,x,0.4909129999577999,1,53,test1,3,0.4910577000118792,-50.0
24,cjx,m,19,r,2,(-121.76378772032352, -121.76378772032348),26,-5,12,yes,x,5,x,0.5017513999482617,1,54,test1,3,0.5018634999869391,-50.0
24,cjx,m,19,r,2,(121.76378772032349, 121.76378772032349),22,-7,13,yes,x,5,x,0.3560806999448687,1,55,test1,3,0.3562297000316903,-52.0
24,cjx,m,19,r,2,(1.0544208940658713e-14, 172.20000000000002),23,-25,14,yes,x,5,x,0.385194499976933,1,56,test1,3,0.3855837999144569,-70.0
24,cjx,m,19,r,2,(-3.163262682197613e-14, -172.20000000000002),27,7,3,yes,x,5,x,0.35480990004725754,1,57,test1,3,0.3549520999658853,-38.0
24,cjx,m,19,r,2,(-121.76378772032348, 121.76378772032349),24,3,1,yes,x,5,x,1.228781700017862,1,58,test1,3,1.2288900999119505,-42.0
24,cjx,m,19,r,2,(-121.76378772032352, -121.76378772032348),26,5,2,no,m,6,m,0.7303004000568762,1,59,test1,3,0.7305036999750882,-42.0
24,cjx,m,19,r,2,(1.0544208940658713e-14, 172.20000000000002),23,-7,13,yes,x,5,x,0.6515156999230385,1,60,test1,3,0.6516189000103623,-52.0
24,cjx,m,19,r,2,(-172.20000000000002, 2.1088417881317425e-14),25,-7,13,yes,x,5,x,0.5318853000644594,1,61,test1,3,0.5323225000174716,-52.0
24,cjx,m,19,r,2,(-172.20000000000002, 2.1088417881317425e-14),25,5,2,yes,x,5,x,0.5018625999800861,1,62,test1,3,0.5019797999411821,-40.0
24,cjx,m,19,r,2,(1.0544208940658713e-14, 172.20000000000002),23,-5,12,yes,x,5,x,0.4822528000222519,1,63,test1,3,0.4824619001010433,-50.0
24,cjx,m,19,r,2,(-121.76378772032348, 121.76378772032349),24,3,1,yes,x,5,x,0.3937756000086665,1,64,test1,3,0.39415070007089525,-42.0
24,cjx,m,19,r,2,(1.0544208940658713e-14, 172.20000000000002),23,-25,14,no,m,6,m,0.6750525999814272,1,65,test1,3,0.6752483999589458,-42.0
24,cjx,m,19,r,2,(-3.163262682197613e-14, -172.20000000000002),27,3,1,yes,x,5,x,0.7028910999651998,1,66,test1,3,0.7030456999782473,-42.0
24,cjx,m,19,r,2,(1.0544208940658713e-14, 172.20000000000002),23,-3,11,no,m,6,m,0.6011949999956414,1,67,test1,3,0.601349699893035,-42.0
24,cjx,m,19,r,2,(-3.163262682197613e-14, -172.20000000000002),27,5,2,yes,x,5,x,0.3876197999343276,1,68,test1,3,0.3877250000368804,-40.0
24,cjx,m,19,r,2,(-121.76378772032352, -121.76378772032348),26,-7,13,yes,x,5,x,0.5115265999920666,1,69,test1,3,0.5116323999827728,-52.0
24,cjx,m,19,r,2,(-3.163262682197613e-14, -172.20000000000002),27,25,4,yes,x,5,x,0.43479879992082715,1,70,test1,3,0.4350157999433577,-20.0
24,cjx,m,19,r,2,(172.20000000000002, 0.0),21,3,1,yes,x,5,x,1.028169000055641,1,71,test1,3,1.0282773999497294,-42.0
24,cjx,m,19,r,2,(-121.76378772032348, 121.76378772032349),24,7,3,yes,x,5,x,0.4053519000299275,1,72,test1,3,0.40570980007760227,-38.0
24,cjx,m,19,r,2,(-121.76378772032352, -121.76378772032348),26,-25,14,no,m,6,m,1.113823899999261,1,73,test1,3,1.1139594999840483,-38.0
24,cjx,m,19,r,2,(121.76378772032346, -121.76378772032352),28,5,2,no,m,6,m,0.7193705000681803,1,74,test1,3,0.7196762999519706,-38.0
24,cjx,m,19,r,2,(121.76378772032346, -121.76378772032352),28,-7,13,no,m,6,m,0.6710109000559896,1,75,test1,3,0.6713749000336975,-38.0
24,cjx,m,19,r,2,(172.20000000000002, 0.0),21,-7,13,yes,x,5,x,0.6349008999532089,1,76,test1,3,0.6360762000549585,-52.0
24,cjx,m,19,r,2,(121.76378772032349, 121.76378772032349),22,25,4,no,m,6,m,0.6630484000779688,1,77,test1,3,0.663298900006339,-52.0
24,cjx,m,19,r,2,(172.20000000000002, 0.0),21,-25,14,yes,x,5,x,0.49914269999135286,1,78,test1,3,0.49977360002230853,-70.0
24,cjx,m,19,r,2,(-172.20000000000002, 2.1088417881317425e-14),25,5,2,no,m,6,m,0.5791615999769419,1,79,test1,3,0.5792859999928623,-70.0
24,cjx,m,19,r,2,(121.76378772032349, 121.76378772032349),22,5,2,no,m,6,m,0.5939408999402076,1,80,test1,3,0.5940986000932753,-70.0
24,cjx,m,19,r,2,(-121.76378772032348, 121.76378772032349),24,-25,14,no,m,6,m,0.5845244000665843,1,81,test1,3,0.5848013000795618,-70.0
24,cjx,m,19,r,2,(-172.20000000000002, 2.1088417881317425e-14),25,-5,12,yes,x,5,x,0.43556819995865226,1,82,test1,3,0.43606980005279183,-50.0
24,cjx,m,19,r,2,(121.76378772032346, -121.76378772032352),28,25,4,yes,x,5,x,0.6057876999257132,1,83,test1,3,0.6062489999458194,-20.0
24,cjx,m,19,r,2,(-3.163262682197613e-14, -172.20000000000002),27,25,4,yes,x,5,x,0.4279249000828713,1,84,test1,3,0.42827600007876754,-20.0
24,cjx,m,19,r,2,(-172.20000000000002, 2.1088417881317425e-14),25,7,3,yes,x,5,x,0.4766723000211641,1,85,test1,3,0.4773399999830872,-38.0
24,cjx,m,19,r,2,(121.76378772032349, 121.76378772032349),22,-25,14,yes,x,5,x,0.45171639998443425,1,86,test1,3,0.4518313999287784,-70.0
24,cjx,m,19,r,2,(121.76378772032349, 121.76378772032349),22,-7,13,yes,x,5,x,0.40792100003454834,1,87,test1,3,0.4080264000222087,-52.0
24,cjx,m,19,r,2,(1.0544208940658713e-14, 172.20000000000002),23,25,4,yes,x,5,x,0.36930619995109737,1,88,test1,3,0.3694263999350369,-20.0
24,cjx,m,19,r,2,(-3.163262682197613e-14, -172.20000000000002),27,3,1,no,m,6,m,0.7151040000608191,1,89,test1,3,0.7152414000593126,-20.0
24,cjx,m,19,r,2,(-121.76378772032352, -121.76378772032348),26,3,1,yes,x,5,x,0.7399526999797672,1,90,test1,3,0.7401690999977291,-42.0
24,cjx,m,19,r,2,(172.20000000000002, 0.0),21,-5,12,yes,x,5,x,0.7609159999992698,1,91,test1,3,0.761098499991931,-50.0
24,cjx,m,19,r,2,(-121.76378772032352, -121.76378772032348),26,7,3,yes,x,5,x,0.44756389991380274,1,92,test1,3,0.4478019999805838,-38.0
24,cjx,m,19,r,2,(-121.76378772032348, 121.76378772032349),24,-5,12,yes,x,5,x,0.5343761999392882,1,93,test1,3,0.5348024000413716,-50.0
24,cjx,m,19,r,2,(-3.163262682197613e-14, -172.20000000000002),27,7,3,yes,x,5,x,0.3822643000166863,1,94,test1,3,0.38236350007355213,-38.0
24,cjx,m,19,r,2,(121.76378772032346, -121.76378772032352),28,-3,11,yes,x,5,m,0.6465292000211775,0,95,test1,3,0.6466328999958932,-48.0
24,cjx,m,19,r,2,(-121.76378772032352, -121.76378772032348),26,25,4,yes,x,5,x,0.40718500001821667,1,96,test1,3,0.40731929999310523,-20.0
24,cjx,m,19,r,2,(1.0544208940658713e-14, 172.20000000000002),23,7,3,yes,x,5,x,0.4649056999478489,1,1,test2,3,0.4653828999726102,-38.0
24,cjx,m,19,r,2,(172.20000000000002, 0.0),21,3,1,no,m,6,m,0.600255100056529,1,2,test2,3,0.6008205999387428,-38.0
24,cjx,m,19,r,2,(-3.163262682197613e-14, -172.20000000000002),27,-25,14,yes,x,5,x,0.3343963000224903,1,3,test2,3,0.33454619999974966,-70.0
24,cjx,m,19,r,2,(-121.76378772032352, -121.76378772032348),26,3,1,yes,x,5,x,0.6795811000047252,1,4,test2,3,0.6798667999682948,-42.0
24,cjx,m,19,r,2,(-172.20000000000002, 2.1088417881317425e-14),25,-5,12,no,m,6,m,0.5871037000324577,1,5,test2,3,0.5876269000582397,-42.0
24,cjx,m,19,r,2,(-121.76378772032352, -121.76378772032348),26,-3,11,yes,x,5,x,0.5299796999897808,1,6,test2,3,0.5301549000432715,-48.0
24,cjx,m,19,r,2,(172.20000000000002, 0.0),21,7,3,yes,x,5,x,0.45489010005258024,1,7,test2,3,0.45519549993332475,-38.0
24,cjx,m,19,r,2,(121.76378772032346, -121.76378772032352),28,25,4,no,m,6,m,0.5154848000966012,1,8,test2,3,0.516154499957338,-38.0
24,cjx,m,19,r,2,(-3.163262682197613e-14, -172.20000000000002),27,-5,12,no,m,6,m,0.5944162999512628,1,9,test2,3,0.5946333999745548,-38.0
24,cjx,m,19,r,2,(-172.20000000000002, 2.1088417881317425e-14),25,-7,13,yes,x,5,x,0.3858448000391945,1,10,test2,3,0.3860986999934539,-52.0
24,cjx,m,19,r,2,(121.76378772032349, 121.76378772032349),22,3,1,yes,x,5,x,0.6674695999827236,1,11,test2,3,0.6675755999749526,-42.0
24,cjx,m,19,r,2,(1.0544208940658713e-14, 172.20000000000002),23,5,2,no,m,6,m,0.9145594999426976,1,12,test2,3,0.914692800026387,-42.0
24,cjx,m,19,r,2,(121.76378772032349, 121.76378772032349),22,25,4,yes,x,5,x,0.4133314999053255,1,13,test2,3,0.41354259999934584,-20.0
24,cjx,m,19,r,2,(121.76378772032349, 121.76378772032349),22,25,4,yes,x,5,x,0.38537469995208085,1,14,test2,3,0.38549420004710555,-20.0
24,cjx,m,19,r,2,(121.76378772032346, -121.76378772032352),28,5,2,yes,x,5,x,0.5168215000303462,1,15,test2,3,0.5169286000309512,-40.0
24,cjx,m,19,r,2,(121.76378772032349, 121.76378772032349),22,-7,13,no,m,6,x,0.36860569997224957,0,16,test2,3,0.36887140001636,-40.0
24,cjx,m,19,r,2,(-3.163262682197613e-14, -172.20000000000002),27,-7,13,no,m,6,m,0.8797531999880448,1,17,test2,3,0.8798708999529481,-40.0
24,cjx,m,19,r,2,(-121.76378772032348, 121.76378772032349),24,-7,13,no,m,6,m,0.48369650007225573,1,18,test2,3,0.48405349999666214,-40.0
24,cjx,m,19,r,2,(121.76378772032346, -121.76378772032352),28,7,3,yes,x,5,x,0.4435745000373572,1,19,test2,3,0.4437536000041291,-38.0
24,cjx,m,19,r,2,(-172.20000000000002, 2.1088417881317425e-14),25,3,1,yes,x,5,x,0.6186365999747068,1,20,test2,3,0.6187789000105113,-42.0
24,cjx,m,19,r,2,(-121.76378772032348, 121.76378772032349),24,-7,13,yes,x,5,x,0.3881415000651032,1,21,test2,3,0.3888233999023214,-52.0
24,cjx,m,19,r,2,(1.0544208940658713e-14, 172.20000000000002),23,-3,11,yes,x,5,x,0.911011999938637,1,22,test2,3,0.9111231000861153,-48.0
24,cjx,m,19,r,2,(-121.76378772032348, 121.76378772032349),24,-25,14,yes,x,5,x,0.40374419989529997,1,23,test2,3,0.4039940000511706,-70.0
24,cjx,m,19,r,2,(-172.20000000000002, 2.1088417881317425e-14),25,7,3,yes,x,5,x,0.4258397000376135,1,24,test2,3,0.4261537999846041,-38.0
24,cjx,m,19,r,2,(172.20000000000002, 0.0),21,5,2,no,m,6,m,0.6213606999954209,1,25,test2,3,0.6214709000196308,-38.0
24,cjx,m,19,r,2,(121.76378772032346, -121.76378772032352),28,-25,14,yes,x,5,x,0.47918370005209,1,26,test2,3,0.47929160005878657,-70.0
24,cjx,m,19,r,2,(-3.163262682197613e-14, -172.20000000000002),27,5,2,no,m,6,m,0.5500505999661982,1,27,test2,3,0.5506579000502825,-70.0
24,cjx,m,19,r,2,(-172.20000000000002, 2.1088417881317425e-14),25,7,3,no,m,6,m,0.718426699982956,1,28,test2,3,0.7186384000815451,-70.0
24,cjx,m,19,r,2,(-3.163262682197613e-14, -172.20000000000002),27,-5,12,yes,x,5,x,0.476772699970752,1,29,test2,3,0.4770077000139281,-50.0
24,cjx,m,19,r,2,(-172.20000000000002, 2.1088417881317425e-14),25,3,1,yes,x,5,m,0.7342935999622568,0,30,test2,3,0.7343955000396818,-42.0
24,cjx,m,19,r,2,(-121.76378772032352, -121.76378772032348),26,25,4,no,m,6,m,0.7144650000846013,1,31,test2,3,0.714759900001809,-42.0
24,cjx,m,19,r,2,(121.76378772032346, -121.76378772032352),28,-3,11,no,m,6,m,0.675633400096558,1,32,test2,3,0.6757515999488533,-42.0
24,cjx,m,19,r,2,(172.20000000000002, 0.0),21,-25,14,no,m,6,m,0.5548988999798894,1,33,test2,3,0.5552908000536263,-42.0
24,cjx,m,19,r,2,(-121.76378772032352, -121.76378772032348),26,5,2,yes,x,5,x,0.5928161999909207,1,34,test2,3,0.5930951000191271,-40.0
24,cjx,m,19,r,2,(172.20000000000002, 0.0),21,-5,12,no,m,6,m,0.7164431000128388,1,35,test2,3,0.7168394000036642,-40.0
24,cjx,m,19,r,2,(-172.20000000000002, 2.1088417881317425e-14),25,3,1,no,m,6,m,0.6472550000762567,1,36,test2,3,0.6474809000501409,-40.0
24,cjx,m,19,r,2,(1.0544208940658713e-14, 172.20000000000002),23,3,1,yes,x,5,x,0.5162167999660596,1,37,test2,3,0.5164124999428168,-42.0
24,cjx,m,19,r,2,(172.20000000000002, 0.0),21,7,3,yes,x,5,x,0.6247448999201879,1,38,test2,3,0.624970700009726,-38.0
24,cjx,m,19,r,2,(121.76378772032349, 121.76378772032349),22,3,1,no,m,6,m,0.6199860000051558,1,39,test2,3,0.6201692000031471,-38.0
24,cjx,m,19,r,2,(121.76378772032349, 121.76378772032349),22,-3,11,yes,x,5,m,0.8592937000794336,0,40,test2,3,0.8596354000037536,-48.0
24,cjx,m,19,r,2,(121.76378772032346, -121.76378772032352),28,-3,11,yes,x,5,x,0.8405308000510558,1,41,test2,3,0.8407055999850854,-48.0
24,cjx,m,19,r,2,(-3.163262682197613e-14, -172.20000000000002),27,-25,14,no,m,6,m,0.5991157999960706,1,42,test2,3,0.5992265000240877,-48.0
24,cjx,m,19,r,2,(1.0544208940658713e-14, 172.20000000000002),23,-7,13,no,m,6,m,0.7734724999172613,1,43,test2,3,0.7735801000380889,-48.0
24,cjx,m,19,r,2,(121.76378772032349, 121.76378772032349),22,-3,11,no,m,6,m,0.5924269000533968,1,44,test2,3,0.5928715000627562,-48.0
24,cjx,m,19,r,2,(121.76378772032346, -121.76378772032352),28,-7,13,yes,x,5,x,0.5467930999584496,1,45,test2,3,0.5469012999674305,-52.0
24,cjx,m,19,r,2,(-3.163262682197613e-14, -172.20000000000002),27,5,2,yes,x,5,x,0.4863879999611527,1,46,test2,3,0.4869458000175655,-40.0
24,cjx,m,19,r,2,(1.0544208940658713e-14, 172.20000000000002),23,-5,12,yes,x,5,x,0.48582139995414764,1,47,test2,3,0.4862116000149399,-50.0
24,cjx,m,19,r,2,(-172.20000000000002, 2.1088417881317425e-14),25,5,2,yes,x,5,x,0.47947650006972253,1,48,test2,3,0.47973719995934516,-40.0
24,cjx,m,19,r,2,(-172.20000000000002, 2.1088417881317425e-14),25,-5,12,yes,x,5,x,0.4729899000376463,1,49,test2,3,0.47332360001746565,-50.0
24,cjx,m,19,r,2,(121.76378772032346, -121.76378772032352),28,-7,13,yes,x,5,x,0.5089116999879479,1,50,test2,3,0.5090429000556469,-52.0
24,cjx,m,19,r,2,(121.76378772032349, 121.76378772032349),22,3,1,yes,x,5,m,0.5427549999440089,0,51,test2,3,0.5432149999542162,-42.0
24,cjx,m,19,r,2,(-121.76378772032352, -121.76378772032348),26,3,1,no,m,6,m,0.7499895999208093,1,52,test2,3,0.7501034999731928,-42.0
24,cjx,m,19,r,2,(-3.163262682197613e-14, -172.20000000000002),27,-3,11,no,m,6,m,0.6962292999960482,1,53,test2,3,0.6964505999349058,-42.0
24,cjx,m,19,r,2,(121.76378772032346, -121.76378772032352),28,25,4,yes,x,5,x,0.39990690001286566,1,54,test2,3,0.4000411001034081,-20.0
24,cjx,m,19,r,2,(121.76378772032346, -121.76378772032352),28,-5,12,no,m,6,m,0.6049887000117451,1,55,test2,3,0.6053610999369994,-20.0
24,cjx,m,19,r,2,(1.0544208940658713e-14, 172.20000000000002),23,5,2,yes,x,5,x,0.6393894000211731,1,56,test2,3,0.6394979999167845,-40.0
24,cjx,m,19,r,2,(-172.20000000000002, 2.1088417881317425e-14),25,25,4,no,m,6,m,0.5222155000083148,1,57,test2,3,0.52248809998855,-40.0
24,cjx,m,19,r,2,(-3.163262682197613e-14, -172.20000000000002),27,-3,11,yes,x,5,x,0.5949133000103757,1,58,test2,3,0.5950432999525219,-48.0
24,cjx,m,19,r,2,(-3.163262682197613e-14, -172.20000000000002),27,3,1,yes,x,5,x,0.7206144999945536,1,59,test2,3,0.720934999990277,-42.0
24,cjx,m,19,r,2,(172.20000000000002, 0.0),21,-7,13,yes,x,5,x,0.5534960000077263,1,60,test2,3,0.5540236999513581,-52.0
24,cjx,m,19,r,2,(-121.76378772032352, -121.76378772032348),26,7,3,no,m,6,m,0.6437623000238091,1,61,test2,3,0.6438826998928562,-52.0
24,cjx,m,19,r,2,(172.20000000000002, 0.0),21,5,2,yes,x,5,x,0.6165770000079647,1,62,test2,3,0.6170192999998108,-40.0
24,cjx,m,19,r,2,(121.76378772032349, 121.76378772032349),22,5,2,yes,x,5,x,0.5308696000138298,1,63,test2,3,0.5311617000261322,-40.0
24,cjx,m,19,r,2,(-3.163262682197613e-14, -172.20000000000002),27,-3,11,yes,x,5,m,0.5506702000275254,0,64,test2,3,0.5508876000531018,-48.0
24,cjx,m,19,r,2,(121.76378772032346, -121.76378772032352),28,7,3,no,m,6,m,0.6556526999920607,1,65,test2,3,0.6557560000801459,-48.0
24,cjx,m,19,r,2,(121.76378772032349, 121.76378772032349),22,-25,14,yes,x,5,x,0.447182499920018,1,66,test2,3,0.4477718999842182,-70.0
24,cjx,m,19,r,2,(121.76378772032346, -121.76378772032352),28,-25,14,yes,x,5,x,0.6278668000595644,1,67,test2,3,0.628249500063248,-70.0
24,cjx,m,19,r,2,(-3.163262682197613e-14, -172.20000000000002),27,7,3,no,m,6,m,0.6839294999372214,1,68,test2,3,0.6842474000295624,-70.0
24,cjx,m,19,r,2,(-121.76378772032348, 121.76378772032349),24,25,4,yes,x,5,x,0.3998962000478059,1,69,test2,3,0.40004960005171597,-20.0
24,cjx,m,19,r,2,(-172.20000000000002, 2.1088417881317425e-14),25,-25,14,yes,x,5,x,0.3928745000157505,1,70,test2,3,0.3930499000707641,-70.0
24,cjx,m,19,r,2,(121.76378772032349, 121.76378772032349),22,7,3,yes,x,5,x,0.4334238999290392,1,71,test2,3,0.4335340999532491,-38.0
24,cjx,m,19,r,2,(172.20000000000002, 0.0),21,-5,12,yes,x,5,x,0.5649563999613747,1,72,test2,3,0.5652488999767229,-50.0
24,cjx,m,19,r,2,(-121.76378772032348, 121.76378772032349),24,5,2,no,m,6,m,0.6318811000091955,1,73,test2,3,0.6328133000060916,-50.0
24,cjx,m,19,r,2,(-121.76378772032348, 121.76378772032349),24,-5,12,yes,x,5,x,0.4866433000424877,1,74,test2,3,0.48674980003852397,-50.0
24,cjx,m,19,r,2,(-121.76378772032348, 121.76378772032349),24,25,4,no,m,6,m,0.6393119000131264,1,75,test2,3,0.6394188000122085,-50.0
24,cjx,m,19,r,2,(172.20000000000002, 0.0),21,25,4,no,m,6,m,0.515656300005503,1,76,test2,3,0.5160310999490321,-50.0
24,cjx,m,19,r,2,(1.0544208940658713e-14, 172.20000000000002),23,7,3,no,m,6,m,0.6733511999482289,1,77,test2,3,0.6735734000103548,-50.0
24,cjx,m,19,r,2,(-121.76378772032348, 121.76378772032349),24,-5,12,no,m,6,m,0.5475930999964476,1,78,test2,3,0.5478653999743983,-50.0
24,cjx,m,19,r,2,(-3.163262682197613e-14, -172.20000000000002),27,-25,14,yes,x,5,x,0.39553030009847134,1,79,test2,3,0.3956570998998359,-70.0
24,cjx,m,19,r,2,(-3.163262682197613e-14, -172.20000000000002),27,25,4,no,m,6,m,0.5443086000159383,1,80,test2,3,0.5445476999739185,-70.0
24,cjx,m,19,r,2,(172.20000000000002, 0.0),21,25,4,yes,x,5,x,0.5138816999970004,1,81,test2,3,0.5142123999539763,-20.0
24,cjx,m,19,r,2,(-121.76378772032348, 121.76378772032349),24,25,4,yes,x,5,x,0.47976789996027946,1,82,test2,3,0.47987190005369484,-20.0
24,cjx,m,19,r,2,(-121.76378772032352, -121.76378772032348),26,-25,14,yes,x,5,x,0.43115159997250885,1,83,test2,3,0.43143840006086975,-70.0
24,cjx,m,19,r,2,(121.76378772032346, -121.76378772032352),28,5,2,yes,x,5,x,0.7502611998934299,1,84,test2,3,0.750522599904798,-40.0
24,cjx,m,19,r,2,(121.76378772032349, 121.76378772032349),22,-5,12,yes,x,5,m,0.6006395000731573,0,85,test2,3,0.6009412000421435,-50.0
24,cjx,m,19,r,2,(1.0544208940658713e-14, 172.20000000000002),23,7,3,yes,x,5,m,0.7515958999283612,0,86,test2,3,0.7520031000021845,-38.0
24,cjx,m,19,r,2,(-121.76378772032348, 121.76378772032349),24,5,2,yes,x,5,x,0.4326640999643132,1,87,test2,3,0.4328794999746606,-40.0
24,cjx,m,19,r,2,(172.20000000000002, 0.0),21,-3,11,yes,x,5,x,0.8076952000847086,1,88,test2,3,0.807800899958238,-48.0
24,cjx,m,19,r,2,(-172.20000000000002, 2.1088417881317425e-14),25,-3,11,yes,x,5,x,0.6738049000268802,1,89,test2,3,0.6739279000321403,-48.0
24,cjx,m,19,r,2,(-121.76378772032352, -121.76378772032348),26,-25,14,yes,x,5,x,0.4537712999153882,1,90,test2,3,0.4539676000131294,-70.0
24,cjx,m,19,r,2,(1.0544208940658713e-14, 172.20000000000002),23,25,4,no,m,6,m,0.6396236999426037,1,91,test2,3,0.6397416000254452,-70.0
24,cjx,m,19,r,2,(1.0544208940658713e-14, 172.20000000000002),23,-25,14,yes,x,5,x,0.41223719995468855,1,92,test2,3,0.41262930002994835,-70.0
24,cjx,m,19,r,2,(-172.20000000000002, 2.1088417881317425e-14),25,-3,11,yes,x,5,x,0.6815828999970108,1,93,test2,3,0.6818308000219986,-48.0
24,cjx,m,19,r,2,(172.20000000000002, 0.0),21,-25,14,yes,x,5,x,0.42240179993677884,1,94,test2,3,0.4226545999990776,-70.0
24,cjx,m,19,r,2,(-121.76378772032352, -121.76378772032348),26,25,4,yes,x,5,x,0.4310368000296876,1,95,test2,3,0.43114830006379634,-20.0
24,cjx,m,19,r,2,(172.20000000000002, 0.0),21,-3,11,yes,x,5,x,0.6796864999923855,1,96,test2,3,0.6803380999481305,-48.0
24,cjx,m,19,r,2,(121.76378772032349, 121.76378772032349),22,7,3,no,m,6,m,0.7244010000722483,1,1,test1,4,0.7245879999827594,-48.0
24,cjx,m,19,r,2,(172.20000000000002, 0.0),21,25,4,yes,x,5,x,0.4945577000034973,1,2,test1,4,0.4948031000094488,-20.0
24,cjx,m,19,r,2,(-121.76378772032348, 121.76378772032349),24,-7,13,yes,x,5,x,0.8530271999770775,1,3,test1,4,0.8531507999869063,-52.0
24,cjx,m,19,r,2,(-3.163262682197613e-14, -172.20000000000002),27,-7,13,yes,x,5,x,0.4384664000244811,1,4,test1,4,0.438671600073576,-52.0
24,cjx,m,19,r,2,(121.76378772032346, -121.76378772032352),28,-5,12,yes,x,5,x,0.5511404999997467,1,5,test1,4,0.5513615000527352,-50.0
24,cjx,m,19,r,2,(-121.76378772032352, -121.76378772032348),26,5,2,yes,x,5,x,0.45784960000310093,1,6,test1,4,0.4582591999787837,-40.0
24,cjx,m,19,r,2,(-172.20000000000002, 2.1088417881317425e-14),25,-25,14,yes,x,5,x,0.3164492000360042,1,7,test1,4,0.31661569990683347,-70.0
24,cjx,m,19,r,2,(121.76378772032346, -121.76378772032352),28,7,3,yes,x,5,x,0.3729027999797836,1,8,test1,4,0.37361520004924387,-38.0
24,cjx,m,19,r,2,(1.0544208940658713e-14, 172.20000000000002),23,-7,13,yes,x,5,x,0.33906070003286004,1,9,test1,4,0.3393265000777319,-52.0
24,cjx,m,19,r,2,(1.0544208940658713e-14, 172.20000000000002),23,25,4,yes,x,5,x,0.39259529998525977,1,10,test1,4,0.3927588000660762,-20.0
24,cjx,m,19,r,2,(-121.76378772032352, -121.76378772032348),26,-3,11,no,m,6,m,0.8310456000035629,1,11,test1,4,0.8313683000160381,-20.0
24,cjx,m,19,r,2,(-121.76378772032348, 121.76378772032349),24,-3,11,yes,x,5,m,0.7885187999345362,0,12,test1,4,0.7888964000158012,-48.0
24,cjx,m,19,r,2,(-121.76378772032352, -121.76378772032348),26,-5,12,no,m,6,m,0.6635079000843689,1,13,test1,4,0.6636095999274403,-48.0
24,cjx,m,19,r,2,(121.76378772032346, -121.76378772032352),28,-25,14,no,m,6,m,0.8691237999591976,1,14,test1,4,0.8692290999460965,-48.0
24,cjx,m,19,r,2,(-121.76378772032352, -121.76378772032348),26,-7,13,yes,x,5,x,0.6365110999904573,1,15,test1,4,0.6366221999051049,-52.0
24,cjx,m,19,r,2,(-121.76378772032348, 121.76378772032349),24,-25,14,yes,x,5,x,0.40235270000994205,1,16,test1,4,0.4025464999722317,-70.0
24,cjx,m,19,r,2,(-121.76378772032348, 121.76378772032349),24,3,1,no,m,6,x,0.32498870010022074,0,17,test1,4,0.325237900018692,-70.0
24,cjx,m,19,r,2,(172.20000000000002, 0.0),21,5,2,yes,x,5,x,0.6273262999020517,1,18,test1,4,0.6277875999221578,-40.0
24,cjx,m,19,r,2,(-121.76378772032348, 121.76378772032349),24,7,3,no,m,6,m,0.838904400006868,1,19,test1,4,0.8390320999315009,-40.0
24,cjx,m,19,r,2,(121.76378772032349, 121.76378772032349),22,-3,11,yes,x,5,m,0.562804099987261,0,20,test1,4,0.5629336999263614,-48.0
24,cjx,m,19,r,2,(172.20000000000002, 0.0),21,-3,11,no,m,6,m,0.806253399932757,1,21,test1,4,0.8065479999640957,-48.0
24,cjx,m,19,r,2,(-172.20000000000002, 2.1088417881317425e-14),25,-7,13,no,m,6,m,0.6580768999410793,1,22,test1,4,0.6583056999370456,-48.0
24,cjx,m,19,r,2,(1.0544208940658713e-14, 172.20000000000002),23,-3,11,yes,x,5,x,0.542374899960123,1,23,test1,4,0.5426445000339299,-48.0
24,cjx,m,19,r,2,(121.76378772032346, -121.76378772032352),28,3,1,yes,x,5,x,1.3852321999147534,1,24,test1,4,1.3854143000207841,-42.0
24,cjx,m,19,r,2,(-121.76378772032348, 121.76378772032349),24,-3,11,yes,x,5,x,0.8264349999371916,1,25,test1,4,0.8266002000309527,-48.0
24,cjx,m,19,r,2,(121.76378772032346, -121.76378772032352),28,3,1,no,m,6,m,0.8275656000478193,1,26,test1,4,0.8276932999724522,-48.0
24,cjx,m,19,r,2,(-121.76378772032352, -121.76378772032348),26,-3,11,yes,x,5,x,0.8199604999972507,1,27,test1,4,0.820271399919875,-48.0
24,cjx,m,19,r,2,(-3.163262682197613e-14, -172.20000000000002),27,-7,13,yes,x,5,x,0.5182945999549702,1,28,test1,4,0.518510099966079,-52.0
24,cjx,m,19,r,2,(121.76378772032349, 121.76378772032349),22,7,3,yes,x,5,x,0.6838607001118362,1,29,test1,4,0.6845988999120891,-38.0
24,cjx,m,19,r,2,(121.76378772032349, 121.76378772032349),22,-5,12,no,m,6,m,0.9686042000539601,1,30,test1,4,0.9687091000378132,-38.0
24,cjx,m,19,r,2,(-172.20000000000002, 2.1088417881317425e-14),25,25,4,yes,x,5,x,0.4512308998964727,1,31,test1,4,0.4513402000302449,-20.0
24,cjx,m,19,r,2,(-121.76378772032348, 121.76378772032349),24,-3,11,no,m,6,m,0.7183032999746501,1,32,test1,4,0.7184065000619739,-20.0
24,cjx,m,19,r,2,(-121.76378772032352, -121.76378772032348),26,-7,13,no,m,6,x,0.6455153999850154,0,33,test1,4,0.6456518999766558,-20.0
24,cjx,m,19,r,2,(1.0544208940658713e-14, 172.20000000000002),23,3,1,yes,x,5,x,0.603707299917005,1,34,test1,4,0.6038105000043288,-42.0
24,cjx,m,19,r,2,(1.0544208940658713e-14, 172.20000000000002),23,3,1,no,m,6,m,0.6308542999904603,1,35,test1,4,0.6309700000565499,-42.0
24,cjx,m,19,r,2,(1.0544208940658713e-14, 172.20000000000002),23,5,2,yes,x,5,x,0.48327189998235554,1,36,test1,4,0.4835977000184357,-40.0
24,cjx,m,19,r,2,(-3.163262682197613e-14, -172.20000000000002),27,-5,12,yes,x,5,None,None,0,37,test1,4,1.9800988000351936,-50.0
24,cjx,m,19,r,2,(172.20000000000002, 0.0),21,3,1,yes,x,5,x,1.0705507000675425,1,38,test1,4,1.0706506000133231,-42.0
24,cjx,m,19,r,2,(121.76378772032349, 121.76378772032349),22,-25,14,no,m,6,m,0.7034901999868453,1,39,test1,4,0.703751299995929,-42.0
24,cjx,m,19,r,2,(-172.20000000000002, 2.1088417881317425e-14),25,25,4,yes,x,5,x,0.3943256000056863,1,40,test1,4,0.39461239997763187,-20.0
24,cjx,m,19,r,2,(-121.76378772032352, -121.76378772032348),26,-5,12,yes,x,5,x,0.4436168000102043,1,41,test1,4,0.4437442000489682,-50.0
24,cjx,m,19,r,2,(121.76378772032349, 121.76378772032349),22,5,2,yes,x,5,x,0.4880999999586493,1,42,test1,4,0.48839899990707636,-40.0
24,cjx,m,19,r,2,(121.76378772032346, -121.76378772032352),28,3,1,yes,x,5,x,0.597961200051941,1,43,test1,4,0.5980653999140486,-42.0
24,cjx,m,19,r,2,(-121.76378772032352, -121.76378772032348),26,7,3,yes,x,5,x,0.36819629999808967,1,44,test1,4,0.3683354000095278,-38.0
24,cjx,m,19,r,2,(172.20000000000002, 0.0),21,-7,13,no,m,6,x,0.6985918000573292,0,45,test1,4,0.6990707000950351,-38.0
24,cjx,m,19,r,2,(1.0544208940658713e-14, 172.20000000000002),23,-5,12,no,m,6,m,0.7067131999647245,1,46,test1,4,0.7069551999447867,-38.0
24,cjx,m,19,r,2,(-172.20000000000002, 2.1088417881317425e-14),25,-25,14,no,m,6,m,0.5548109000083059,1,47,test1,4,0.5549301999853924,-38.0
24,cjx,m,19,r,2,(-121.76378772032348, 121.76378772032349),24,7,3,yes,x,5,x,0.38887529994826764,1,48,test1,4,0.38898059993516654,-38.0
24,cjx,m,19,r,2,(121.76378772032346, -121.76378772032352),28,-5,12,yes,x,5,x,0.8389907000819221,1,49,test1,4,0.8391568000661209,-50.0
24,cjx,m,19,r,2,(-121.76378772032348, 121.76378772032349),24,5,2,yes,x,5,x,0.3901365000056103,1,50,test1,4,0.3903306999709457,-40.0
24,cjx,m,19,r,2,(-172.20000000000002, 2.1088417881317425e-14),25,-3,11,no,m,6,m,0.5289463000372052,1,51,test1,4,0.5291230999864638,-40.0
24,cjx,m,19,r,2,(172.20000000000002, 0.0),21,7,3,no,m,6,m,0.5466523999348283,1,52,test1,4,0.5468662999337539,-40.0
24,cjx,m,19,r,2,(121.76378772032349, 121.76378772032349),22,-5,12,yes,x,5,x,0.4707922999514267,1,53,test1,4,0.4710124999983236,-50.0
24,cjx,m,19,r,2,(-121.76378772032352, -121.76378772032348),26,-5,12,yes,x,5,x,0.4935286999680102,1,54,test1,4,0.4937358000315726,-50.0
24,cjx,m,19,r,2,(121.76378772032349, 121.76378772032349),22,-7,13,yes,x,5,x,0.45874589995946735,1,55,test1,4,0.4590414999984205,-52.0
24,cjx,m,19,r,2,(1.0544208940658713e-14, 172.20000000000002),23,-25,14,yes,x,5,x,0.4916764999506995,1,56,test1,4,0.49202759994659573,-70.0
24,cjx,m,19,r,2,(-3.163262682197613e-14, -172.20000000000002),27,7,3,yes,x,5,x,0.43868780008051544,1,57,test1,4,0.4388711000792682,-38.0
24,cjx,m,19,r,2,(-121.76378772032348, 121.76378772032349),24,3,1,yes,x,5,x,0.721706600044854,1,58,test1,4,0.7218242000089958,-42.0
24,cjx,m,19,r,2,(-121.76378772032352, -121.76378772032348),26,5,2,no,m,6,m,0.8082409000489861,1,59,test1,4,0.8086211000336334,-42.0
24,cjx,m,19,r,2,(1.0544208940658713e-14, 172.20000000000002),23,-7,13,yes,x,5,x,0.43852929992135614,1,60,test1,4,0.4386339000193402,-52.0
24,cjx,m,19,r,2,(-172.20000000000002, 2.1088417881317425e-14),25,-7,13,yes,x,5,x,0.41451850009616464,1,61,test1,4,0.41462080006022006,-52.0
24,cjx,m,19,r,2,(-172.20000000000002, 2.1088417881317425e-14),25,5,2,yes,x,5,x,0.4369761000853032,1,62,test1,4,0.43718279991298914,-40.0
24,cjx,m,19,r,2,(1.0544208940658713e-14, 172.20000000000002),23,-5,12,yes,x,5,x,0.4643824000377208,1,63,test1,4,0.46507180004846305,-50.0
24,cjx,m,19,r,2,(-121.76378772032348, 121.76378772032349),24,3,1,yes,x,5,x,0.8052582999225706,1,64,test1,4,0.8054858000250533,-42.0
24,cjx,m,19,r,2,(1.0544208940658713e-14, 172.20000000000002),23,-25,14,no,m,6,m,1.0413699999917299,1,65,test1,4,1.0415044999681413,-42.0
24,cjx,m,19,r,2,(-3.163262682197613e-14, -172.20000000000002),27,3,1,yes,x,5,m,0.5408123000524938,0,66,test1,4,0.5413407000014558,-42.0
24,cjx,m,19,r,2,(1.0544208940658713e-14, 172.20000000000002),23,-3,11,no,m,6,m,0.4537401999114081,1,67,test1,4,0.4539805999957025,-42.0
24,cjx,m,19,r,2,(-3.163262682197613e-14, -172.20000000000002),27,5,2,yes,x,5,x,0.35436779994051903,1,68,test1,4,0.35458060004748404,-40.0
24,cjx,m,19,r,2,(-121.76378772032352, -121.76378772032348),26,-7,13,yes,x,5,x,0.4733510999940336,1,69,test1,4,0.4737793999956921,-52.0
24,cjx,m,19,r,2,(-3.163262682197613e-14, -172.20000000000002),27,25,4,yes,x,5,x,0.4709462000755593,1,70,test1,4,0.4710478000342846,-20.0
24,cjx,m,19,r,2,(172.20000000000002, 0.0),21,3,1,yes,x,5,x,0.7182299999985844,1,71,test1,4,0.718359800055623,-42.0
24,cjx,m,19,r,2,(-121.76378772032348, 121.76378772032349),24,7,3,yes,x,5,x,0.37002730008680373,1,72,test1,4,0.37064960005227476,-38.0
24,cjx,m,19,r,2,(-121.76378772032352, -121.76378772032348),26,-25,14,no,m,6,m,0.5455378999467939,1,73,test1,4,0.5458461000816897,-38.0
24,cjx,m,19,r,2,(121.76378772032346, -121.76378772032352),28,5,2,no,m,6,m,0.7234246999723837,1,74,test1,4,0.7240126000251621,-38.0
24,cjx,m,19,r,2,(121.76378772032346, -121.76378772032352),28,-7,13,no,m,6,m,0.5133119999663904,1,75,test1,4,0.5136129999300465,-38.0
24,cjx,m,19,r,2,(172.20000000000002, 0.0),21,-7,13,yes,x,5,x,0.3779127999441698,1,76,test1,4,0.3786314999451861,-52.0
24,cjx,m,19,r,2,(121.76378772032349, 121.76378772032349),22,25,4,no,m,6,m,0.5663217999972403,1,77,test1,4,0.5672974000917748,-52.0
24,cjx,m,19,r,2,(172.20000000000002, 0.0),21,-25,14,yes,x,5,x,0.4433683999814093,1,78,test1,4,0.4436281999805942,-70.0
24,cjx,m,19,r,2,(-172.20000000000002, 2.1088417881317425e-14),25,5,2,no,m,6,m,0.5667773000895977,1,79,test1,4,0.5669554000487551,-70.0
24,cjx,m,19,r,2,(121.76378772032349, 121.76378772032349),22,5,2,no,m,6,m,0.5749808999244124,1,80,test1,4,0.575219799997285,-70.0
24,cjx,m,19,r,2,(-121.76378772032348, 121.76378772032349),24,-25,14,no,m,6,m,0.5350840999744833,1,81,test1,4,0.5353497000178322,-70.0
24,cjx,m,19,r,2,(-172.20000000000002, 2.1088417881317425e-14),25,-5,12,yes,x,5,x,0.44680040003731847,1,82,test1,4,0.44704190001357347,-50.0
24,cjx,m,19,r,2,(121.76378772032346, -121.76378772032352),28,25,4,yes,x,5,x,0.4110948999878019,1,83,test1,4,0.4115207999711856,-20.0
24,cjx,m,19,r,2,(-3.163262682197613e-14, -172.20000000000002),27,25,4,yes,x,5,x,0.3680389999644831,1,84,test1,4,0.36836049996782094,-20.0
24,cjx,m,19,r,2,(-172.20000000000002, 2.1088417881317425e-14),25,7,3,yes,x,5,x,0.4235040999483317,1,85,test1,4,0.4236402999376878,-38.0
24,cjx,m,19,r,2,(121.76378772032349, 121.76378772032349),22,-25,14,yes,x,5,x,0.42464530002325773,1,86,test1,4,0.4247582999523729,-70.0
24,cjx,m,19,r,2,(121.76378772032349, 121.76378772032349),22,-7,13,yes,x,5,x,0.40302009996958077,1,87,test1,4,0.4031515000388026,-52.0
24,cjx,m,19,r,2,(1.0544208940658713e-14, 172.20000000000002),23,25,4,yes,x,5,x,0.3991569000063464,1,88,test1,4,0.3992867999477312,-20.0
24,cjx,m,19,r,2,(-3.163262682197613e-14, -172.20000000000002),27,3,1,no,m,6,m,0.6346403000643477,1,89,test1,4,0.6349300000583753,-20.0
24,cjx,m,19,r,2,(-121.76378772032352, -121.76378772032348),26,3,1,yes,x,5,m,0.7850720999995247,0,90,test1,4,0.7854110000189394,-42.0
24,cjx,m,19,r,2,(172.20000000000002, 0.0),21,-5,12,yes,x,5,x,0.5056871001143008,1,91,test1,4,0.505991299985908,-50.0
24,cjx,m,19,r,2,(-121.76378772032352, -121.76378772032348),26,7,3,yes,x,5,x,0.4783245000289753,1,92,test1,4,0.4786056000739336,-38.0
24,cjx,m,19,r,2,(-121.76378772032348, 121.76378772032349),24,-5,12,yes,x,5,x,0.6525277000619099,1,93,test1,4,0.6534341999795288,-50.0
24,cjx,m,19,r,2,(-3.163262682197613e-14, -172.20000000000002),27,7,3,yes,x,5,x,0.5028943000361323,1,94,test1,4,0.5029989000177011,-38.0
24,cjx,m,19,r,2,(121.76378772032346, -121.76378772032352),28,-3,11,yes,x,5,x,0.6385969000402838,1,95,test1,4,0.6390657000010833,-48.0
24,cjx,m,19,r,2,(-121.76378772032352, -121.76378772032348),26,25,4,yes,x,5,x,0.33817929995711893,1,96,test1,4,0.33864750002976507,-20.0
24,cjx,m,19,r,2,(1.0544208940658713e-14, 172.20000000000002),23,7,3,yes,x,5,x,0.4453376999590546,1,1,test2,4,0.44545430003199726,-38.0
24,cjx,m,19,r,2,(172.20000000000002, 0.0),21,3,1,no,m,6,m,0.5879853999940678,1,2,test2,4,0.5881594000384212,-38.0
24,cjx,m,19,r,2,(-3.163262682197613e-14, -172.20000000000002),27,-25,14,yes,x,5,x,0.5623056000331417,1,3,test2,4,0.5628306000726297,-70.0
24,cjx,m,19,r,2,(-121.76378772032352, -121.76378772032348),26,3,1,yes,x,5,m,0.6111542000435293,0,4,test2,4,0.6113423999631777,-42.0
24,cjx,m,19,r,2,(-172.20000000000002, 2.1088417881317425e-14),25,-5,12,no,m,6,m,0.6426156000234187,1,5,test2,4,0.6429112999467179,-42.0
24,cjx,m,19,r,2,(-121.76378772032352, -121.76378772032348),26,-3,11,yes,x,5,x,0.5437309999251738,1,6,test2,4,0.5439497999614105,-48.0
24,cjx,m,19,r,2,(172.20000000000002, 0.0),21,7,3,yes,x,5,x,0.7972602000227198,1,7,test2,4,0.7975385999307036,-38.0
24,cjx,m,19,r,2,(121.76378772032346, -121.76378772032352),28,25,4,no,m,6,m,0.692110100062564,1,8,test2,4,0.6922940000658855,-38.0
24,cjx,m,19,r,2,(-3.163262682197613e-14, -172.20000000000002),27,-5,12,no,m,6,m,0.5739097000332549,1,9,test2,4,0.5740393999731168,-38.0
24,cjx,m,19,r,2,(-172.20000000000002, 2.1088417881317425e-14),25,-7,13,yes,x,5,x,0.435875799972564,1,10,test2,4,0.43602470005862415,-52.0
24,cjx,m,19,r,2,(121.76378772032349, 121.76378772032349),22,3,1,yes,x,5,m,1.0122786000138149,0,11,test2,4,1.0123810999793932,-42.0
24,cjx,m,19,r,2,(1.0544208940658713e-14, 172.20000000000002),23,5,2,no,m,6,m,1.2084874000865966,1,12,test2,4,1.2088664999464527,-42.0
24,cjx,m,19,r,2,(121.76378772032349, 121.76378772032349),22,25,4,yes,x,5,x,0.5789262000471354,1,13,test2,4,0.5791489999974146,-20.0
24,cjx,m,19,r,2,(121.76378772032349, 121.76378772032349),22,25,4,yes,x,5,x,0.46034520003013313,1,14,test2,4,0.46167999994941056,-20.0
24,cjx,m,19,r,2,(121.76378772032346, -121.76378772032352),28,5,2,yes,x,5,x,0.6360825999872759,1,15,test2,4,0.6362270000390708,-40.0
24,cjx,m,19,r,2,(121.76378772032349, 121.76378772032349),22,-7,13,no,m,6,m,0.5928852000506595,1,16,test2,4,0.59305970009882,-40.0
24,cjx,m,19,r,2,(-3.163262682197613e-14, -172.20000000000002),27,-7,13,no,m,6,m,0.5975695999804884,1,17,test2,4,0.5980054000392556,-40.0
24,cjx,m,19,r,2,(-121.76378772032348, 121.76378772032349),24,-7,13,no,m,6,m,0.47479979996569455,1,18,test2,4,0.4750213000224903,-40.0
24,cjx,m,19,r,2,(121.76378772032346, -121.76378772032352),28,7,3,yes,x,5,x,0.4175220000324771,1,19,test2,4,0.41808199998922646,-38.0
24,cjx,m,19,r,2,(-172.20000000000002, 2.1088417881317425e-14),25,3,1,yes,x,5,x,0.658148399903439,1,20,test2,4,0.6582831999985501,-42.0
24,cjx,m,19,r,2,(-121.76378772032348, 121.76378772032349),24,-7,13,yes,x,5,x,0.4972232000436634,1,21,test2,4,0.49743820005096495,-52.0
24,cjx,m,19,r,2,(1.0544208940658713e-14, 172.20000000000002),23,-3,11,yes,x,5,m,0.6193799999309704,0,22,test2,4,0.619904899969697,-48.0
24,cjx,m,19,r,2,(-121.76378772032348, 121.76378772032349),24,-25,14,yes,x,5,x,0.6256493999389932,1,23,test2,4,0.62575869995635,-70.0
24,cjx,m,19,r,2,(-172.20000000000002, 2.1088417881317425e-14),25,7,3,yes,x,5,x,0.47435969999060035,1,24,test2,4,0.47459710005205125,-38.0
24,cjx,m,19,r,2,(172.20000000000002, 0.0),21,5,2,no,m,6,m,0.6143060000613332,1,25,test2,4,0.6144117000512779,-38.0
24,cjx,m,19,r,2,(121.76378772032346, -121.76378772032352),28,-25,14,yes,x,5,x,0.4397931999992579,1,26,test2,4,0.4402740999357775,-70.0
24,cjx,m,19,r,2,(-3.163262682197613e-14, -172.20000000000002),27,5,2,no,m,6,m,0.5953952000709251,1,27,test2,4,0.5960867000976577,-70.0
24,cjx,m,19,r,2,(-172.20000000000002, 2.1088417881317425e-14),25,7,3,no,m,6,m,0.5359903000062332,1,28,test2,4,0.5362412000540644,-70.0
24,cjx,m,19,r,2,(-3.163262682197613e-14, -172.20000000000002),27,-5,12,yes,x,5,x,0.44403620006050915,1,29,test2,4,0.44429320003837347,-50.0
24,cjx,m,19,r,2,(-172.20000000000002, 2.1088417881317425e-14),25,3,1,yes,x,5,x,0.7302293999819085,1,30,test2,4,0.7305344000924379,-42.0
24,cjx,m,19,r,2,(-121.76378772032352, -121.76378772032348),26,25,4,no,m,6,m,0.838200300000608,1,31,test2,4,0.8384733999846503,-42.0
24,cjx,m,19,r,2,(121.76378772032346, -121.76378772032352),28,-3,11,no,m,6,m,0.6148623999906704,1,32,test2,4,0.6150068000424653,-42.0
24,cjx,m,19,r,2,(172.20000000000002, 0.0),21,-25,14,no,m,6,m,0.6599301999667659,1,33,test2,4,0.6601489000022411,-42.0
24,cjx,m,19,r,2,(-121.76378772032352, -121.76378772032348),26,5,2,yes,x,5,x,0.5354481000686064,1,34,test2,4,0.5355816000374034,-40.0
24,cjx,m,19,r,2,(172.20000000000002, 0.0),21,-5,12,no,m,6,m,0.5524483999470249,1,35,test2,4,0.5528074000030756,-40.0
24,cjx,m,19,r,2,(-172.20000000000002, 2.1088417881317425e-14),25,3,1,no,m,6,m,0.5368077999446541,1,36,test2,4,0.5369605999439955,-40.0
24,cjx,m,19,r,2,(1.0544208940658713e-14, 172.20000000000002),23,3,1,yes,x,5,x,0.6650316000450402,1,37,test2,4,0.6653587000910193,-42.0
24,cjx,m,19,r,2,(172.20000000000002, 0.0),21,7,3,yes,x,5,x,0.4233617000281811,1,38,test2,4,0.42365900008007884,-38.0
24,cjx,m,19,r,2,(121.76378772032349, 121.76378772032349),22,3,1,no,m,6,m,0.9022554999683052,1,39,test2,4,0.9024945999262854,-38.0
24,cjx,m,19,r,2,(121.76378772032349, 121.76378772032349),22,-3,11,yes,x,5,x,0.8485467999707907,1,40,test2,4,0.8487123000668362,-48.0
24,cjx,m,19,r,2,(121.76378772032346, -121.76378772032352),28,-3,11,yes,x,5,x,1.1810251999413595,1,41,test2,4,1.1811344999587163,-48.0
24,cjx,m,19,r,2,(-3.163262682197613e-14, -172.20000000000002),27,-25,14,no,m,6,m,0.906599200097844,1,42,test2,4,0.9068099000724033,-48.0
24,cjx,m,19,r,2,(1.0544208940658713e-14, 172.20000000000002),23,-7,13,no,m,6,m,0.7639291000086814,1,43,test2,4,0.7643834999762475,-48.0
24,cjx,m,19,r,2,(121.76378772032349, 121.76378772032349),22,-3,11,no,m,6,m,0.5848585999337956,1,44,test2,4,0.5849678999511525,-48.0
24,cjx,m,19,r,2,(121.76378772032346, -121.76378772032352),28,-7,13,yes,x,5,x,0.6263410000829026,1,45,test2,4,0.6264895000495017,-52.0
24,cjx,m,19,r,2,(-3.163262682197613e-14, -172.20000000000002),27,5,2,yes,x,5,x,0.6360729000298306,1,46,test2,4,0.6362961999839172,-40.0
24,cjx,m,19,r,2,(1.0544208940658713e-14, 172.20000000000002),23,-5,12,yes,x,5,x,0.46821879991330206,1,47,test2,4,0.4686050999443978,-50.0
24,cjx,m,19,r,2,(-172.20000000000002, 2.1088417881317425e-14),25,5,2,yes,x,5,x,0.4680866999551654,1,48,test2,4,0.4681879000272602,-40.0
24,cjx,m,19,r,2,(-172.20000000000002, 2.1088417881317425e-14),25,-5,12,yes,x,5,x,0.47314610006287694,1,49,test2,4,0.47324840002693236,-50.0
24,cjx,m,19,r,2,(121.76378772032346, -121.76378772032352),28,-7,13,yes,x,5,x,0.4640809000702575,1,50,test2,4,0.4643923999974504,-52.0
24,cjx,m,19,r,2,(121.76378772032349, 121.76378772032349),22,3,1,yes,x,5,x,0.5970925999572501,1,51,test2,4,0.5976880999514833,-42.0
24,cjx,m,19,r,2,(-121.76378772032352, -121.76378772032348),26,3,1,no,m,6,m,0.6537735000019893,1,52,test2,4,0.6538740999531001,-42.0
24,cjx,m,19,r,2,(-3.163262682197613e-14, -172.20000000000002),27,-3,11,no,m,6,m,0.6724703999934718,1,53,test2,4,0.6726019000634551,-42.0
24,cjx,m,19,r,2,(121.76378772032346, -121.76378772032352),28,25,4,yes,x,5,x,0.4061662999447435,1,54,test2,4,0.4064160999841988,-20.0
24,cjx,m,19,r,2,(121.76378772032346, -121.76378772032352),28,-5,12,no,m,6,m,0.858242200105451,1,55,test2,4,0.8583449000725523,-20.0
24,cjx,m,19,r,2,(1.0544208940658713e-14, 172.20000000000002),23,5,2,yes,x,5,x,0.4608760999981314,1,56,test2,4,0.4610259000910446,-40.0
24,cjx,m,19,r,2,(-172.20000000000002, 2.1088417881317425e-14),25,25,4,no,m,6,m,0.6104168000165373,1,57,test2,4,0.6105230000102893,-40.0
24,cjx,m,19,r,2,(-3.163262682197613e-14, -172.20000000000002),27,-3,11,yes,x,5,x,0.8058022999903187,1,58,test2,4,0.8059043000685051,-48.0
24,cjx,m,19,r,2,(-3.163262682197613e-14, -172.20000000000002),27,3,1,yes,x,5,x,0.6030185000272468,1,59,test2,4,0.6032398000825197,-42.0
24,cjx,m,19,r,2,(172.20000000000002, 0.0),21,-7,13,yes,x,5,x,0.4896233999170363,1,60,test2,4,0.48972940002568066,-52.0
24,cjx,m,19,r,2,(-121.76378772032352, -121.76378772032348),26,7,3,no,m,6,m,0.6438805999932811,1,61,test2,4,0.6440470999805257,-52.0
24,cjx,m,19,r,2,(172.20000000000002, 0.0),21,5,2,yes,x,5,x,0.5695250999415293,1,62,test2,4,0.5700615999521688,-40.0
24,cjx,m,19,r,2,(121.76378772032349, 121.76378772032349),22,5,2,yes,x,5,x,0.5725237000733614,1,63,test2,4,0.5726930000819266,-40.0
24,cjx,m,19,r,2,(-3.163262682197613e-14, -172.20000000000002),27,-3,11,yes,x,5,x,0.627570700016804,1,64,test2,4,0.6279164999723434,-48.0
24,cjx,m,19,r,2,(121.76378772032346, -121.76378772032352),28,7,3,no,m,6,m,0.788168300059624,1,65,test2,4,0.7887019000481814,-48.0
24,cjx,m,19,r,2,(121.76378772032349, 121.76378772032349),22,-25,14,yes,x,5,x,0.41870969999581575,1,66,test2,4,0.41884689999278635,-70.0
24,cjx,m,19,r,2,(121.76378772032346, -121.76378772032352),28,-25,14,yes,x,5,x,0.3960727999219671,1,67,test2,4,0.39664819999597967,-70.0
24,cjx,m,19,r,2,(-3.163262682197613e-14, -172.20000000000002),27,7,3,no,m,6,m,0.618926600087434,1,68,test2,4,0.6196294999681413,-70.0
24,cjx,m,19,r,2,(-121.76378772032348, 121.76378772032349),24,25,4,yes,x,5,x,0.4130112000275403,1,69,test2,4,0.4132154000690207,-20.0
24,cjx,m,19,r,2,(-172.20000000000002, 2.1088417881317425e-14),25,-25,14,yes,x,5,x,0.36446390009950846,1,70,test2,4,0.36467609996907413,-70.0
24,cjx,m,19,r,2,(121.76378772032349, 121.76378772032349),22,7,3,yes,x,5,x,0.4574558000313118,1,71,test2,4,0.45779230003245175,-38.0
24,cjx,m,19,r,2,(172.20000000000002, 0.0),21,-5,12,yes,x,5,x,0.5314878000644967,1,72,test2,4,0.5322345000458881,-50.0
24,cjx,m,19,r,2,(-121.76378772032348, 121.76378772032349),24,5,2,no,m,6,m,0.6709444000152871,1,73,test2,4,0.6711197999538854,-50.0
24,cjx,m,19,r,2,(-121.76378772032348, 121.76378772032349),24,-5,12,yes,x,5,x,0.6052496000193059,1,74,test2,4,0.605504099978134,-50.0
24,cjx,m,19,r,2,(-121.76378772032348, 121.76378772032349),24,25,4,no,m,6,m,0.638746100012213,1,75,test2,4,0.6389648000476882,-50.0
24,cjx,m,19,r,2,(172.20000000000002, 0.0),21,25,4,no,m,6,m,0.49886399996466935,1,76,test2,4,0.49976329994387925,-50.0
