subj_id,subj_name,subj_gender ,subj_age,subj_handedness,subj_runNum,tar_l_x,tar_l_y,loc_code,tar_ori,tar_code,tar_pre ,cor_response,pre_code,subj_response,RT,correct,trial_num,type,bloc_num,dur, real_tar
24,cjx,m,19,r,1,(-3.163262682197613e-14, -172.20000000000002),27,-3,11,yes,x,5,None,None,0,1,prac,0,1.9808682999573648,-48.0
24,cjx,m,19,r,1,(1.0544208940658713e-14, 172.20000000000002),23,5,2,yes,x,5,m,1.0472758000250906,0,2,prac,0,1.0474677999736741,-40.0
24,cjx,m,19,r,1,(172.20000000000002, 0.0),21,-25,14,yes,x,5,x,0.45009870000649244,1,3,prac,0,0.45023169997148216,-70.0
24,cjx,m,19,r,1,(1.0544208940658713e-14, 172.20000000000002),23,-3,11,no,m,6,m,0.761382499942556,1,4,prac,0,0.7615040999371558,-70.0
24,cjx,m,19,r,1,(1.0544208940658713e-14, 172.20000000000002),23,25,4,yes,x,5,x,0.503297800081782,1,5,prac,0,0.5035193999065086,-20.0
24,cjx,m,19,r,1,(121.76378772032346, -121.76378772032352),28,25,4,yes,x,5,x,0.5219305000500754,1,6,prac,0,0.5220779000082985,-20.0
24,cjx,m,19,r,1,(172.20000000000002, 0.0),21,-7,13,yes,x,5,x,0.6674640000564978,1,7,prac,0,0.6676418000133708,-52.0
24,cjx,m,19,r,1,(-121.76378772032348, 121.76378772032349),24,-7,13,no,m,6,m,0.5600233000004664,1,8,prac,0,0.5601831000531092,-52.0
24,cjx,m,19,r,1,(121.76378772032349, 121.76378772032349),22,-25,14,no,m,6,m,0.6519334999611601,1,9,prac,0,0.6521472000749782,-52.0
24,cjx,m,19,r,1,(-172.20000000000002, 2.1088417881317425e-14),25,-5,12,no,m,6,m,0.4824918999802321,1,10,prac,0,0.4827473000623286,-52.0
24,cjx,m,19,r,1,(121.76378772032349, 121.76378772032349),22,-25,14,yes,x,5,x,0.45330189995002,1,11,prac,0,0.4534364000428468,-70.0
24,cjx,m,19,r,1,(-172.20000000000002, 2.1088417881317425e-14),25,7,3,yes,x,5,m,0.5061445999890566,0,12,prac,0,0.50634970003739,-38.0
24,cjx,m,19,r,1,(1.0544208940658713e-14, 172.20000000000002),23,7,3,yes,x,5,x,1.1023247999837622,1,13,prac,0,1.1025432999012992,-38.0
24,cjx,m,19,r,1,(-121.76378772032352, -121.76378772032348),26,-25,14,no,m,6,m,0.7044811000814661,1,14,prac,0,0.7047731999773532,-38.0
24,cjx,m,19,r,1,(121.76378772032349, 121.76378772032349),22,-5,12,no,m,6,m,0.8976753000169992,1,15,prac,0,0.8978291999083012,-38.0
24,cjx,m,19,r,1,(1.0544208940658713e-14, 172.20000000000002),23,3,1,yes,x,5,x,0.7187332999892533,1,16,prac,0,0.7189457999775186,-42.0
24,cjx,m,19,r,1,(172.20000000000002, 0.0),21,-3,11,yes,x,5,m,0.5809126999229193,0,17,prac,0,0.5810280999867246,-48.0
24,cjx,m,19,r,1,(-172.20000000000002, 2.1088417881317425e-14),25,-5,12,yes,x,5,m,0.8060875000664964,0,18,prac,0,0.8062875000759959,-50.0
24,cjx,m,19,r,1,(172.20000000000002, 0.0),21,25,4,yes,x,5,x,0.6555800000205636,1,19,prac,0,0.6556778999511153,-20.0
24,cjx,m,19,r,1,(-121.76378772032352, -121.76378772032348),26,3,1,no,m,6,x,0.6512403999222443,0,20,prac,0,0.6515156999230385,-20.0
24,cjx,m,19,r,1,(-121.76378772032348, 121.76378772032349),24,25,4,no,m,6,m,1.0996768999611959,1,1,test1,1,1.0998384999111295,-20.0
24,cjx,m,19,r,1,(121.76378772032346, -121.76378772032352),28,25,4,yes,x,5,x,0.5235668000532314,1,2,test1,1,0.523666699999012,-20.0
24,cjx,m,19,r,1,(1.0544208940658713e-14, 172.20000000000002),23,3,1,yes,x,5,x,0.7224041000008583,1,3,test1,1,0.7225057000759989,-42.0
24,cjx,m,19,r,1,(-172.20000000000002, 2.1088417881317425e-14),25,25,4,no,m,6,m,0.626325000077486,1,4,test1,1,0.6266291999490932,-42.0
24,cjx,m,19,r,1,(121.76378772032346, -121.76378772032352),28,-25,14,yes,x,5,x,0.5730159000959247,1,5,test1,1,0.57312269997783,-70.0
24,cjx,m,19,r,1,(121.76378772032349, 121.76378772032349),22,25,4,no,m,6,m,0.8356712999520823,1,6,test1,1,0.8359105000272393,-70.0
24,cjx,m,19,r,1,(1.0544208940658713e-14, 172.20000000000002),23,-3,11,yes,x,5,x,0.5975247999886051,1,7,test1,1,0.5979023000691086,-48.0
24,cjx,m,19,r,1,(-121.76378772032348, 121.76378772032349),24,7,3,no,m,6,m,0.7863417000044137,1,8,test1,1,0.7864555999403819,-48.0
24,cjx,m,19,r,1,(121.76378772032349, 121.76378772032349),22,-25,14,no,m,6,m,0.6545187999727204,1,9,test1,1,0.6547690000152215,-48.0
24,cjx,m,19,r,1,(121.76378772032349, 121.76378772032349),22,-7,13,yes,x,5,x,0.6070836000144482,1,10,test1,1,0.6071830000728369,-52.0
24,cjx,m,19,r,1,(121.76378772032346, -121.76378772032352),28,3,1,yes,x,5,m,0.6328501000534743,0,11,test1,1,0.6333278999663889,-42.0
24,cjx,m,19,r,1,(-3.163262682197613e-14, -172.20000000000002),27,-25,14,yes,x,5,x,0.5242405000608414,1,12,test1,1,0.5247173000825569,-70.0
24,cjx,m,19,r,1,(1.0544208940658713e-14, 172.20000000000002),23,3,1,no,m,6,m,0.9135640000458807,1,13,test1,1,0.9137764000333846,-70.0
24,cjx,m,19,r,1,(-3.163262682197613e-14, -172.20000000000002),27,7,3,yes,x,5,x,0.5134197999723256,1,14,test1,1,0.5140311999712139,-38.0
24,cjx,m,19,r,1,(121.76378772032346, -121.76378772032352),28,-5,12,no,m,6,m,0.7339534999337047,1,15,test1,1,0.7341271999757737,-38.0
24,cjx,m,19,r,1,(-3.163262682197613e-14, -172.20000000000002),27,3,1,yes,x,5,x,0.866154000046663,1,16,test1,1,0.8663441999815404,-42.0
24,cjx,m,19,r,1,(-3.163262682197613e-14, -172.20000000000002),27,5,2,yes,x,5,x,0.700349900056608,1,17,test1,1,0.7005897000199184,-40.0
24,cjx,m,19,r,1,(-3.163262682197613e-14, -172.20000000000002),27,7,3,yes,x,5,x,0.4916142999427393,1,18,test1,1,0.4920175999868661,-38.0
24,cjx,m,19,r,1,(-172.20000000000002, 2.1088417881317425e-14),25,7,3,yes,x,5,x,0.6632397000212222,1,19,test1,1,0.6635650000534952,-38.0
24,cjx,m,19,r,1,(172.20000000000002, 0.0),21,-3,11,no,m,6,m,0.782892799936235,1,20,test1,1,0.7831491999095306,-38.0
24,cjx,m,19,r,1,(-172.20000000000002, 2.1088417881317425e-14),25,-5,12,no,m,6,m,1.0411692999769002,1,21,test1,1,1.0412854999303818,-38.0
24,cjx,m,19,r,1,(121.76378772032349, 121.76378772032349),22,5,2,yes,x,5,m,0.9432517000241205,0,22,test1,1,0.9433867000043392,-40.0
24,cjx,m,19,r,1,(172.20000000000002, 0.0),21,7,3,no,m,6,m,1.3041288000531495,1,23,test1,1,1.30425909999758,-40.0
24,cjx,m,19,r,1,(121.76378772032349, 121.76378772032349),22,-3,11,no,m,6,m,0.7083039999706671,1,24,test1,1,0.7084972000448033,-40.0
24,cjx,m,19,r,1,(121.76378772032349, 121.76378772032349),22,3,1,yes,x,5,m,1.1889083000132814,0,25,test1,1,1.1890116999857128,-42.0
24,cjx,m,19,r,1,(121.76378772032349, 121.76378772032349),22,25,4,yes,x,5,x,0.5619430999504402,1,26,test1,1,0.5620613000355661,-20.0
24,cjx,m,19,r,1,(-121.76378772032352, -121.76378772032348),26,3,1,yes,x,5,m,0.9814574000192806,0,27,test1,1,0.9818899999372661,-42.0
24,cjx,m,19,r,1,(172.20000000000002, 0.0),21,5,2,yes,x,5,x,1.0646928999340162,1,28,test1,1,1.0648644999600947,-40.0
24,cjx,m,19,r,1,(-172.20000000000002, 2.1088417881317425e-14),25,-7,13,no,m,6,m,0.8216314000310376,1,29,test1,1,0.8218680000863969,-40.0
24,cjx,m,19,r,1,(-172.20000000000002, 2.1088417881317425e-14),25,7,3,yes,x,5,x,0.5877181000541896,1,30,test1,1,0.587845699978061,-38.0
24,cjx,m,19,r,1,(121.76378772032346, -121.76378772032352),28,5,2,yes,x,5,x,0.7548713999567553,1,31,test1,1,0.7549842000007629,-40.0
24,cjx,m,19,r,1,(-172.20000000000002, 2.1088417881317425e-14),25,5,2,yes,x,5,x,0.505996200023219,1,32,test1,1,0.5061621000058949,-40.0
24,cjx,m,19,r,1,(-121.76378772032352, -121.76378772032348),26,3,1,no,m,6,m,0.9572773000691086,1,33,test1,1,0.9573804999236017,-40.0
24,cjx,m,19,r,1,(-172.20000000000002, 2.1088417881317425e-14),25,3,1,yes,x,5,x,0.7226533000357449,1,34,test1,1,0.7229254000121728,-42.0
24,cjx,m,19,r,1,(-121.76378772032348, 121.76378772032349),24,-3,11,yes,x,5,m,0.8898603999987245,0,35,test1,1,0.8903249999275431,-48.0
24,cjx,m,19,r,1,(-121.76378772032348, 121.76378772032349),24,-3,11,no,m,6,m,0.7872507000574842,1,36,test1,1,0.7873514000093564,-48.0
24,cjx,m,19,r,1,(-121.76378772032348, 121.76378772032349),24,-7,13,yes,x,5,x,0.4853735000360757,1,37,test1,1,0.48547419998794794,-52.0
24,cjx,m,19,r,1,(-121.76378772032352, -121.76378772032348),26,7,3,yes,x,5,x,0.8445366000523791,1,38,test1,1,0.844643900054507,-38.0
24,cjx,m,19,r,1,(-121.76378772032348, 121.76378772032349),24,-3,11,yes,x,5,m,0.6652276999084279,0,39,test1,1,0.6653623000020161,-48.0
24,cjx,m,19,r,1,(-3.163262682197613e-14, -172.20000000000002),27,7,3,no,m,6,m,1.1955733000067994,1,40,test1,1,1.1957660999614745,-48.0
24,cjx,m,19,r,1,(-121.76378772032348, 121.76378772032349),24,-7,13,yes,x,5,x,0.580171599984169,1,41,test1,1,0.580273799947463,-52.0
24,cjx,m,19,r,1,(172.20000000000002, 0.0),21,5,2,yes,x,5,x,0.6485873999772593,1,42,test1,1,0.6487091999733821,-40.0
24,cjx,m,19,r,1,(-172.20000000000002, 2.1088417881317425e-14),25,-5,12,yes,x,5,x,0.80392189999111,1,43,test1,1,0.8042981999460608,-50.0
24,cjx,m,19,r,1,(-172.20000000000002, 2.1088417881317425e-14),25,3,1,yes,x,5,x,0.7140760000329465,1,44,test1,1,0.7143593000946566,-42.0
24,cjx,m,19,r,1,(172.20000000000002, 0.0),21,-5,12,yes,x,5,x,0.6720151000190526,1,45,test1,1,0.6722451000241563,-50.0
24,cjx,m,19,r,1,(-172.20000000000002, 2.1088417881317425e-14),25,5,2,no,m,6,m,0.7903694999404252,1,46,test1,1,0.790925299981609,-50.0
24,cjx,m,19,r,1,(172.20000000000002, 0.0),21,3,1,yes,x,5,x,0.8467815000331029,1,47,test1,1,0.8470188999781385,-42.0
24,cjx,m,19,r,1,(172.20000000000002, 0.0),21,-3,11,yes,x,5,x,0.9876458999933675,1,48,test1,1,0.9880279999924824,-48.0
24,cjx,m,19,r,1,(121.76378772032349, 121.76378772032349),22,-5,12,no,m,6,m,0.7995281999465078,1,49,test1,1,0.7997579999500886,-48.0
24,cjx,m,19,r,1,(-3.163262682197613e-14, -172.20000000000002),27,-25,14,no,m,6,m,1.0020729000680149,1,50,test1,1,1.0028095999732614,-48.0
24,cjx,m,19,r,1,(121.76378772032346, -121.76378772032352),28,7,3,yes,x,5,x,0.6164040999719873,1,51,test1,1,0.6167183000361547,-38.0
24,cjx,m,19,r,1,(-3.163262682197613e-14, -172.20000000000002),27,-7,13,no,m,6,m,1.0141671999590471,1,52,test1,1,1.0146895999787375,-38.0
24,cjx,m,19,r,1,(-172.20000000000002, 2.1088417881317425e-14),25,-3,11,yes,x,5,x,0.7009276000317186,1,53,test1,1,0.7013104000361636,-48.0
24,cjx,m,19,r,1,(-121.76378772032352, -121.76378772032348),26,-5,12,no,m,6,m,0.8142118999967352,1,54,test1,1,0.8144689000910148,-48.0
24,cjx,m,19,r,1,(1.0544208940658713e-14, 172.20000000000002),23,25,4,yes,x,5,x,0.47558159998152405,1,55,test1,1,0.4758579999906942,-20.0
24,cjx,m,19,r,1,(-172.20000000000002, 2.1088417881317425e-14),25,5,2,yes,x,5,None,None,0,56,test1,1,1.9801125000230968,-40.0
24,cjx,m,19,r,1,(121.76378772032349, 121.76378772032349),22,-5,12,yes,x,5,x,0.8299493999220431,1,57,test1,1,0.8301508999429643,-50.0
24,cjx,m,19,r,1,(172.20000000000002, 0.0),21,7,3,yes,x,5,x,0.4874620999908075,1,58,test1,1,0.487937800004147,-38.0
24,cjx,m,19,r,1,(-121.76378772032352, -121.76378772032348),26,-3,11,yes,x,5,x,0.5590392999583855,1,59,test1,1,0.5592831999529153,-48.0
24,cjx,m,19,r,1,(-121.76378772032348, 121.76378772032349),24,-25,14,yes,x,5,x,0.3897356999805197,1,60,test1,1,0.3899031999753788,-70.0
24,cjx,m,19,r,1,(-121.76378772032352, -121.76378772032348),26,5,2,yes,x,5,m,1.1092422999208793,0,61,test1,1,1.1093737999908626,-40.0
24,cjx,m,19,r,1,(1.0544208940658713e-14, 172.20000000000002),23,-5,12,yes,x,5,x,0.5828472999855876,1,62,test1,1,0.5830102000618353,-50.0
24,cjx,m,19,r,1,(-121.76378772032348, 121.76378772032349),24,-25,14,yes,x,5,x,0.6028691000537947,1,63,test1,1,0.6032537000719458,-70.0
24,cjx,m,19,r,1,(172.20000000000002, 0.0),21,-5,12,no,m,6,m,0.6328112999908626,1,64,test1,1,0.6329926999751478,-70.0
24,cjx,m,19,r,1,(121.76378772032349, 121.76378772032349),22,-3,11,yes,x,5,x,1.1968333000550047,1,65,test1,1,1.1970555000007153,-48.0
24,cjx,m,19,r,1,(1.0544208940658713e-14, 172.20000000000002),23,7,3,no,m,6,m,0.9152427000226453,1,66,test1,1,0.9155336000258103,-48.0
24,cjx,m,19,r,1,(1.0544208940658713e-14, 172.20000000000002),23,7,3,yes,x,5,x,0.43934459995944053,1,67,test1,1,0.4396466000471264,-38.0
24,cjx,m,19,r,1,(172.20000000000002, 0.0),21,25,4,no,m,6,m,0.9574005000758916,1,68,test1,1,0.9576233000261709,-38.0
24,cjx,m,19,r,1,(121.76378772032346, -121.76378772032352),28,-5,12,yes,x,5,m,0.7098411000333726,0,69,test1,1,0.710103000048548,-50.0
24,cjx,m,19,r,1,(172.20000000000002, 0.0),21,-25,14,no,m,6,m,0.6468591999728233,1,70,test1,1,0.647143300040625,-50.0
24,cjx,m,19,r,1,(-121.76378772032352, -121.76378772032348),26,-3,11,no,m,6,m,0.5961752000730485,1,71,test1,1,0.596706600044854,-50.0
24,cjx,m,19,r,1,(-121.76378772032348, 121.76378772032349),24,3,1,yes,x,5,m,1.2356098999734968,0,72,test1,1,1.2357109000440687,-42.0
24,cjx,m,19,r,1,(1.0544208940658713e-14, 172.20000000000002),23,-3,11,no,m,6,m,0.874521900084801,1,73,test1,1,0.8749137000413612,-42.0
24,cjx,m,19,r,1,(121.76378772032346, -121.76378772032352),28,-25,14,no,m,6,m,0.820834800018929,1,74,test1,1,0.8209324999479577,-42.0
24,cjx,m,19,r,1,(-121.76378772032352, -121.76378772032348),26,7,3,yes,x,5,x,0.3939820999512449,1,75,test1,1,0.3941020000493154,-38.0
24,cjx,m,19,r,1,(121.76378772032349, 121.76378772032349),22,-5,12,yes,x,5,x,0.43911779997870326,1,76,test1,1,0.43942189996596426,-50.0
24,cjx,m,19,r,1,(-172.20000000000002, 2.1088417881317425e-14),25,-7,13,yes,x,5,x,0.5695382000412792,1,77,test1,1,0.5696489999536425,-52.0
24,cjx,m,19,r,1,(-3.163262682197613e-14, -172.20000000000002),27,-3,11,yes,x,5,m,0.8147171000018716,0,78,test1,1,0.8154774999711663,-48.0
24,cjx,m,19,r,1,(121.76378772032349, 121.76378772032349),22,7,3,no,m,6,m,0.7095961000304669,1,79,test1,1,0.7098447000607848,-48.0
24,cjx,m,19,r,1,(1.0544208940658713e-14, 172.20000000000002),23,-7,13,yes,x,5,x,0.4747029999271035,1,80,test1,1,0.47501549997832626,-52.0
24,cjx,m,19,r,1,(121.76378772032349, 121.76378772032349),22,-25,14,yes,x,5,x,0.39767020009458065,1,81,test1,1,0.39790110010653734,-70.0
24,cjx,m,19,r,1,(1.0544208940658713e-14, 172.20000000000002),23,7,3,yes,x,5,x,0.47544720000587404,1,82,test1,1,0.4758131999988109,-38.0
24,cjx,m,19,r,1,(-121.76378772032352, -121.76378772032348),26,-25,14,yes,x,5,x,0.3969318999443203,1,83,test1,1,0.3971276000374928,-70.0
24,cjx,m,19,r,1,(121.76378772032349, 121.76378772032349),22,25,4,yes,x,5,x,0.36702310002874583,1,84,test1,1,0.3673063999740407,-20.0
24,cjx,m,19,r,1,(121.76378772032346, -121.76378772032352),28,5,2,no,m,6,m,0.6715321999508888,1,85,test1,1,0.6716968999244273,-20.0
24,cjx,m,19,r,1,(-121.76378772032352, -121.76378772032348),26,25,4,no,m,6,m,0.8906983999768272,1,86,test1,1,0.8913254999788478,-20.0
24,cjx,m,19,r,1,(-3.163262682197613e-14, -172.20000000000002),27,-5,12,no,m,6,m,0.9149442999623716,1,87,test1,1,0.9150781999342144,-20.0
24,cjx,m,19,r,1,(-121.76378772032348, 121.76378772032349),24,-5,12,yes,x,5,x,0.567879999987781,1,88,test1,1,0.5690300000132993,-50.0
24,cjx,m,19,r,1,(121.76378772032346, -121.76378772032352),28,25,4,yes,x,5,x,0.40156480006407946,1,89,test1,1,0.40166870004031807,-20.0
24,cjx,m,19,r,1,(1.0544208940658713e-14, 172.20000000000002),23,5,2,yes,x,5,x,0.38284129998646677,1,90,test1,1,0.38294349994976074,-40.0
24,cjx,m,19,r,1,(-172.20000000000002, 2.1088417881317425e-14),25,-3,11,yes,x,5,x,0.9004168999381363,1,91,test1,1,0.900520300026983,-48.0
24,cjx,m,19,r,1,(-3.163262682197613e-14, -172.20000000000002),27,3,1,no,m,6,m,1.0104461000300944,1,92,test1,1,1.010663100052625,-48.0
24,cjx,m,19,r,1,(121.76378772032349, 121.76378772032349),22,-25,14,yes,x,5,x,0.3894697999348864,1,93,test1,1,0.3899245000211522,-70.0
24,cjx,m,19,r,1,(-3.163262682197613e-14, -172.20000000000002),27,3,1,yes,x,5,m,0.7102890000678599,0,94,test1,1,0.7103991000913084,-42.0
24,cjx,m,19,r,1,(1.0544208940658713e-14, 172.20000000000002),23,-7,13,no,m,6,m,0.649039400042966,1,95,test1,1,0.6492845999309793,-42.0
24,cjx,m,19,r,1,(-172.20000000000002, 2.1088417881317425e-14),25,3,1,no,m,6,m,0.4765840000472963,1,96,test1,1,0.476963400025852,-42.0
24,cjx,m,19,r,1,(1.0544208940658713e-14, 172.20000000000002),23,5,2,no,m,6,x,0.8555690000066534,0,1,test2,1,0.8556745999958366,-42.0
24,cjx,m,19,r,1,(121.76378772032346, -121.76378772032352),28,-3,11,yes,x,5,m,0.7783449999988079,0,2,test2,1,0.7786623999709263,-48.0
24,cjx,m,19,r,1,(-121.76378772032352, -121.76378772032348),26,-7,13,yes,x,5,x,0.5812456000130624,1,3,test2,1,0.581467300071381,-52.0
24,cjx,m,19,r,1,(1.0544208940658713e-14, 172.20000000000002),23,-7,13,yes,x,5,x,0.4306419000495225,1,4,test2,1,0.43077209999319166,-52.0
24,cjx,m,19,r,1,(-121.76378772032348, 121.76378772032349),24,7,3,yes,x,5,x,0.4397667000303045,1,5,test2,1,0.4399680000497028,-38.0
24,cjx,m,19,r,1,(121.76378772032349, 121.76378772032349),22,-3,11,yes,x,5,m,0.6732926999684423,0,6,test2,1,0.6733935000374913,-48.0
24,cjx,m,19,r,1,(-3.163262682197613e-14, -172.20000000000002),27,25,4,yes,x,5,x,0.4507334000663832,1,7,test2,1,0.45083820004947484,-20.0
24,cjx,m,19,r,1,(172.20000000000002, 0.0),21,-7,13,no,m,6,m,0.8073520000325516,1,8,test2,1,0.8075723999645561,-20.0
24,cjx,m,19,r,1,(121.76378772032349, 121.76378772032349),22,3,1,yes,x,5,x,0.8919495000736788,1,9,test2,1,0.8920986000448465,-42.0
24,cjx,m,19,r,1,(172.20000000000002, 0.0),21,-25,14,yes,x,5,x,0.45654460007790476,1,10,test2,1,0.45683389995247126,-70.0
24,cjx,m,19,r,1,(172.20000000000002, 0.0),21,5,2,no,m,6,m,0.765620700083673,1,11,test2,1,0.7657810999080539,-70.0
24,cjx,m,19,r,1,(172.20000000000002, 0.0),21,-7,13,yes,x,5,x,0.6658563999226317,1,12,test2,1,0.665991099900566,-52.0
24,cjx,m,19,r,1,(-121.76378772032348, 121.76378772032349),24,7,3,yes,x,5,x,0.6144703000318259,1,13,test2,1,0.6145762000232935,-38.0
24,cjx,m,19,r,1,(172.20000000000002, 0.0),21,-7,13,yes,x,5,x,0.5334918999578804,1,14,test2,1,0.5337261999957263,-52.0
24,cjx,m,19,r,1,(121.76378772032346, -121.76378772032352),28,-3,11,no,m,6,m,0.7540379000129178,1,15,test2,1,0.7542855000356212,-52.0
24,cjx,m,19,r,1,(121.76378772032346, -121.76378772032352),28,25,4,no,m,6,m,0.5443705000216141,1,16,test2,1,0.5446422999957576,-52.0
24,cjx,m,19,r,1,(-172.20000000000002, 2.1088417881317425e-14),25,-25,14,no,m,6,m,0.7065304000861943,1,17,test2,1,0.7068026999477297,-52.0
24,cjx,m,19,r,1,(1.0544208940658713e-14, 172.20000000000002),23,5,2,yes,x,5,x,0.6414288999512792,1,18,test2,1,0.6417453999165446,-40.0
24,cjx,m,19,r,1,(1.0544208940658713e-14, 172.20000000000002),23,3,1,yes,x,5,x,0.5740444000111893,1,19,test2,1,0.5742936000460759,-42.0
24,cjx,m,19,r,1,(-121.76378772032348, 121.76378772032349),24,-5,12,no,m,6,m,0.512998899910599,1,20,test2,1,0.5132916999282315,-42.0
24,cjx,m,19,r,1,(121.76378772032349, 121.76378772032349),22,-7,13,no,m,6,m,0.5333067000610754,1,21,test2,1,0.533818700001575,-42.0
24,cjx,m,19,r,1,(-121.76378772032348, 121.76378772032349),24,5,2,no,m,6,m,0.5487472999375314,1,22,test2,1,0.5491068999981508,-42.0
24,cjx,m,19,r,1,(-121.76378772032352, -121.76378772032348),26,25,4,yes,x,5,x,0.39476119994651526,1,23,test2,1,0.39522279996890575,-20.0
24,cjx,m,19,r,1,(-121.76378772032352, -121.76378772032348),26,-25,14,no,m,6,m,0.4825784999411553,1,24,test2,1,0.48270839999895543,-20.0
24,cjx,m,19,r,1,(-3.163262682197613e-14, -172.20000000000002),27,-3,11,no,m,6,m,0.6215538000687957,1,25,test2,1,0.6216544000199065,-20.0
24,cjx,m,19,r,1,(-3.163262682197613e-14, -172.20000000000002),27,-25,14,yes,x,5,x,0.3650934000033885,1,26,test2,1,0.36519360006786883,-70.0
24,cjx,m,19,r,1,(-3.163262682197613e-14, -172.20000000000002),27,-7,13,yes,x,5,m,0.510589100071229,0,27,test2,1,0.5108275000238791,-52.0
24,cjx,m,19,r,1,(-121.76378772032348, 121.76378772032349),24,25,4,yes,x,5,x,0.4237959000747651,1,28,test2,1,0.42409129999578,-20.0
24,cjx,m,19,r,1,(121.76378772032349, 121.76378772032349),22,-7,13,yes,x,5,x,0.5754388000350446,1,29,test2,1,0.5757543999934569,-52.0
24,cjx,m,19,r,1,(121.76378772032349, 121.76378772032349),22,7,3,yes,x,5,x,0.5094528999179602,1,30,test2,1,0.5096649999031797,-38.0
24,cjx,m,19,r,1,(172.20000000000002, 0.0),21,25,4,yes,x,5,x,0.4394287000177428,1,31,test2,1,0.43962580000516027,-20.0
24,cjx,m,19,r,1,(-121.76378772032348, 121.76378772032349),24,-25,14,no,m,6,m,0.5406841000076383,1,32,test2,1,0.5412458999780938,-20.0
24,cjx,m,19,r,1,(121.76378772032349, 121.76378772032349),22,3,1,no,m,6,m,0.5171634999569505,1,33,test2,1,0.5172811000375077,-20.0
24,cjx,m,19,r,1,(121.76378772032346, -121.76378772032352),28,-7,13,no,m,6,m,0.6078034000238404,1,34,test2,1,0.6081448000622913,-20.0
24,cjx,m,19,r,1,(121.76378772032346, -121.76378772032352),28,-25,14,yes,x,5,x,0.3997397000202909,1,35,test2,1,0.3999351999955252,-70.0
24,cjx,m,19,r,1,(-121.76378772032352, -121.76378772032348),26,5,2,yes,x,5,x,0.5667968000052497,1,36,test2,1,0.5674222999950871,-40.0
24,cjx,m,19,r,1,(121.76378772032346, -121.76378772032352),28,7,3,no,m,6,m,0.6618829999351874,1,37,test2,1,0.6620392999611795,-40.0
24,cjx,m,19,r,1,(121.76378772032349, 121.76378772032349),22,5,2,yes,x,5,m,0.5243027999531478,0,38,test2,1,0.5244081999408081,-40.0
24,cjx,m,19,r,1,(1.0544208940658713e-14, 172.20000000000002),23,-25,14,yes,x,5,x,0.4465656999964267,1,39,test2,1,0.44671130005735904,-70.0
24,cjx,m,19,r,1,(172.20000000000002, 0.0),21,3,1,yes,x,5,m,0.5733944999519736,0,40,test2,1,0.5735009999480098,-42.0
24,cjx,m,19,r,1,(-172.20000000000002, 2.1088417881317425e-14),25,-3,11,no,m,6,m,0.8324836000101641,1,41,test2,1,0.8326913999626413,-42.0
24,cjx,m,19,r,1,(121.76378772032349, 121.76378772032349),22,5,2,no,m,6,m,0.5007915999740362,1,42,test2,1,0.5008968999609351,-42.0
24,cjx,m,19,r,1,(121.76378772032346, -121.76378772032352),28,3,1,yes,x,5,m,0.510990499984473,0,43,test2,1,0.5113203999353573,-42.0
24,cjx,m,19,r,1,(-121.76378772032348, 121.76378772032349),24,5,2,yes,x,5,x,0.5030969000654295,1,44,test2,1,0.5032250001095235,-40.0
24,cjx,m,19,r,1,(-121.76378772032352, -121.76378772032348),26,25,4,yes,x,5,x,0.48749229998793453,1,45,test2,1,0.4878845999483019,-20.0
24,cjx,m,19,r,1,(1.0544208940658713e-14, 172.20000000000002),23,-3,11,yes,x,5,x,0.45686190004926175,1,46,test2,1,0.4570704000070691,-48.0
24,cjx,m,19,r,1,(-3.163262682197613e-14, -172.20000000000002),27,-7,13,yes,x,5,x,0.5250105999875814,1,47,test2,1,0.525116499979049,-52.0
24,cjx,m,19,r,1,(-121.76378772032352, -121.76378772032348),26,3,1,yes,x,5,m,0.9486001000041142,0,48,test2,1,0.9488101000897586,-42.0
24,cjx,m,19,r,1,(172.20000000000002, 0.0),21,25,4,yes,x,5,x,0.4843089999631047,1,49,test2,1,0.485180199961178,-20.0
24,cjx,m,19,r,1,(-121.76378772032352, -121.76378772032348),26,5,2,no,m,6,m,0.7450797000201419,1,50,test2,1,0.7455473999725655,-20.0
24,cjx,m,19,r,1,(-121.76378772032352, -121.76378772032348),26,-7,13,no,m,6,m,0.7469236999750137,1,51,test2,1,0.7470789999933913,-20.0
24,cjx,m,19,r,1,(-172.20000000000002, 2.1088417881317425e-14),25,25,4,yes,x,5,x,0.42779370001517236,1,52,test2,1,0.42799980007112026,-20.0
24,cjx,m,19,r,1,(-172.20000000000002, 2.1088417881317425e-14),25,-25,14,yes,x,5,x,0.42028449999634176,1,53,test2,1,0.4205169000197202,-70.0
24,cjx,m,19,r,1,(1.0544208940658713e-14, 172.20000000000002),23,-5,12,yes,x,5,x,0.4244701999705285,1,54,test2,1,0.4248222999740392,-50.0
24,cjx,m,19,r,1,(-3.163262682197613e-14, -172.20000000000002),27,5,2,yes,x,5,x,0.7789739000145346,1,55,test2,1,0.7791165000526235,-40.0
24,cjx,m,19,r,1,(1.0544208940658713e-14, 172.20000000000002),23,-25,14,no,m,6,m,0.7873609999660403,1,56,test2,1,0.7876832999754697,-40.0
24,cjx,m,19,r,1,(-121.76378772032348, 121.76378772032349),24,-5,12,yes,x,5,x,0.5865443999646232,1,57,test2,1,0.5869288999820128,-50.0
24,cjx,m,19,r,1,(-121.76378772032352, -121.76378772032348),26,7,3,no,m,6,m,0.6027105998946354,1,58,test2,1,0.6029489000793546,-50.0
24,cjx,m,19,r,1,(121.76378772032346, -121.76378772032352),28,-7,13,yes,x,5,m,0.4976445999927819,0,59,test2,1,0.4977550000185147,-52.0
24,cjx,m,19,r,1,(-121.76378772032352, -121.76378772032348),26,-5,12,yes,x,5,x,0.6074909999733791,1,60,test2,1,0.6077690999954939,-50.0
24,cjx,m,19,r,1,(-172.20000000000002, 2.1088417881317425e-14),25,7,3,no,m,6,m,0.6198338000103831,1,61,test2,1,0.6199306000489742,-50.0
24,cjx,m,19,r,1,(-121.76378772032348, 121.76378772032349),24,5,2,yes,x,5,x,0.4558666000375524,1,62,test2,1,0.4561350999865681,-40.0
24,cjx,m,19,r,1,(121.76378772032346, -121.76378772032352),28,-3,11,yes,x,5,x,0.7388173000654206,1,63,test2,1,0.7389363000402227,-48.0
24,cjx,m,19,r,1,(121.76378772032346, -121.76378772032352),28,3,1,no,m,6,m,0.6257317999843508,1,64,test2,1,0.6260704000014812,-48.0
24,cjx,m,19,r,1,(-121.76378772032352, -121.76378772032348),26,-25,14,yes,x,5,x,0.4597554000793025,1,65,test2,1,0.46031580003909767,-70.0
24,cjx,m,19,r,1,(-121.76378772032348, 121.76378772032349),24,3,1,no,m,6,m,0.7116503999568522,1,66,test2,1,0.7118737000273541,-70.0
24,cjx,m,19,r,1,(172.20000000000002, 0.0),21,3,1,no,m,6,m,0.5511180000612512,1,67,test2,1,0.5513553998898715,-70.0
24,cjx,m,19,r,1,(121.76378772032346, -121.76378772032352),28,7,3,yes,x,5,x,0.8394286999246106,1,68,test2,1,0.8395308000035584,-38.0
24,cjx,m,19,r,1,(-3.163262682197613e-14, -172.20000000000002),27,-5,12,yes,x,5,x,0.4757589999353513,1,69,test2,1,0.47596860001794994,-50.0
24,cjx,m,19,r,1,(121.76378772032346, -121.76378772032352),28,5,2,yes,x,5,x,0.6156613000202924,1,70,test2,1,0.6159608999732882,-40.0
24,cjx,m,19,r,1,(-121.76378772032348, 121.76378772032349),24,25,4,yes,x,5,x,0.3979795000050217,1,71,test2,1,0.39820180006790906,-20.0
24,cjx,m,19,r,1,(-121.76378772032348, 121.76378772032349),24,-7,13,no,m,6,m,0.5551242999499664,1,72,test2,1,0.555234800092876,-20.0
24,cjx,m,19,r,1,(121.76378772032346, -121.76378772032352),28,-7,13,yes,x,5,x,0.4687580999452621,1,73,test2,1,0.46893390000332147,-52.0
24,cjx,m,19,r,1,(121.76378772032346, -121.76378772032352),28,-5,12,yes,x,5,x,0.4056415999075398,1,74,test2,1,0.4057479000184685,-50.0
24,cjx,m,19,r,1,(-3.163262682197613e-14, -172.20000000000002),27,5,2,no,m,6,m,0.5762234999565408,1,75,test2,1,0.5764755000127479,-50.0
24,cjx,m,19,r,1,(172.20000000000002, 0.0),21,-25,14,yes,x,5,x,0.37448009999934584,1,76,test2,1,0.37458599999081343,-70.0
24,cjx,m,19,r,1,(-3.163262682197613e-14, -172.20000000000002),27,25,4,no,m,6,m,0.5923002000199631,1,77,test2,1,0.5926402000477538,-70.0
24,cjx,m,19,r,1,(-121.76378772032352, -121.76378772032348),26,-5,12,yes,x,5,x,0.47932469996158034,1,78,test2,1,0.47946009994484484,-50.0
24,cjx,m,19,r,1,(172.20000000000002, 0.0),21,7,3,yes,x,5,x,0.527332300087437,1,79,test2,1,0.52791950001847,-38.0
24,cjx,m,19,r,1,(-121.76378772032352, -121.76378772032348),26,-7,13,yes,x,5,x,0.46039520006161183,1,80,test2,1,0.46087780001107603,-52.0
24,cjx,m,19,r,1,(172.20000000000002, 0.0),21,-3,11,yes,x,5,x,1.0959106999216601,1,81,test2,1,1.0960352999391034,-48.0
24,cjx,m,19,r,1,(-172.20000000000002, 2.1088417881317425e-14),25,-5,12,yes,x,5,x,0.49038329999893904,1,82,test2,1,0.49048659997060895,-50.0
24,cjx,m,19,r,1,(172.20000000000002, 0.0),21,-5,12,yes,x,5,x,0.47079060005489737,1,83,test2,1,0.4709967999951914,-50.0
24,cjx,m,19,r,1,(1.0544208940658713e-14, 172.20000000000002),23,-25,14,yes,x,5,x,0.4105699999490753,1,84,test2,1,0.410691799945198,-70.0
24,cjx,m,19,r,1,(-3.163262682197613e-14, -172.20000000000002),27,-3,11,yes,x,5,m,1.0307861999608576,0,85,test2,1,1.030916800023988,-48.0
24,cjx,m,19,r,1,(1.0544208940658713e-14, 172.20000000000002),23,-5,12,no,m,6,m,0.5653188000433147,1,86,test2,1,0.5657754000276327,-48.0
24,cjx,m,19,r,1,(-172.20000000000002, 2.1088417881317425e-14),25,-25,14,yes,x,5,x,0.5338646000018343,1,87,test2,1,0.5340982000343502,-70.0
24,cjx,m,19,r,1,(1.0544208940658713e-14, 172.20000000000002),23,25,4,no,m,6,m,0.6851265000877902,1,88,test2,1,0.6852327000815421,-70.0
24,cjx,m,19,r,1,(-121.76378772032352, -121.76378772032348),26,-3,11,yes,x,5,x,0.6535702999681234,1,89,test2,1,0.6536925999680534,-48.0
24,cjx,m,19,r,1,(1.0544208940658713e-14, 172.20000000000002),23,25,4,yes,x,5,x,0.4370848999824375,1,90,test2,1,0.43729639996308833,-20.0
24,cjx,m,19,r,1,(-172.20000000000002, 2.1088417881317425e-14),25,25,4,yes,x,5,x,0.40132469998206943,1,91,test2,1,0.4016980999149382,-20.0
24,cjx,m,19,r,1,(-3.163262682197613e-14, -172.20000000000002),27,-5,12,yes,x,5,x,0.7048652999801561,1,92,test2,1,0.7049727999838069,-50.0
24,cjx,m,19,r,1,(121.76378772032349, 121.76378772032349),22,7,3,yes,x,5,x,0.429738299921155,1,93,test2,1,0.42984330002218485,-38.0
24,cjx,m,19,r,1,(-3.163262682197613e-14, -172.20000000000002),27,25,4,yes,x,5,x,0.36261960002593696,1,94,test2,1,0.36284910002723336,-20.0
24,cjx,m,19,r,1,(-121.76378772032348, 121.76378772032349),24,3,1,yes,x,5,x,0.5693481999915093,1,95,test2,1,0.5695416000671685,-42.0
24,cjx,m,19,r,1,(-172.20000000000002, 2.1088417881317425e-14),25,-7,13,yes,x,5,x,0.4853468000655994,1,96,test2,1,0.4854471000144258,-52.0
24,cjx,m,19,r,1,(-121.76378772032348, 121.76378772032349),24,25,4,no,m,6,m,0.7529575999360532,1,1,test1,2,0.7535736999707296,-52.0
24,cjx,m,19,r,1,(121.76378772032346, -121.76378772032352),28,25,4,yes,x,5,x,0.34486060007475317,1,2,test1,2,0.3450237000361085,-20.0
24,cjx,m,19,r,1,(1.0544208940658713e-14, 172.20000000000002),23,3,1,yes,x,5,m,0.6853193999268115,0,3,test1,2,0.6855445000110194,-42.0
24,cjx,m,19,r,1,(-172.20000000000002, 2.1088417881317425e-14),25,25,4,no,m,6,m,0.943245799979195,1,4,test1,2,0.9434025000082329,-42.0
24,cjx,m,19,r,1,(121.76378772032346, -121.76378772032352),28,-25,14,yes,x,5,x,0.4413768999511376,1,5,test1,2,0.4415379000129178,-70.0
24,cjx,m,19,r,1,(121.76378772032349, 121.76378772032349),22,25,4,no,m,6,m,0.6328803999349475,1,6,test1,2,0.6331681000301614,-70.0
24,cjx,m,19,r,1,(1.0544208940658713e-14, 172.20000000000002),23,-3,11,yes,x,5,x,0.6456561000086367,1,7,test1,2,0.6458893999224529,-48.0
24,cjx,m,19,r,1,(-121.76378772032348, 121.76378772032349),24,7,3,no,m,6,m,0.5649294999893755,1,8,test1,2,0.5650549000129104,-48.0
24,cjx,m,19,r,1,(121.76378772032349, 121.76378772032349),22,-25,14,no,m,6,m,0.518486600019969,1,9,test1,2,0.5186101000290364,-48.0
24,cjx,m,19,r,1,(121.76378772032349, 121.76378772032349),22,-7,13,yes,x,5,x,0.5144665000261739,1,10,test1,2,0.5151062000077218,-52.0
24,cjx,m,19,r,1,(121.76378772032346, -121.76378772032352),28,3,1,yes,x,5,m,0.613888300023973,0,11,test1,2,0.6139883000869304,-42.0
24,cjx,m,19,r,1,(-3.163262682197613e-14, -172.20000000000002),27,-25,14,yes,x,5,x,0.45342029992025346,1,12,test1,2,0.45383519993629307,-70.0
24,cjx,m,19,r,1,(1.0544208940658713e-14, 172.20000000000002),23,3,1,no,m,6,m,0.5212609999580309,1,13,test1,2,0.5214775000931695,-70.0
24,cjx,m,19,r,1,(-3.163262682197613e-14, -172.20000000000002),27,7,3,yes,x,5,x,0.5447779999813065,1,14,test1,2,0.5449936999939382,-38.0
24,cjx,m,19,r,1,(121.76378772032346, -121.76378772032352),28,-5,12,no,m,6,m,0.5909168999642134,1,15,test1,2,0.5911332999821752,-38.0
24,cjx,m,19,r,1,(-3.163262682197613e-14, -172.20000000000002),27,3,1,yes,x,5,x,0.8079831999493763,1,16,test1,2,0.8082011999795213,-42.0
24,cjx,m,19,r,1,(-3.163262682197613e-14, -172.20000000000002),27,5,2,yes,x,5,x,0.5417287999298424,1,17,test1,2,0.5418844999512658,-40.0
24,cjx,m,19,r,1,(-3.163262682197613e-14, -172.20000000000002),27,7,3,yes,x,5,x,0.38118330005090684,1,18,test1,2,0.38136990007478744,-38.0
24,cjx,m,19,r,1,(-172.20000000000002, 2.1088417881317425e-14),25,7,3,yes,x,5,x,0.4297417999478057,1,19,test1,2,0.4301504000322893,-38.0
24,cjx,m,19,r,1,(172.20000000000002, 0.0),21,-3,11,no,m,6,m,0.654733799980022,1,20,test1,2,0.6548577999928966,-38.0
24,cjx,m,19,r,1,(-172.20000000000002, 2.1088417881317425e-14),25,-5,12,no,m,6,m,0.5987392999231815,1,21,test1,2,0.5989122999599203,-38.0
24,cjx,m,19,r,1,(121.76378772032349, 121.76378772032349),22,5,2,yes,x,5,x,0.7049812999321148,1,22,test1,2,0.7051136000081897,-40.0
24,cjx,m,19,r,1,(172.20000000000002, 0.0),21,7,3,no,m,6,m,0.7236518999561667,1,23,test1,2,0.7237794999964535,-40.0
24,cjx,m,19,r,1,(121.76378772032349, 121.76378772032349),22,-3,11,no,m,6,m,0.5008462000405416,1,24,test1,2,0.5012540000025183,-40.0
24,cjx,m,19,r,1,(121.76378772032349, 121.76378772032349),22,3,1,yes,x,5,x,0.9549664000514895,1,25,test1,2,0.9550753000658005,-42.0
24,cjx,m,19,r,1,(121.76378772032349, 121.76378772032349),22,25,4,yes,x,5,x,0.39343130006454885,1,26,test1,2,0.3936625000787899,-20.0
24,cjx,m,19,r,1,(-121.76378772032352, -121.76378772032348),26,3,1,yes,x,5,m,0.9719621000112966,0,27,test1,2,0.9720667999936268,-42.0
24,cjx,m,19,r,1,(172.20000000000002, 0.0),21,5,2,yes,x,5,x,0.8250146000646055,1,28,test1,2,0.8256825000280514,-40.0
24,cjx,m,19,r,1,(-172.20000000000002, 2.1088417881317425e-14),25,-7,13,no,m,6,m,0.5990643999539316,1,29,test1,2,0.5994752000551671,-40.0
24,cjx,m,19,r,1,(-172.20000000000002, 2.1088417881317425e-14),25,7,3,yes,x,5,x,0.42107599996961653,1,30,test1,2,0.4213811999652535,-38.0
24,cjx,m,19,r,1,(121.76378772032346, -121.76378772032352),28,5,2,yes,x,5,x,0.5633111000061035,1,31,test1,2,0.5636735999723896,-40.0
24,cjx,m,19,r,1,(-172.20000000000002, 2.1088417881317425e-14),25,5,2,yes,x,5,x,0.4879396000178531,1,32,test1,2,0.4887172000017017,-40.0
24,cjx,m,19,r,1,(-121.76378772032352, -121.76378772032348),26,3,1,no,m,6,m,0.60519219993148,1,33,test1,2,0.6057663999963552,-40.0
24,cjx,m,19,r,1,(-172.20000000000002, 2.1088417881317425e-14),25,3,1,yes,x,5,x,0.5775476000271738,1,34,test1,2,0.5777613000245765,-42.0
24,cjx,m,19,r,1,(-121.76378772032348, 121.76378772032349),24,-3,11,yes,x,5,m,1.044770999928005,0,35,test1,2,1.0451012999983504,-48.0
24,cjx,m,19,r,1,(-121.76378772032348, 121.76378772032349),24,-3,11,no,m,6,m,0.7316397000104189,1,36,test1,2,0.7318321999628097,-48.0
24,cjx,m,19,r,1,(-121.76378772032348, 121.76378772032349),24,-7,13,yes,x,5,x,0.5057684000348672,1,37,test1,2,0.5060052000917494,-52.0
24,cjx,m,19,r,1,(-121.76378772032352, -121.76378772032348),26,7,3,yes,x,5,x,0.7598289001034573,1,38,test1,2,0.7601006999611855,-38.0
24,cjx,m,19,r,1,(-121.76378772032348, 121.76378772032349),24,-3,11,yes,x,5,x,0.8277993999654427,1,39,test1,2,0.8280334000010043,-48.0
24,cjx,m,19,r,1,(-3.163262682197613e-14, -172.20000000000002),27,7,3,no,m,6,m,0.5672127000289038,1,40,test1,2,0.5673776000039652,-48.0
24,cjx,m,19,r,1,(-121.76378772032348, 121.76378772032349),24,-7,13,yes,x,5,x,0.43127270007971674,1,41,test1,2,0.4313745000399649,-52.0
24,cjx,m,19,r,1,(172.20000000000002, 0.0),21,5,2,yes,x,5,x,0.5665694000199437,1,42,test1,2,0.566673900000751,-40.0
24,cjx,m,19,r,1,(-172.20000000000002, 2.1088417881317425e-14),25,-5,12,yes,x,5,x,0.45132979995105416,1,43,test1,2,0.4515457999659702,-50.0
24,cjx,m,19,r,1,(-172.20000000000002, 2.1088417881317425e-14),25,3,1,yes,x,5,x,0.46924240002408624,1,44,test1,2,0.4693459999980405,-42.0
24,cjx,m,19,r,1,(172.20000000000002, 0.0),21,-5,12,yes,x,5,x,0.48506259999703616,1,45,test1,2,0.4853517999872565,-50.0
24,cjx,m,19,r,1,(-172.20000000000002, 2.1088417881317425e-14),25,5,2,no,m,6,m,0.8682011000346392,1,46,test1,2,0.8683393999235705,-50.0
24,cjx,m,19,r,1,(172.20000000000002, 0.0),21,3,1,yes,x,5,x,0.8410570999840274,1,47,test1,2,0.8411550000309944,-42.0
24,cjx,m,19,r,1,(172.20000000000002, 0.0),21,-3,11,yes,x,5,x,0.5400222000898793,1,48,test1,2,0.5403112000785768,-48.0
24,cjx,m,19,r,1,(121.76378772032349, 121.76378772032349),22,-5,12,no,m,6,m,0.6578913000412285,1,49,test1,2,0.657998500042595,-48.0
24,cjx,m,19,r,1,(-3.163262682197613e-14, -172.20000000000002),27,-25,14,no,m,6,m,0.629635600023903,1,50,test1,2,0.629762600059621,-48.0
24,cjx,m,19,r,1,(121.76378772032346, -121.76378772032352),28,7,3,yes,x,5,x,0.4722561000380665,1,51,test1,2,0.4724405000451952,-38.0
24,cjx,m,19,r,1,(-3.163262682197613e-14, -172.20000000000002),27,-7,13,no,m,6,m,0.5329601999837905,1,52,test1,2,0.5331918000010774,-38.0
24,cjx,m,19,r,1,(-172.20000000000002, 2.1088417881317425e-14),25,-3,11,yes,x,5,x,0.6725136999739334,1,53,test1,2,0.6727479000110179,-48.0
24,cjx,m,19,r,1,(-121.76378772032352, -121.76378772032348),26,-5,12,no,m,6,m,0.5530362999998033,1,54,test1,2,0.5531619999092072,-48.0
24,cjx,m,19,r,1,(1.0544208940658713e-14, 172.20000000000002),23,25,4,yes,x,5,x,0.408696600003168,1,55,test1,2,0.40932219999376684,-20.0
24,cjx,m,19,r,1,(-172.20000000000002, 2.1088417881317425e-14),25,5,2,yes,x,5,x,0.4746662999968976,1,56,test1,2,0.47477279999293387,-40.0
24,cjx,m,19,r,1,(121.76378772032349, 121.76378772032349),22,-5,12,yes,x,5,x,0.6053461999399588,1,57,test1,2,0.6054455999983475,-50.0
24,cjx,m,19,r,1,(172.20000000000002, 0.0),21,7,3,yes,x,5,x,0.3703673999989405,1,58,test1,2,0.3707337999949232,-38.0
24,cjx,m,19,r,1,(-121.76378772032352, -121.76378772032348),26,-3,11,yes,x,5,x,0.6700861999997869,1,59,test1,2,0.6701864000642672,-48.0
24,cjx,m,19,r,1,(-121.76378772032348, 121.76378772032349),24,-25,14,yes,x,5,x,0.5012625999515876,1,60,test1,2,0.5013785000192001,-70.0
24,cjx,m,19,r,1,(-121.76378772032352, -121.76378772032348),26,5,2,yes,x,5,x,0.7521235999884084,1,61,test1,2,0.7526349000399932,-40.0
24,cjx,m,19,r,1,(1.0544208940658713e-14, 172.20000000000002),23,-5,12,yes,x,5,x,0.422454799991101,1,62,test1,2,0.4227445999858901,-50.0
24,cjx,m,19,r,1,(-121.76378772032348, 121.76378772032349),24,-25,14,yes,x,5,x,0.41816759994253516,1,63,test1,2,0.4182682998944074,-70.0
24,cjx,m,19,r,1,(172.20000000000002, 0.0),21,-5,12,no,m,6,m,0.5244336000178009,1,64,test1,2,0.5248835000675172,-70.0
24,cjx,m,19,r,1,(121.76378772032349, 121.76378772032349),22,-3,11,yes,x,5,x,0.6322777998866513,1,65,test1,2,0.6326236999593675,-48.0
24,cjx,m,19,r,1,(1.0544208940658713e-14, 172.20000000000002),23,7,3,no,m,6,m,0.6562662000069395,1,66,test1,2,0.6563718999968842,-48.0
24,cjx,m,19,r,1,(1.0544208940658713e-14, 172.20000000000002),23,7,3,yes,x,5,x,0.4467657000059262,1,67,test1,2,0.44704250001814216,-38.0
24,cjx,m,19,r,1,(172.20000000000002, 0.0),21,25,4,no,m,6,m,0.6835553999990225,1,68,test1,2,0.6838615000015125,-38.0
24,cjx,m,19,r,1,(121.76378772032346, -121.76378772032352),28,-5,12,yes,x,5,x,0.6489635999314487,1,69,test1,2,0.6493180000688881,-50.0
24,cjx,m,19,r,1,(172.20000000000002, 0.0),21,-25,14,no,m,6,m,0.4611397000262514,1,70,test1,2,0.4614319000393152,-50.0
24,cjx,m,19,r,1,(-121.76378772032352, -121.76378772032348),26,-3,11,no,m,6,m,0.711342699942179,1,71,test1,2,0.7114740000106394,-50.0
24,cjx,m,19,r,1,(-121.76378772032348, 121.76378772032349),24,3,1,yes,x,5,x,0.6420199999120086,1,72,test1,2,0.6426271999953315,-42.0
24,cjx,m,19,r,1,(1.0544208940658713e-14, 172.20000000000002),23,-3,11,no,m,6,m,0.7009493000805378,1,73,test1,2,0.701305800001137,-42.0
24,cjx,m,19,r,1,(121.76378772032346, -121.76378772032352),28,-25,14,no,m,6,m,0.6282571000047028,1,74,test1,2,0.6283652000129223,-42.0
24,cjx,m,19,r,1,(-121.76378772032352, -121.76378772032348),26,7,3,yes,x,5,x,0.47769379999954253,1,75,test1,2,0.47793569997884333,-38.0
24,cjx,m,19,r,1,(121.76378772032349, 121.76378772032349),22,-5,12,yes,x,5,x,0.548833700013347,1,76,test1,2,0.5489713000133634,-50.0
24,cjx,m,19,r,1,(-172.20000000000002, 2.1088417881317425e-14),25,-7,13,yes,x,5,x,0.4252286999253556,1,77,test1,2,0.42535230005159974,-52.0
24,cjx,m,19,r,1,(-3.163262682197613e-14, -172.20000000000002),27,-3,11,yes,x,5,m,0.5827461999142542,0,78,test1,2,0.5830550999380648,-48.0
24,cjx,m,19,r,1,(121.76378772032349, 121.76378772032349),22,7,3,no,m,6,m,0.5713249000255018,1,79,test1,2,0.571540700038895,-48.0
24,cjx,m,19,r,1,(1.0544208940658713e-14, 172.20000000000002),23,-7,13,yes,x,5,x,0.46025740006007254,1,80,test1,2,0.4604202000191435,-52.0
24,cjx,m,19,r,1,(121.76378772032349, 121.76378772032349),22,-25,14,yes,x,5,x,0.5567026999779046,1,81,test1,2,0.5568536999635398,-70.0
24,cjx,m,19,r,1,(1.0544208940658713e-14, 172.20000000000002),23,7,3,yes,x,5,x,0.5303038000129163,1,82,test1,2,0.5305243999464437,-38.0
24,cjx,m,19,r,1,(-121.76378772032352, -121.76378772032348),26,-25,14,yes,x,5,x,0.4605313999345526,1,83,test1,2,0.46080869995057583,-70.0
24,cjx,m,19,r,1,(121.76378772032349, 121.76378772032349),22,25,4,yes,x,5,x,0.45290029991883785,1,84,test1,2,0.4530205999035388,-20.0
24,cjx,m,19,r,1,(121.76378772032346, -121.76378772032352),28,5,2,no,m,6,m,0.9568831999786198,1,85,test1,2,0.9573265999788418,-20.0
24,cjx,m,19,r,1,(-121.76378772032352, -121.76378772032348),26,25,4,no,m,6,m,0.5405445999931544,1,86,test1,2,0.5406476999633014,-20.0
24,cjx,m,19,r,1,(-3.163262682197613e-14, -172.20000000000002),27,-5,12,no,m,6,m,0.7770628998987377,1,87,test1,2,0.7773416000418365,-20.0
24,cjx,m,19,r,1,(-121.76378772032348, 121.76378772032349),24,-5,12,yes,x,5,x,0.5744577000150457,1,88,test1,2,0.5745586999692023,-50.0
24,cjx,m,19,r,1,(121.76378772032346, -121.76378772032352),28,25,4,yes,x,5,x,0.3957084999419749,1,89,test1,2,0.3958365999860689,-20.0
24,cjx,m,19,r,1,(1.0544208940658713e-14, 172.20000000000002),23,5,2,yes,x,5,x,0.4983574999496341,1,90,test1,2,0.4991926000220701,-40.0
24,cjx,m,19,r,1,(-172.20000000000002, 2.1088417881317425e-14),25,-3,11,yes,x,5,m,0.6305851000361145,0,91,test1,2,0.6307094000512734,-48.0
24,cjx,m,19,r,1,(-3.163262682197613e-14, -172.20000000000002),27,3,1,no,m,6,m,0.7233155999565497,1,92,test1,2,0.7234199000522494,-48.0
24,cjx,m,19,r,1,(121.76378772032349, 121.76378772032349),22,-25,14,yes,x,5,m,0.5259403999662027,0,93,test1,2,0.5262187999906018,-70.0
24,cjx,m,19,r,1,(-3.163262682197613e-14, -172.20000000000002),27,3,1,yes,x,5,m,0.6163928000023589,0,94,test1,2,0.6167570000980049,-42.0
24,cjx,m,19,r,1,(1.0544208940658713e-14, 172.20000000000002),23,-7,13,no,m,6,m,0.6673096999293193,1,95,test1,2,0.667519100010395,-42.0
24,cjx,m,19,r,1,(-172.20000000000002, 2.1088417881317425e-14),25,3,1,no,m,6,m,0.7052846000296995,1,96,test1,2,0.7053847000934184,-42.0
24,cjx,m,19,r,1,(1.0544208940658713e-14, 172.20000000000002),23,5,2,no,m,6,m,0.7611451999982819,1,1,test2,2,0.7616191999986768,-42.0
24,cjx,m,19,r,1,(121.76378772032346, -121.76378772032352),28,-3,11,yes,x,5,m,0.6817474999697879,0,2,test2,2,0.6818773000268266,-48.0
24,cjx,m,19,r,1,(-121.76378772032352, -121.76378772032348),26,-7,13,yes,x,5,x,0.6387924000155181,1,3,test2,2,0.639382699970156,-52.0
24,cjx,m,19,r,1,(1.0544208940658713e-14, 172.20000000000002),23,-7,13,yes,x,5,x,0.4230711000273004,1,4,test2,2,0.4233037999365479,-52.0
24,cjx,m,19,r,1,(-121.76378772032348, 121.76378772032349),24,7,3,yes,x,5,x,0.5234848000109196,1,5,test2,2,0.5235913000069559,-38.0
24,cjx,m,19,r,1,(121.76378772032349, 121.76378772032349),22,-3,11,yes,x,5,x,0.7510651000775397,1,6,test2,2,0.7513447999954224,-48.0
24,cjx,m,19,r,1,(-3.163262682197613e-14, -172.20000000000002),27,25,4,yes,x,5,x,0.44387809990439564,1,7,test2,2,0.4440722999861464,-20.0
24,cjx,m,19,r,1,(172.20000000000002, 0.0),21,-7,13,no,m,6,m,0.6725588999688625,1,8,test2,2,0.6729523000540212,-20.0
24,cjx,m,19,r,1,(121.76378772032349, 121.76378772032349),22,3,1,yes,x,5,m,0.5773376000579447,0,9,test2,2,0.5774607000639662,-42.0
24,cjx,m,19,r,1,(172.20000000000002, 0.0),21,-25,14,yes,x,5,m,0.45729629998095334,0,10,test2,2,0.45757580001372844,-70.0
24,cjx,m,19,r,1,(172.20000000000002, 0.0),21,5,2,no,m,6,m,0.8330254000611603,1,11,test2,2,0.833126200013794,-70.0
24,cjx,m,19,r,1,(172.20000000000002, 0.0),21,-7,13,yes,x,5,x,0.6458521999884397,1,12,test2,2,0.646050599985756,-52.0
24,cjx,m,19,r,1,(-121.76378772032348, 121.76378772032349),24,7,3,yes,x,5,x,0.3521879999898374,1,13,test2,2,0.35237039998173714,-38.0
24,cjx,m,19,r,1,(172.20000000000002, 0.0),21,-7,13,yes,x,5,x,0.5381201999261975,1,14,test2,2,0.5382265999214724,-52.0
24,cjx,m,19,r,1,(121.76378772032346, -121.76378772032352),28,-3,11,no,m,6,m,0.7491548999678344,1,15,test2,2,0.7493806999409571,-52.0
24,cjx,m,19,r,1,(121.76378772032346, -121.76378772032352),28,25,4,no,m,6,m,0.7880363999865949,1,16,test2,2,0.7882350999861956,-52.0
24,cjx,m,19,r,1,(-172.20000000000002, 2.1088417881317425e-14),25,-25,14,no,m,6,m,0.7350749000906944,1,17,test2,2,0.7351772000547498,-52.0
24,cjx,m,19,r,1,(1.0544208940658713e-14, 172.20000000000002),23,5,2,yes,x,5,x,0.5808347000274807,1,18,test2,2,0.581311900052242,-40.0
24,cjx,m,19,r,1,(1.0544208940658713e-14, 172.20000000000002),23,3,1,yes,x,5,m,0.9080759000498801,0,19,test2,2,0.9081945000216365,-42.0
24,cjx,m,19,r,1,(-121.76378772032348, 121.76378772032349),24,-5,12,no,m,6,m,0.7572283999761567,1,20,test2,2,0.7573314000619575,-42.0
24,cjx,m,19,r,1,(121.76378772032349, 121.76378772032349),22,-7,13,no,m,6,m,0.7691234999801964,1,21,test2,2,0.7694224000442773,-42.0
24,cjx,m,19,r,1,(-121.76378772032348, 121.76378772032349),24,5,2,no,m,6,m,0.7280798000283539,1,22,test2,2,0.7282005000161007,-42.0
24,cjx,m,19,r,1,(-121.76378772032352, -121.76378772032348),26,25,4,yes,x,5,x,0.4377067999448627,1,23,test2,2,0.4378323999699205,-20.0
24,cjx,m,19,r,1,(-121.76378772032352, -121.76378772032348),26,-25,14,no,m,6,m,0.5776748999487609,1,24,test2,2,0.5780070999171585,-20.0
24,cjx,m,19,r,1,(-3.163262682197613e-14, -172.20000000000002),27,-3,11,no,m,6,m,0.7651940999785438,1,25,test2,2,0.7658452999312431,-20.0
24,cjx,m,19,r,1,(-3.163262682197613e-14, -172.20000000000002),27,-25,14,yes,x,5,x,0.4362555000698194,1,26,test2,2,0.4363597999326885,-70.0
24,cjx,m,19,r,1,(-3.163262682197613e-14, -172.20000000000002),27,-7,13,yes,x,5,x,0.5551804000278935,1,27,test2,2,0.5552767999470234,-52.0
24,cjx,m,19,r,1,(-121.76378772032348, 121.76378772032349),24,25,4,yes,x,5,x,0.45290110004134476,1,28,test2,2,0.4530057000229135,-20.0
24,cjx,m,19,r,1,(121.76378772032349, 121.76378772032349),22,-7,13,yes,x,5,x,0.5101378000108525,1,29,test2,2,0.5103625999763608,-52.0
24,cjx,m,19,r,1,(121.76378772032349, 121.76378772032349),22,7,3,yes,x,5,x,0.4401730999816209,1,30,test2,2,0.4402726999251172,-38.0
24,cjx,m,19,r,1,(172.20000000000002, 0.0),21,25,4,yes,x,5,x,0.35745339991990477,1,31,test2,2,0.35772209998685867,-20.0
24,cjx,m,19,r,1,(-121.76378772032348, 121.76378772032349),24,-25,14,no,m,6,m,0.6263890999834985,1,32,test2,2,0.6269093999871984,-20.0
24,cjx,m,19,r,1,(121.76378772032349, 121.76378772032349),22,3,1,no,m,6,m,0.5116571999387816,1,33,test2,2,0.5121124000288546,-20.0
24,cjx,m,19,r,1,(121.76378772032346, -121.76378772032352),28,-7,13,no,m,6,m,0.5049524999922141,1,34,test2,2,0.5050516000483185,-20.0
24,cjx,m,19,r,1,(121.76378772032346, -121.76378772032352),28,-25,14,yes,x,5,x,0.4984679000917822,1,35,test2,2,0.49860950000584126,-70.0
24,cjx,m,19,r,1,(-121.76378772032352, -121.76378772032348),26,5,2,yes,x,5,m,0.7623195999767631,0,36,test2,2,0.7625043999869376,-40.0
24,cjx,m,19,r,1,(121.76378772032346, -121.76378772032352),28,7,3,no,m,6,m,0.9997586000245064,1,37,test2,2,1.000014299992472,-40.0
24,cjx,m,19,r,1,(121.76378772032349, 121.76378772032349),22,5,2,yes,x,5,x,0.5667838000226766,1,38,test2,2,0.5669284999603406,-40.0
24,cjx,m,19,r,1,(1.0544208940658713e-14, 172.20000000000002),23,-25,14,yes,x,5,x,0.48409599997103214,1,39,test2,2,0.4842271999223158,-70.0
24,cjx,m,19,r,1,(172.20000000000002, 0.0),21,3,1,yes,x,5,m,0.596839000005275,0,40,test2,2,0.5971923000179231,-42.0
24,cjx,m,19,r,1,(-172.20000000000002, 2.1088417881317425e-14),25,-3,11,no,m,6,m,0.8951153999660164,1,41,test2,2,0.8953066000249237,-42.0
24,cjx,m,19,r,1,(121.76378772032349, 121.76378772032349),22,5,2,no,m,6,m,0.7414322999538854,1,42,test2,2,0.7415594999911264,-42.0
24,cjx,m,19,r,1,(121.76378772032346, -121.76378772032352),28,3,1,yes,x,5,x,0.8322428999235854,1,43,test2,2,0.8324249000288546,-42.0
24,cjx,m,19,r,1,(-121.76378772032348, 121.76378772032349),24,5,2,yes,x,5,x,0.4231505999341607,1,44,test2,2,0.4232657999964431,-40.0
24,cjx,m,19,r,1,(-121.76378772032352, -121.76378772032348),26,25,4,yes,x,5,x,0.43722770002204925,1,45,test2,2,0.4373912999872118,-20.0
24,cjx,m,19,r,1,(1.0544208940658713e-14, 172.20000000000002),23,-3,11,yes,x,5,x,0.53161760000512,1,46,test2,2,0.5318233999423683,-48.0
24,cjx,m,19,r,1,(-3.163262682197613e-14, -172.20000000000002),27,-7,13,yes,x,5,x,0.40982129995245486,1,47,test2,2,0.41000380006153136,-52.0
24,cjx,m,19,r,1,(-121.76378772032352, -121.76378772032348),26,3,1,yes,x,5,x,0.4935577999567613,1,48,test2,2,0.49413460004143417,-42.0
24,cjx,m,19,r,1,(172.20000000000002, 0.0),21,25,4,yes,x,5,x,0.4258998000295833,1,49,test2,2,0.42600360000506043,-20.0
24,cjx,m,19,r,1,(-121.76378772032352, -121.76378772032348),26,5,2,no,m,6,m,0.7052209000103176,1,50,test2,2,0.7056236000498757,-20.0
24,cjx,m,19,r,1,(-121.76378772032352, -121.76378772032348),26,-7,13,no,m,6,m,0.5803474999265745,1,51,test2,2,0.5805017999373376,-20.0
24,cjx,m,19,r,1,(-172.20000000000002, 2.1088417881317425e-14),25,25,4,yes,x,5,x,0.3382965999189764,1,52,test2,2,0.33843989996239543,-20.0
24,cjx,m,19,r,1,(-172.20000000000002, 2.1088417881317425e-14),25,-25,14,yes,x,5,x,0.4114793000044301,1,53,test2,2,0.4117993999971077,-70.0
24,cjx,m,19,r,1,(1.0544208940658713e-14, 172.20000000000002),23,-5,12,yes,x,5,x,0.4525574001017958,1,54,test2,2,0.45283400011248887,-50.0
24,cjx,m,19,r,1,(-3.163262682197613e-14, -172.20000000000002),27,5,2,yes,x,5,x,0.4720856000203639,1,55,test2,2,0.4722963999956846,-40.0
24,cjx,m,19,r,1,(1.0544208940658713e-14, 172.20000000000002),23,-25,14,no,m,6,m,0.679095899919048,1,56,test2,2,0.6793097999179736,-40.0
24,cjx,m,19,r,1,(-121.76378772032348, 121.76378772032349),24,-5,12,yes,x,5,x,0.4113719000015408,1,57,test2,2,0.4115606000414118,-50.0
24,cjx,m,19,r,1,(-121.76378772032352, -121.76378772032348),26,7,3,no,m,6,m,0.5810938000213355,1,58,test2,2,0.581421900074929,-50.0
24,cjx,m,19,r,1,(121.76378772032346, -121.76378772032352),28,-7,13,yes,x,5,x,0.7724935000296682,1,59,test2,2,0.7725950999883935,-52.0
24,cjx,m,19,r,1,(-121.76378772032352, -121.76378772032348),26,-5,12,yes,x,5,x,0.5599271000828594,1,60,test2,2,0.560095600085333,-50.0
24,cjx,m,19,r,1,(-172.20000000000002, 2.1088417881317425e-14),25,7,3,no,m,6,m,0.5170540999388322,1,61,test2,2,0.5173438999336213,-50.0
24,cjx,m,19,r,1,(-121.76378772032348, 121.76378772032349),24,5,2,yes,x,5,x,0.4820017999736592,1,62,test2,2,0.4822548000374809,-40.0
24,cjx,m,19,r,1,(121.76378772032346, -121.76378772032352),28,-3,11,yes,x,5,x,0.551092499983497,1,63,test2,2,0.5511916000396013,-48.0
24,cjx,m,19,r,1,(121.76378772032346, -121.76378772032352),28,3,1,no,m,6,x,0.9414712000871077,0,64,test2,2,0.9417086000321433,-48.0
24,cjx,m,19,r,1,(-121.76378772032352, -121.76378772032348),26,-25,14,yes,x,5,x,0.4233946999302134,1,65,test2,2,0.42359260004013777,-70.0
24,cjx,m,19,r,1,(-121.76378772032348, 121.76378772032349),24,3,1,no,m,6,m,0.6950630999635905,1,66,test2,2,0.6952233999036252,-70.0
24,cjx,m,19,r,1,(172.20000000000002, 0.0),21,3,1,no,m,6,m,1.0440814000321552,1,67,test2,2,1.0443168999627233,-70.0
24,cjx,m,19,r,1,(121.76378772032346, -121.76378772032352),28,7,3,yes,x,5,x,0.538665600004606,1,68,test2,2,0.5387678000843152,-38.0
24,cjx,m,19,r,1,(-3.163262682197613e-14, -172.20000000000002),27,-5,12,yes,x,5,x,0.5794556000037119,1,69,test2,2,0.5795928000006825,-50.0
24,cjx,m,19,r,1,(121.76378772032346, -121.76378772032352),28,5,2,yes,x,5,x,0.5624924999428913,1,70,test2,2,0.5627760000061244,-40.0
24,cjx,m,19,r,1,(-121.76378772032348, 121.76378772032349),24,25,4,yes,x,5,x,0.4947299000341445,1,71,test2,2,0.4948343000141904,-20.0
24,cjx,m,19,r,1,(-121.76378772032348, 121.76378772032349),24,-7,13,no,m,6,m,0.5976940999971703,1,72,test2,2,0.5978731999639422,-20.0
24,cjx,m,19,r,1,(121.76378772032346, -121.76378772032352),28,-7,13,yes,x,5,x,0.5504796000896022,1,73,test2,2,0.5505852999631315,-52.0
24,cjx,m,19,r,1,(121.76378772032346, -121.76378772032352),28,-5,12,yes,x,5,x,0.6493569000158459,1,74,test2,2,0.6495186999673024,-50.0
24,cjx,m,19,r,1,(-3.163262682197613e-14, -172.20000000000002),27,5,2,no,m,6,m,0.6238928999518976,1,75,test2,2,0.6242155999643728,-50.0
24,cjx,m,19,r,1,(172.20000000000002, 0.0),21,-25,14,yes,x,5,x,0.5402388999937102,1,76,test2,2,0.5404720000224188,-70.0
24,cjx,m,19,r,1,(-3.163262682197613e-14, -172.20000000000002),27,25,4,no,m,6,m,0.709675999940373,1,77,test2,2,0.7097959999227896,-70.0
24,cjx,m,19,r,1,(-121.76378772032352, -121.76378772032348),26,-5,12,yes,x,5,x,0.4897014999296516,1,78,test2,2,0.4899676999775693,-50.0
24,cjx,m,19,r,1,(172.20000000000002, 0.0),21,7,3,yes,x,5,x,0.6094056000001729,1,79,test2,2,0.6097254999913275,-38.0
24,cjx,m,19,r,1,(-121.76378772032352, -121.76378772032348),26,-7,13,yes,x,5,x,0.6986761000007391,1,80,test2,2,0.6987752999411896,-52.0
24,cjx,m,19,r,1,(172.20000000000002, 0.0),21,-3,11,yes,x,5,x,0.7501571999164298,1,81,test2,2,0.7503356999950483,-48.0
24,cjx,m,19,r,1,(-172.20000000000002, 2.1088417881317425e-14),25,-5,12,yes,x,5,x,0.6191268999828026,1,82,test2,2,0.6193639999255538,-50.0
24,cjx,m,19,r,1,(172.20000000000002, 0.0),21,-5,12,yes,x,5,x,0.518583600060083,1,83,test2,2,0.5188144000712782,-50.0
24,cjx,m,19,r,1,(1.0544208940658713e-14, 172.20000000000002),23,-25,14,yes,x,5,x,0.3676648000255227,1,84,test2,2,0.36800839996431023,-70.0
24,cjx,m,19,r,1,(-3.163262682197613e-14, -172.20000000000002),27,-3,11,yes,x,5,x,0.6992248999886215,1,85,test2,2,0.6993206000188366,-48.0
24,cjx,m,19,r,1,(1.0544208940658713e-14, 172.20000000000002),23,-5,12,no,m,6,m,0.6325456999475136,1,86,test2,2,0.6330193999456242,-48.0
24,cjx,m,19,r,1,(-172.20000000000002, 2.1088417881317425e-14),25,-25,14,yes,x,5,x,0.416207900037989,1,87,test2,2,0.4163768000435084,-70.0
24,cjx,m,19,r,1,(1.0544208940658713e-14, 172.20000000000002),23,25,4,no,m,6,m,0.5765151999657974,1,88,test2,2,0.5766396999824792,-70.0
24,cjx,m,19,r,1,(-121.76378772032352, -121.76378772032348),26,-3,11,yes,x,5,x,0.6211111999582499,1,89,test2,2,0.6214614999480546,-48.0
24,cjx,m,19,r,1,(1.0544208940658713e-14, 172.20000000000002),23,25,4,yes,x,5,x,0.399037400027737,1,90,test2,2,0.39928949996829033,-20.0
24,cjx,m,19,r,1,(-172.20000000000002, 2.1088417881317425e-14),25,25,4,yes,x,5,x,0.4077314999885857,1,91,test2,2,0.40836250002030283,-20.0
24,cjx,m,19,r,1,(-3.163262682197613e-14, -172.20000000000002),27,-5,12,yes,x,5,x,0.6151170999510214,1,92,test2,2,0.6153453999431804,-50.0
24,cjx,m,19,r,1,(121.76378772032349, 121.76378772032349),22,7,3,yes,x,5,x,0.4208123000571504,1,93,test2,2,0.42104830010794103,-38.0
24,cjx,m,19,r,1,(-3.163262682197613e-14, -172.20000000000002),27,25,4,yes,x,5,x,0.390564400004223,1,94,test2,2,0.3909229999408126,-20.0
24,cjx,m,19,r,1,(-121.76378772032348, 121.76378772032349),24,3,1,yes,x,5,x,0.939302800106816,1,95,test2,2,0.9397549999412149,-42.0
24,cjx,m,19,r,1,(-172.20000000000002, 2.1088417881317425e-14),25,-7,13,yes,x,5,x,0.3778417999856174,1,96,test2,2,0.3779618999687955,-52.0
24,cjx,m,19,r,1,(-121.76378772032348, 121.76378772032349),24,25,4,no,m,6,m,0.7995214000111446,1,1,test1,3,0.7996410999912769,-52.0
24,cjx,m,19,r,1,(121.76378772032346, -121.76378772032352),28,25,4,yes,x,5,x,0.4102937000570819,1,2,test1,3,0.41049570008181036,-20.0
24,cjx,m,19,r,1,(1.0544208940658713e-14, 172.20000000000002),23,3,1,yes,x,5,x,0.510920999920927,1,3,test1,3,0.5112562999129295,-42.0
24,cjx,m,19,r,1,(-172.20000000000002, 2.1088417881317425e-14),25,25,4,no,m,6,m,0.590334799955599,1,4,test1,3,0.591104399994947,-42.0
24,cjx,m,19,r,1,(121.76378772032346, -121.76378772032352),28,-25,14,yes,x,5,x,0.5292535999324173,1,5,test1,3,0.5294666999252513,-70.0
24,cjx,m,19,r,1,(121.76378772032349, 121.76378772032349),22,25,4,no,m,6,m,0.5656218000221997,1,6,test1,3,0.5657510999590158,-70.0
24,cjx,m,19,r,1,(1.0544208940658713e-14, 172.20000000000002),23,-3,11,yes,x,5,x,0.40818380005657673,1,7,test1,3,0.40831620001699775,-48.0
24,cjx,m,19,r,1,(-121.76378772032348, 121.76378772032349),24,7,3,no,m,6,m,0.5391963999718428,1,8,test1,3,0.5395101000322029,-48.0
24,cjx,m,19,r,1,(121.76378772032349, 121.76378772032349),22,-25,14,no,m,6,m,0.5835881000384688,1,9,test1,3,0.5838551000924781,-48.0
24,cjx,m,19,r,1,(121.76378772032349, 121.76378772032349),22,-7,13,yes,x,5,x,0.6805570999858901,1,10,test1,3,0.6807934999233112,-52.0
24,cjx,m,19,r,1,(121.76378772032346, -121.76378772032352),28,3,1,yes,x,5,m,0.6331035000039265,0,11,test1,3,0.6332891000201926,-42.0
24,cjx,m,19,r,1,(-3.163262682197613e-14, -172.20000000000002),27,-25,14,yes,x,5,x,0.46265630004927516,1,12,test1,3,0.4627922000363469,-70.0
24,cjx,m,19,r,1,(1.0544208940658713e-14, 172.20000000000002),23,3,1,no,m,6,m,0.5614823999349028,1,13,test1,3,0.561804199940525,-70.0
24,cjx,m,19,r,1,(-3.163262682197613e-14, -172.20000000000002),27,7,3,yes,x,5,x,0.6008493000408635,1,14,test1,3,0.6010900000110269,-38.0
24,cjx,m,19,r,1,(121.76378772032346, -121.76378772032352),28,-5,12,no,m,6,m,0.6347652999684215,1,15,test1,3,0.6350215999409556,-38.0
24,cjx,m,19,r,1,(-3.163262682197613e-14, -172.20000000000002),27,3,1,yes,x,5,m,0.4835460000904277,0,16,test1,3,0.48364679992664605,-42.0
24,cjx,m,19,r,1,(-3.163262682197613e-14, -172.20000000000002),27,5,2,yes,x,5,x,0.5934970000525936,1,17,test1,3,0.5937511000083759,-40.0
24,cjx,m,19,r,1,(-3.163262682197613e-14, -172.20000000000002),27,7,3,yes,x,5,x,0.49672429997008294,1,18,test1,3,0.4968256000429392,-38.0
24,cjx,m,19,r,1,(-172.20000000000002, 2.1088417881317425e-14),25,7,3,yes,x,5,x,0.44725369999650866,1,19,test1,3,0.4473828000482172,-38.0
24,cjx,m,19,r,1,(172.20000000000002, 0.0),21,-3,11,no,m,6,m,0.5511356999631971,1,20,test1,3,0.5513068999862298,-38.0
24,cjx,m,19,r,1,(-172.20000000000002, 2.1088417881317425e-14),25,-5,12,no,m,6,m,0.6566486000083387,1,21,test1,3,0.65674680005759,-38.0
24,cjx,m,19,r,1,(121.76378772032349, 121.76378772032349),22,5,2,yes,x,5,x,0.7386352999601513,1,22,test1,3,0.7387569999555126,-40.0
24,cjx,m,19,r,1,(172.20000000000002, 0.0),21,7,3,no,m,6,m,0.5789030999876559,1,23,test1,3,0.5791915999725461,-40.0
24,cjx,m,19,r,1,(121.76378772032349, 121.76378772032349),22,-3,11,no,m,6,m,0.6724317000480369,1,24,test1,3,0.6726497000781819,-40.0
24,cjx,m,19,r,1,(121.76378772032349, 121.76378772032349),22,3,1,yes,x,5,x,0.7570278999628499,1,25,test1,3,0.7571308000478894,-42.0
24,cjx,m,19,r,1,(121.76378772032349, 121.76378772032349),22,25,4,yes,x,5,x,0.48928850004449487,1,26,test1,3,0.48965010000392795,-20.0
24,cjx,m,19,r,1,(-121.76378772032352, -121.76378772032348),26,3,1,yes,x,5,m,0.8922086999518797,0,27,test1,3,0.8923446999397129,-42.0
24,cjx,m,19,r,1,(172.20000000000002, 0.0),21,5,2,yes,x,5,x,0.5279613001039252,1,28,test1,3,0.5281253999564797,-40.0
24,cjx,m,19,r,1,(-172.20000000000002, 2.1088417881317425e-14),25,-7,13,no,m,6,m,0.5199521000031382,1,29,test1,3,0.5203722000587732,-40.0
24,cjx,m,19,r,1,(-172.20000000000002, 2.1088417881317425e-14),25,7,3,yes,x,5,x,0.6226864999625832,1,30,test1,3,0.6228570999810472,-38.0
24,cjx,m,19,r,1,(121.76378772032346, -121.76378772032352),28,5,2,yes,x,5,x,0.5271341000916436,1,31,test1,3,0.5284030999755487,-40.0
24,cjx,m,19,r,1,(-172.20000000000002, 2.1088417881317425e-14),25,5,2,yes,x,5,x,0.5384929999709129,1,32,test1,3,0.5387548999860883,-40.0
24,cjx,m,19,r,1,(-121.76378772032352, -121.76378772032348),26,3,1,no,m,6,m,0.6029746000422165,1,33,test1,3,0.6032022000290453,-40.0
24,cjx,m,19,r,1,(-172.20000000000002, 2.1088417881317425e-14),25,3,1,yes,x,5,x,0.522743699955754,1,34,test1,3,0.5233025000197813,-42.0
24,cjx,m,19,r,1,(-121.76378772032348, 121.76378772032349),24,-3,11,yes,x,5,m,0.8851820999989286,0,35,test1,3,0.8853644999908283,-48.0
24,cjx,m,19,r,1,(-121.76378772032348, 121.76378772032349),24,-3,11,no,m,6,m,0.7544036000035703,1,36,test1,3,0.7546743000857532,-48.0
24,cjx,m,19,r,1,(-121.76378772032348, 121.76378772032349),24,-7,13,yes,x,5,x,0.45239590003620833,1,37,test1,3,0.4525433999951929,-52.0
24,cjx,m,19,r,1,(-121.76378772032352, -121.76378772032348),26,7,3,yes,x,5,x,0.5180959000717849,1,38,test1,3,0.5181943000061437,-38.0
24,cjx,m,19,r,1,(-121.76378772032348, 121.76378772032349),24,-3,11,yes,x,5,x,0.5411830999655649,1,39,test1,3,0.5415375999873504,-48.0
24,cjx,m,19,r,1,(-3.163262682197613e-14, -172.20000000000002),27,7,3,no,m,6,m,0.6298974000383168,1,40,test1,3,0.6303228000178933,-48.0
24,cjx,m,19,r,1,(-121.76378772032348, 121.76378772032349),24,-7,13,yes,x,5,x,0.5011609999928623,1,41,test1,3,0.5014521999983117,-52.0
24,cjx,m,19,r,1,(172.20000000000002, 0.0),21,5,2,yes,x,5,x,0.6082962999353185,1,42,test1,3,0.6084084999747574,-40.0
24,cjx,m,19,r,1,(-172.20000000000002, 2.1088417881317425e-14),25,-5,12,yes,x,5,x,0.46368629997596145,1,43,test1,3,0.46398060000501573,-50.0
24,cjx,m,19,r,1,(-172.20000000000002, 2.1088417881317425e-14),25,3,1,yes,x,5,m,0.9229997999500483,0,44,test1,3,0.9232747999485582,-42.0
24,cjx,m,19,r,1,(172.20000000000002, 0.0),21,-5,12,yes,x,5,x,0.8591179000213742,1,45,test1,3,0.8593603000044823,-50.0
24,cjx,m,19,r,1,(-172.20000000000002, 2.1088417881317425e-14),25,5,2,no,m,6,m,0.6290772000793368,1,46,test1,3,0.6295707999961451,-50.0
24,cjx,m,19,r,1,(172.20000000000002, 0.0),21,3,1,yes,x,5,x,0.5847013000166044,1,47,test1,3,0.5850963999982923,-42.0
24,cjx,m,19,r,1,(172.20000000000002, 0.0),21,-3,11,yes,x,5,x,0.5811161000747234,1,48,test1,3,0.5814133000094444,-48.0
24,cjx,m,19,r,1,(121.76378772032349, 121.76378772032349),22,-5,12,no,m,6,m,0.7000106000341475,1,49,test1,3,0.700742399902083,-48.0
24,cjx,m,19,r,1,(-3.163262682197613e-14, -172.20000000000002),27,-25,14,no,m,6,m,0.5135182000230998,1,50,test1,3,0.5136600999394432,-48.0
24,cjx,m,19,r,1,(121.76378772032346, -121.76378772032352),28,7,3,yes,x,5,x,0.6542329000076279,1,51,test1,3,0.6543327000690624,-38.0
24,cjx,m,19,r,1,(-3.163262682197613e-14, -172.20000000000002),27,-7,13,no,m,6,m,0.5402135999174789,1,52,test1,3,0.5403349999105558,-38.0
24,cjx,m,19,r,1,(-172.20000000000002, 2.1088417881317425e-14),25,-3,11,yes,x,5,x,0.4957233000313863,1,53,test1,3,0.49593480001203716,-48.0
24,cjx,m,19,r,1,(-121.76378772032352, -121.76378772032348),26,-5,12,no,m,6,m,0.5513636000687256,1,54,test1,3,0.5515937000745907,-48.0
24,cjx,m,19,r,1,(1.0544208940658713e-14, 172.20000000000002),23,25,4,yes,x,5,x,0.3885544999502599,1,55,test1,3,0.3886984999990091,-20.0
24,cjx,m,19,r,1,(-172.20000000000002, 2.1088417881317425e-14),25,5,2,yes,x,5,x,0.736495100078173,1,56,test1,3,0.7369915000163019,-40.0
24,cjx,m,19,r,1,(121.76378772032349, 121.76378772032349),22,-5,12,yes,x,5,x,0.5313967999536544,1,57,test1,3,0.5315360999666154,-50.0
24,cjx,m,19,r,1,(172.20000000000002, 0.0),21,7,3,yes,x,5,x,0.43465420010033995,1,58,test1,3,0.43476910004392266,-38.0
24,cjx,m,19,r,1,(-121.76378772032352, -121.76378772032348),26,-3,11,yes,x,5,x,0.5366986999288201,1,59,test1,3,0.5369858000194654,-48.0
24,cjx,m,19,r,1,(-121.76378772032348, 121.76378772032349),24,-25,14,yes,x,5,x,0.5457757000112906,1,60,test1,3,0.5459997999714687,-70.0
24,cjx,m,19,r,1,(-121.76378772032352, -121.76378772032348),26,5,2,yes,x,5,x,0.581159400055185,1,61,test1,3,0.5812901000026613,-40.0
24,cjx,m,19,r,1,(1.0544208940658713e-14, 172.20000000000002),23,-5,12,yes,x,5,x,0.5586919999914244,1,62,test1,3,0.5588526999345049,-50.0
24,cjx,m,19,r,1,(-121.76378772032348, 121.76378772032349),24,-25,14,yes,x,5,x,0.4492696999805048,1,63,test1,3,0.44948259997181594,-70.0
24,cjx,m,19,r,1,(172.20000000000002, 0.0),21,-5,12,no,m,6,m,0.5444995000725612,1,64,test1,3,0.5449066000292078,-70.0
24,cjx,m,19,r,1,(121.76378772032349, 121.76378772032349),22,-3,11,yes,x,5,x,0.6907842999789864,1,65,test1,3,0.6910082999384031,-48.0
24,cjx,m,19,r,1,(1.0544208940658713e-14, 172.20000000000002),23,7,3,no,m,6,m,0.573507499997504,1,66,test1,3,0.5738276999909431,-48.0
24,cjx,m,19,r,1,(1.0544208940658713e-14, 172.20000000000002),23,7,3,yes,x,5,x,0.3657271000556648,1,67,test1,3,0.3658364999573678,-38.0
24,cjx,m,19,r,1,(172.20000000000002, 0.0),21,25,4,no,m,6,m,0.5225701000308618,1,68,test1,3,0.5227065999060869,-38.0
24,cjx,m,19,r,1,(121.76378772032346, -121.76378772032352),28,-5,12,yes,x,5,x,0.8036778999958187,1,69,test1,3,0.803782100090757,-50.0
24,cjx,m,19,r,1,(172.20000000000002, 0.0),21,-25,14,no,m,6,m,0.5083129999693483,1,70,test1,3,0.5085860999533907,-50.0
24,cjx,m,19,r,1,(-121.76378772032352, -121.76378772032348),26,-3,11,no,m,6,m,0.7084968000417575,1,71,test1,3,0.708780400105752,-50.0
24,cjx,m,19,r,1,(-121.76378772032348, 121.76378772032349),24,3,1,yes,x,5,x,0.6300914000021294,1,72,test1,3,0.6303939999779686,-42.0
24,cjx,m,19,r,1,(1.0544208940658713e-14, 172.20000000000002),23,-3,11,no,m,6,m,0.5186768000712618,1,73,test1,3,0.5188216998940334,-42.0
24,cjx,m,19,r,1,(121.76378772032346, -121.76378772032352),28,-25,14,no,m,6,m,0.6586789999855682,1,74,test1,3,0.6590713999466971,-42.0
24,cjx,m,19,r,1,(-121.76378772032352, -121.76378772032348),26,7,3,yes,x,5,x,0.45989070006180555,1,75,test1,3,0.46020259999204427,-38.0
24,cjx,m,19,r,1,(121.76378772032349, 121.76378772032349),22,-5,12,yes,x,5,x,0.680726999999024,1,76,test1,3,0.6808325999882072,-50.0
24,cjx,m,19,r,1,(-172.20000000000002, 2.1088417881317425e-14),25,-7,13,yes,x,5,x,0.5629598000086844,1,77,test1,3,0.5631759000243619,-52.0
24,cjx,m,19,r,1,(-3.163262682197613e-14, -172.20000000000002),27,-3,11,yes,x,5,x,0.8689517000457272,1,78,test1,3,0.869126999983564,-48.0
24,cjx,m,19,r,1,(121.76378772032349, 121.76378772032349),22,7,3,no,m,6,m,0.7347724999999627,1,79,test1,3,0.7349725000094622,-48.0
24,cjx,m,19,r,1,(1.0544208940658713e-14, 172.20000000000002),23,-7,13,yes,x,5,x,0.6484260999131948,1,80,test1,3,0.6485437999945134,-52.0
24,cjx,m,19,r,1,(121.76378772032349, 121.76378772032349),22,-25,14,yes,x,5,x,0.5017473999178037,1,81,test1,3,0.5018873999360949,-70.0
24,cjx,m,19,r,1,(1.0544208940658713e-14, 172.20000000000002),23,7,3,yes,x,5,x,0.4724953999975696,1,82,test1,3,0.47281850001309067,-38.0
24,cjx,m,19,r,1,(-121.76378772032352, -121.76378772032348),26,-25,14,yes,x,5,x,0.5481630999129266,1,83,test1,3,0.5489731999114156,-70.0
24,cjx,m,19,r,1,(121.76378772032349, 121.76378772032349),22,25,4,yes,x,5,x,0.8217400000430644,1,84,test1,3,0.8218424000078812,-20.0
24,cjx,m,19,r,1,(121.76378772032346, -121.76378772032352),28,5,2,no,m,6,m,0.654762800084427,1,85,test1,3,0.6550293999025598,-20.0
24,cjx,m,19,r,1,(-121.76378772032352, -121.76378772032348),26,25,4,no,m,6,m,0.7205908000469208,1,86,test1,3,0.7209782999707386,-20.0
24,cjx,m,19,r,1,(-3.163262682197613e-14, -172.20000000000002),27,-5,12,no,m,6,m,0.5063720000907779,1,87,test1,3,0.5066282000625506,-20.0
24,cjx,m,19,r,1,(-121.76378772032348, 121.76378772032349),24,-5,12,yes,x,5,x,0.4629689999856055,1,88,test1,3,0.4632516000419855,-50.0
24,cjx,m,19,r,1,(121.76378772032346, -121.76378772032352),28,25,4,yes,x,5,x,0.43647419998887926,1,89,test1,3,0.4366248999722302,-20.0
24,cjx,m,19,r,1,(1.0544208940658713e-14, 172.20000000000002),23,5,2,yes,x,5,x,0.3516535999951884,1,90,test1,3,0.3521509999409318,-40.0
24,cjx,m,19,r,1,(-172.20000000000002, 2.1088417881317425e-14),25,-3,11,yes,x,5,m,0.6223312000511214,0,91,test1,3,0.6224547000601888,-48.0
24,cjx,m,19,r,1,(-3.163262682197613e-14, -172.20000000000002),27,3,1,no,m,6,m,0.6806180999847129,1,92,test1,3,0.6807244999799877,-48.0
24,cjx,m,19,r,1,(121.76378772032349, 121.76378772032349),22,-25,14,yes,x,5,x,0.46693870006129146,1,93,test1,3,0.46706110006198287,-70.0
24,cjx,m,19,r,1,(-3.163262682197613e-14, -172.20000000000002),27,3,1,yes,x,5,x,0.8150764000602067,1,94,test1,3,0.81520620000083,-42.0
24,cjx,m,19,r,1,(1.0544208940658713e-14, 172.20000000000002),23,-7,13,no,m,6,m,0.5485361000755802,1,95,test1,3,0.5486408999422565,-42.0
24,cjx,m,19,r,1,(-172.20000000000002, 2.1088417881317425e-14),25,3,1,no,m,6,m,0.6646932000294328,1,96,test1,3,0.6647957999957725,-42.0
24,cjx,m,19,r,1,(1.0544208940658713e-14, 172.20000000000002),23,5,2,no,m,6,m,0.5559612999204546,1,1,test2,3,0.5561597999185324,-42.0
24,cjx,m,19,r,1,(121.76378772032346, -121.76378772032352),28,-3,11,yes,x,5,m,0.6447552000172436,0,2,test2,3,0.6452033000532538,-48.0
24,cjx,m,19,r,1,(-121.76378772032352, -121.76378772032348),26,-7,13,yes,x,5,x,0.4467483999906108,1,3,test2,3,0.44709839997813106,-52.0
24,cjx,m,19,r,1,(1.0544208940658713e-14, 172.20000000000002),23,-7,13,yes,x,5,x,0.40794850001111627,1,4,test2,3,0.4082289000507444,-52.0
24,cjx,m,19,r,1,(-121.76378772032348, 121.76378772032349),24,7,3,yes,x,5,x,0.3776777000166476,1,5,test2,3,0.3777821999974549,-38.0
24,cjx,m,19,r,1,(121.76378772032349, 121.76378772032349),22,-3,11,yes,x,5,x,0.5431982999434695,1,6,test2,3,0.543335200054571,-48.0
24,cjx,m,19,r,1,(-3.163262682197613e-14, -172.20000000000002),27,25,4,yes,x,5,x,0.3884928999468684,1,7,test2,3,0.3887096999678761,-20.0
24,cjx,m,19,r,1,(172.20000000000002, 0.0),21,-7,13,no,m,6,m,0.5968276999192312,1,8,test2,3,0.5969354000408202,-20.0
24,cjx,m,19,r,1,(121.76378772032349, 121.76378772032349),22,3,1,yes,x,5,x,0.7037131999386474,1,9,test2,3,0.7041369000216946,-42.0
24,cjx,m,19,r,1,(172.20000000000002, 0.0),21,-25,14,yes,x,5,x,0.5150689999572933,1,10,test2,3,0.5153073000255972,-70.0
24,cjx,m,19,r,1,(172.20000000000002, 0.0),21,5,2,no,m,6,m,0.5980490000220016,1,11,test2,3,0.5982943999115378,-70.0
24,cjx,m,19,r,1,(172.20000000000002, 0.0),21,-7,13,yes,x,5,x,0.5123424000339583,1,12,test2,3,0.5126401000889018,-52.0
24,cjx,m,19,r,1,(-121.76378772032348, 121.76378772032349),24,7,3,yes,x,5,x,0.45045670005492866,1,13,test2,3,0.45083789993077517,-38.0
24,cjx,m,19,r,1,(172.20000000000002, 0.0),21,-7,13,yes,x,5,x,0.5674364999867976,1,14,test2,3,0.567675199941732,-52.0
24,cjx,m,19,r,1,(121.76378772032346, -121.76378772032352),28,-3,11,no,m,6,m,0.5165020000422373,1,15,test2,3,0.5166608999716118,-52.0
24,cjx,m,19,r,1,(121.76378772032346, -121.76378772032352),28,25,4,no,m,6,m,0.5748001000611112,1,16,test2,3,0.5749144000001252,-52.0
24,cjx,m,19,r,1,(-172.20000000000002, 2.1088417881317425e-14),25,-25,14,no,m,6,m,0.548562099924311,1,17,test2,3,0.5488570999586955,-52.0
24,cjx,m,19,r,1,(1.0544208940658713e-14, 172.20000000000002),23,5,2,yes,x,5,x,0.4526851000264287,1,18,test2,3,0.45308300002943724,-40.0
24,cjx,m,19,r,1,(1.0544208940658713e-14, 172.20000000000002),23,3,1,yes,x,5,x,0.5181068000383675,1,19,test2,3,0.5183124000905082,-42.0
24,cjx,m,19,r,1,(-121.76378772032348, 121.76378772032349),24,-5,12,no,m,6,m,0.4971984000876546,1,20,test2,3,0.49737499991897494,-42.0
24,cjx,m,19,r,1,(121.76378772032349, 121.76378772032349),22,-7,13,no,m,6,m,0.6026606999803334,1,21,test2,3,0.6029630999546498,-42.0
24,cjx,m,19,r,1,(-121.76378772032348, 121.76378772032349),24,5,2,no,m,6,m,0.4775389999849722,1,22,test2,3,0.4777612000470981,-42.0
24,cjx,m,19,r,1,(-121.76378772032352, -121.76378772032348),26,25,4,yes,x,5,x,0.36629989999346435,1,23,test2,3,0.36667659995146096,-20.0
24,cjx,m,19,r,1,(-121.76378772032352, -121.76378772032348),26,-25,14,no,m,6,m,0.652760099968873,1,24,test2,3,0.6529229999287054,-20.0
24,cjx,m,19,r,1,(-3.163262682197613e-14, -172.20000000000002),27,-3,11,no,m,6,m,0.5488759999861941,1,25,test2,3,0.5490965000353754,-20.0
24,cjx,m,19,r,1,(-3.163262682197613e-14, -172.20000000000002),27,-25,14,yes,x,5,x,0.42930110008455813,1,26,test2,3,0.4298987000947818,-70.0
24,cjx,m,19,r,1,(-3.163262682197613e-14, -172.20000000000002),27,-7,13,yes,x,5,x,0.4387495999690145,1,27,test2,3,0.4388504000380635,-52.0
24,cjx,m,19,r,1,(-121.76378772032348, 121.76378772032349),24,25,4,yes,x,5,x,0.32967899995855987,1,28,test2,3,0.32999120000749826,-20.0
24,cjx,m,19,r,1,(121.76378772032349, 121.76378772032349),22,-7,13,yes,x,5,x,0.5900683000218123,1,29,test2,3,0.5902345000067726,-52.0
24,cjx,m,19,r,1,(121.76378772032349, 121.76378772032349),22,7,3,yes,x,5,x,0.46254530001897365,1,30,test2,3,0.4629027999471873,-38.0
24,cjx,m,19,r,1,(172.20000000000002, 0.0),21,25,4,yes,x,5,x,0.33324299997184426,1,31,test2,3,0.3333489999640733,-20.0
24,cjx,m,19,r,1,(-121.76378772032348, 121.76378772032349),24,-25,14,no,m,6,m,0.5462461999850348,1,32,test2,3,0.546352899982594,-20.0
24,cjx,m,19,r,1,(121.76378772032349, 121.76378772032349),22,3,1,no,m,6,m,0.6343861999921501,1,33,test2,3,0.6347427000291646,-20.0
24,cjx,m,19,r,1,(121.76378772032346, -121.76378772032352),28,-7,13,no,m,6,m,0.522796000004746,1,34,test2,3,0.5229303000960499,-20.0
24,cjx,m,19,r,1,(121.76378772032346, -121.76378772032352),28,-25,14,yes,x,5,x,0.29264230001717806,1,35,test2,3,0.292900100001134,-70.0
24,cjx,m,19,r,1,(-121.76378772032352, -121.76378772032348),26,5,2,yes,x,5,x,0.4123964000027627,1,36,test2,3,0.41260939999483526,-40.0
24,cjx,m,19,r,1,(121.76378772032346, -121.76378772032352),28,7,3,no,m,6,m,0.8189554000273347,1,37,test2,3,0.819090300006792,-40.0
24,cjx,m,19,r,1,(121.76378772032349, 121.76378772032349),22,5,2,yes,x,5,m,0.4602180999936536,0,38,test2,3,0.46042430005036294,-40.0
24,cjx,m,19,r,1,(1.0544208940658713e-14, 172.20000000000002),23,-25,14,yes,x,5,x,0.43552199995610863,1,39,test2,3,0.4357487999368459,-70.0
24,cjx,m,19,r,1,(172.20000000000002, 0.0),21,3,1,yes,x,5,m,0.8501024000579491,0,40,test2,3,0.8504187000216916,-42.0
24,cjx,m,19,r,1,(-172.20000000000002, 2.1088417881317425e-14),25,-3,11,no,m,6,m,0.5947939999168739,1,41,test2,3,0.594898600014858,-42.0
24,cjx,m,19,r,1,(121.76378772032349, 121.76378772032349),22,5,2,no,m,6,m,0.5831933000590652,1,42,test2,3,0.5832965000299737,-42.0
24,cjx,m,19,r,1,(121.76378772032346, -121.76378772032352),28,3,1,yes,x,5,x,0.5396077000768855,1,43,test2,3,0.539713800069876,-42.0
24,cjx,m,19,r,1,(-121.76378772032348, 121.76378772032349),24,5,2,yes,x,5,x,0.6345393999945372,1,44,test2,3,0.6349140000529587,-40.0
24,cjx,m,19,r,1,(-121.76378772032352, -121.76378772032348),26,25,4,yes,x,5,x,0.38081969995982945,1,45,test2,3,0.38095469994004816,-20.0
24,cjx,m,19,r,1,(1.0544208940658713e-14, 172.20000000000002),23,-3,11,yes,x,5,x,0.6754501000978053,1,46,test2,3,0.6755556000862271,-48.0
24,cjx,m,19,r,1,(-3.163262682197613e-14, -172.20000000000002),27,-7,13,yes,x,5,x,0.4079078999347985,1,47,test2,3,0.40801599994301796,-52.0
24,cjx,m,19,r,1,(-121.76378772032352, -121.76378772032348),26,3,1,yes,x,5,x,0.5780456000939012,1,48,test2,3,0.5782688000472263,-42.0
24,cjx,m,19,r,1,(172.20000000000002, 0.0),21,25,4,yes,x,5,x,0.45932720007840544,1,49,test2,3,0.4596281999256462,-20.0
24,cjx,m,19,r,1,(-121.76378772032352, -121.76378772032348),26,5,2,no,m,6,m,0.8242717999964952,1,50,test2,3,0.8246849999995902,-20.0
24,cjx,m,19,r,1,(-121.76378772032352, -121.76378772032348),26,-7,13,no,m,6,m,0.4903345999773592,1,51,test2,3,0.4904523999430239,-20.0
24,cjx,m,19,r,1,(-172.20000000000002, 2.1088417881317425e-14),25,25,4,yes,x,5,x,0.44489180005621165,1,52,test2,3,0.4451025000307709,-20.0
24,cjx,m,19,r,1,(-172.20000000000002, 2.1088417881317425e-14),25,-25,14,yes,x,5,x,0.49151269998401403,1,53,test2,3,0.49176110001280904,-70.0
24,cjx,m,19,r,1,(1.0544208940658713e-14, 172.20000000000002),23,-5,12,yes,x,5,x,0.4324565000133589,1,54,test2,3,0.432579500018619,-50.0
24,cjx,m,19,r,1,(-3.163262682197613e-14, -172.20000000000002),27,5,2,yes,x,5,x,0.42633090005256236,1,55,test2,3,0.4265665999846533,-40.0
24,cjx,m,19,r,1,(1.0544208940658713e-14, 172.20000000000002),23,-25,14,no,m,6,m,0.5005710000405088,1,56,test2,3,0.5012297999346629,-40.0
24,cjx,m,19,r,1,(-121.76378772032348, 121.76378772032349),24,-5,12,yes,x,5,x,0.5003504999913275,1,57,test2,3,0.5005823000101373,-50.0
24,cjx,m,19,r,1,(-121.76378772032352, -121.76378772032348),26,7,3,no,m,6,m,0.5806581999640912,1,58,test2,3,0.5809869000222534,-50.0
24,cjx,m,19,r,1,(121.76378772032346, -121.76378772032352),28,-7,13,yes,x,5,x,0.593273299979046,1,59,test2,3,0.593555299914442,-52.0
24,cjx,m,19,r,1,(-121.76378772032352, -121.76378772032348),26,-5,12,yes,x,5,x,0.6418915999820456,1,60,test2,3,0.642000799998641,-50.0
24,cjx,m,19,r,1,(-172.20000000000002, 2.1088417881317425e-14),25,7,3,no,m,6,m,0.5532169000944123,1,61,test2,3,0.5535033999476582,-50.0
24,cjx,m,19,r,1,(-121.76378772032348, 121.76378772032349),24,5,2,yes,x,5,x,0.48879939992912114,1,62,test2,3,0.4889277999754995,-40.0
24,cjx,m,19,r,1,(121.76378772032346, -121.76378772032352),28,-3,11,yes,x,5,x,0.5755182999419048,1,63,test2,3,0.575795799959451,-48.0
24,cjx,m,19,r,1,(121.76378772032346, -121.76378772032352),28,3,1,no,m,6,m,0.5893611999927089,1,64,test2,3,0.5895743999863043,-48.0
24,cjx,m,19,r,1,(-121.76378772032352, -121.76378772032348),26,-25,14,yes,x,5,x,0.35891710000578314,1,65,test2,3,0.3591309000039473,-70.0
24,cjx,m,19,r,1,(-121.76378772032348, 121.76378772032349),24,3,1,no,m,6,m,0.6108996000839397,1,66,test2,3,0.6109999000327662,-70.0
24,cjx,m,19,r,1,(172.20000000000002, 0.0),21,3,1,no,m,6,m,0.581222900073044,1,67,test2,3,0.5813292000675574,-70.0
24,cjx,m,19,r,1,(121.76378772032346, -121.76378772032352),28,7,3,yes,x,5,x,0.6838555000722408,1,68,test2,3,0.6839625999564305,-38.0
24,cjx,m,19,r,1,(-3.163262682197613e-14, -172.20000000000002),27,-5,12,yes,x,5,x,0.7593541999813169,1,69,test2,3,0.7595246999990195,-50.0
24,cjx,m,19,r,1,(121.76378772032346, -121.76378772032352),28,5,2,yes,x,5,x,0.5767634999938309,1,70,test2,3,0.5769434999674559,-40.0
24,cjx,m,19,r,1,(-121.76378772032348, 121.76378772032349),24,25,4,yes,x,5,x,0.3993457000469789,1,71,test2,3,0.3996206000447273,-20.0
24,cjx,m,19,r,1,(-121.76378772032348, 121.76378772032349),24,-7,13,no,m,6,m,0.5987527000252157,1,72,test2,3,0.5989791000029072,-20.0
24,cjx,m,19,r,1,(121.76378772032346, -121.76378772032352),28,-7,13,yes,x,5,x,0.5178113000001758,1,73,test2,3,0.5179128999589011,-52.0
24,cjx,m,19,r,1,(121.76378772032346, -121.76378772032352),28,-5,12,yes,x,5,x,0.5005684999050573,1,74,test2,3,0.5006924999179319,-50.0
24,cjx,m,19,r,1,(-3.163262682197613e-14, -172.20000000000002),27,5,2,no,m,6,m,0.5961746000684798,1,75,test2,3,0.5962812999496236,-50.0
24,cjx,m,19,r,1,(172.20000000000002, 0.0),21,-25,14,yes,x,5,x,0.4482899000868201,1,76,test2,3,0.44864550000056624,-70.0
24,cjx,m,19,r,1,(-3.163262682197613e-14, -172.20000000000002),27,25,4,no,m,6,m,0.6262699000071734,1,77,test2,3,0.6263856999576092,-70.0
24,cjx,m,19,r,1,(-121.76378772032352, -121.76378772032348),26,-5,12,yes,x,5,x,0.4952360999304801,1,78,test2,3,0.49556119996123016,-50.0
24,cjx,m,19,r,1,(172.20000000000002, 0.0),21,7,3,yes,x,5,x,0.5594883000012487,1,79,test2,3,0.560150699922815,-38.0
24,cjx,m,19,r,1,(-121.76378772032352, -121.76378772032348),26,-7,13,yes,x,5,x,0.6752279000356793,1,80,test2,3,0.6754523999989033,-52.0
24,cjx,m,19,r,1,(172.20000000000002, 0.0),21,-3,11,yes,x,5,m,0.7675603000679985,0,81,test2,3,0.7678539000917226,-48.0
24,cjx,m,19,r,1,(-172.20000000000002, 2.1088417881317425e-14),25,-5,12,yes,x,5,x,0.5299690999090672,1,82,test2,3,0.5300680999644101,-50.0
24,cjx,m,19,r,1,(172.20000000000002, 0.0),21,-5,12,yes,x,5,x,0.4689528999151662,1,83,test2,3,0.4692425000248477,-50.0
24,cjx,m,19,r,1,(1.0544208940658713e-14, 172.20000000000002),23,-25,14,yes,x,5,x,0.35481130005791783,1,84,test2,3,0.35508030001074076,-70.0
24,cjx,m,19,r,1,(-3.163262682197613e-14, -172.20000000000002),27,-3,11,yes,x,5,x,0.6679644000250846,1,85,test2,3,0.6682676000054926,-48.0
24,cjx,m,19,r,1,(1.0544208940658713e-14, 172.20000000000002),23,-5,12,no,m,6,m,0.8951953999930993,1,86,test2,3,0.8953551000449806,-48.0
24,cjx,m,19,r,1,(-172.20000000000002, 2.1088417881317425e-14),25,-25,14,yes,x,5,x,0.3381234999978915,1,87,test2,3,0.33830539998598397,-70.0
24,cjx,m,19,r,1,(1.0544208940658713e-14, 172.20000000000002),23,25,4,no,m,6,m,0.6427330999867991,1,88,test2,3,0.6429444999666885,-70.0
24,cjx,m,19,r,1,(-121.76378772032352, -121.76378772032348),26,-3,11,yes,x,5,x,0.7380121999885887,1,89,test2,3,0.738171299919486,-48.0
24,cjx,m,19,r,1,(1.0544208940658713e-14, 172.20000000000002),23,25,4,yes,x,5,x,0.6418463999871165,1,90,test2,3,0.6421270000282675,-20.0
24,cjx,m,19,r,1,(-172.20000000000002, 2.1088417881317425e-14),25,25,4,yes,x,5,x,0.40569439996033907,1,91,test2,3,0.40637940005399287,-20.0
24,cjx,m,19,r,1,(-3.163262682197613e-14, -172.20000000000002),27,-5,12,yes,x,5,x,0.44254239997826517,1,92,test2,3,0.44271960004698485,-50.0
24,cjx,m,19,r,1,(121.76378772032349, 121.76378772032349),22,7,3,yes,x,5,x,0.4930520999478176,1,93,test2,3,0.49315349990502,-38.0
24,cjx,m,19,r,1,(-3.163262682197613e-14, -172.20000000000002),27,25,4,yes,x,5,x,0.4273461000993848,1,94,test2,3,0.42758370004594326,-20.0
24,cjx,m,19,r,1,(-121.76378772032348, 121.76378772032349),24,3,1,yes,x,5,m,0.7371392999775708,0,95,test2,3,0.7374308999860659,-42.0
24,cjx,m,19,r,1,(-172.20000000000002, 2.1088417881317425e-14),25,-7,13,yes,x,5,x,0.5402236999943852,1,96,test2,3,0.5403558999532834,-52.0
24,cjx,m,19,r,1,(-121.76378772032348, 121.76378772032349),24,25,4,no,m,6,m,0.569575099973008,1,1,test1,4,0.5698704000096768,-52.0
24,cjx,m,19,r,1,(121.76378772032346, -121.76378772032352),28,25,4,yes,x,5,x,0.4055153999943286,1,2,test1,4,0.4057776000117883,-20.0
24,cjx,m,19,r,1,(1.0544208940658713e-14, 172.20000000000002),23,3,1,yes,x,5,x,0.552205599960871,1,3,test1,4,0.5524433000246063,-42.0
24,cjx,m,19,r,1,(-172.20000000000002, 2.1088417881317425e-14),25,25,4,no,m,6,m,0.5702915999572724,1,4,test1,4,0.57057439989876,-42.0
24,cjx,m,19,r,1,(121.76378772032346, -121.76378772032352),28,-25,14,yes,x,5,x,0.4206305000698194,1,5,test1,4,0.42090900009498,-70.0
24,cjx,m,19,r,1,(121.76378772032349, 121.76378772032349),22,25,4,no,m,6,m,0.4990031000925228,1,6,test1,4,0.49910850008018315,-70.0
24,cjx,m,19,r,1,(1.0544208940658713e-14, 172.20000000000002),23,-3,11,yes,x,5,x,0.5592836999567226,1,7,test1,4,0.5594259999925271,-48.0
24,cjx,m,19,r,1,(-121.76378772032348, 121.76378772032349),24,7,3,no,m,6,m,0.5339838000945747,1,8,test1,4,0.5342022000113502,-48.0
24,cjx,m,19,r,1,(121.76378772032349, 121.76378772032349),22,-25,14,no,m,6,m,0.6433003999991342,1,9,test1,4,0.6434399000136182,-48.0
24,cjx,m,19,r,1,(121.76378772032349, 121.76378772032349),22,-7,13,yes,x,5,x,0.5180263998918235,1,10,test1,4,0.5183673999272287,-52.0
24,cjx,m,19,r,1,(121.76378772032346, -121.76378772032352),28,3,1,yes,x,5,x,0.5788850999670103,1,11,test1,4,0.5789942999836057,-42.0
24,cjx,m,19,r,1,(-3.163262682197613e-14, -172.20000000000002),27,-25,14,yes,x,5,x,0.36373839993029833,1,12,test1,4,0.3643229999579489,-70.0
24,cjx,m,19,r,1,(1.0544208940658713e-14, 172.20000000000002),23,3,1,no,m,6,m,0.7571612999308854,1,13,test1,4,0.757267199922353,-70.0
24,cjx,m,19,r,1,(-3.163262682197613e-14, -172.20000000000002),27,7,3,yes,x,5,x,0.5322675999486819,1,14,test1,4,0.5323725999332964,-38.0
24,cjx,m,19,r,1,(121.76378772032346, -121.76378772032352),28,-5,12,no,m,6,m,0.5449684000341222,1,15,test1,4,0.545237300102599,-38.0
24,cjx,m,19,r,1,(-3.163262682197613e-14, -172.20000000000002),27,3,1,yes,x,5,x,0.545960999908857,1,16,test1,4,0.5462584999622777,-42.0
24,cjx,m,19,r,1,(-3.163262682197613e-14, -172.20000000000002),27,5,2,yes,x,5,x,0.45804679999127984,1,17,test1,4,0.45821409998461604,-40.0
24,cjx,m,19,r,1,(-3.163262682197613e-14, -172.20000000000002),27,7,3,yes,x,5,x,0.4748911999631673,1,18,test1,4,0.47536020004190505,-38.0
24,cjx,m,19,r,1,(-172.20000000000002, 2.1088417881317425e-14),25,7,3,yes,x,5,x,0.5650635999627411,1,19,test1,4,0.5651961000403389,-38.0
24,cjx,m,19,r,1,(172.20000000000002, 0.0),21,-3,11,no,m,6,m,0.5735749000450596,1,20,test1,4,0.5742259999969974,-38.0
24,cjx,m,19,r,1,(-172.20000000000002, 2.1088417881317425e-14),25,-5,12,no,m,6,m,0.5346797000383958,1,21,test1,4,0.5347821998875588,-38.0
24,cjx,m,19,r,1,(121.76378772032349, 121.76378772032349),22,5,2,yes,x,5,m,0.6997060000430793,0,22,test1,4,0.6999182000290602,-40.0
24,cjx,m,19,r,1,(172.20000000000002, 0.0),21,7,3,no,m,6,m,0.8974685000721365,1,23,test1,4,0.8975685000186786,-40.0
24,cjx,m,19,r,1,(121.76378772032349, 121.76378772032349),22,-3,11,no,m,6,m,0.6522712999721989,1,24,test1,4,0.6525552999228239,-40.0
24,cjx,m,19,r,1,(121.76378772032349, 121.76378772032349),22,3,1,yes,x,5,x,0.6987129999324679,1,25,test1,4,0.699398500029929,-42.0
24,cjx,m,19,r,1,(121.76378772032349, 121.76378772032349),22,25,4,yes,x,5,x,0.4621109999716282,1,26,test1,4,0.46222270000725985,-20.0
24,cjx,m,19,r,1,(-121.76378772032352, -121.76378772032348),26,3,1,yes,x,5,m,0.6479582000756636,0,27,test1,4,0.6480555000016466,-42.0
24,cjx,m,19,r,1,(172.20000000000002, 0.0),21,5,2,yes,x,5,x,0.5008136000251397,1,28,test1,4,0.5009456999832764,-40.0
24,cjx,m,19,r,1,(-172.20000000000002, 2.1088417881317425e-14),25,-7,13,no,m,6,m,0.7785253999754786,1,29,test1,4,0.7787492000497878,-40.0
24,cjx,m,19,r,1,(-172.20000000000002, 2.1088417881317425e-14),25,7,3,yes,x,5,x,0.5980403999565169,1,30,test1,4,0.5983607000671327,-38.0
24,cjx,m,19,r,1,(121.76378772032346, -121.76378772032352),28,5,2,yes,x,5,x,0.5414223000407219,1,31,test1,4,0.5415523999836296,-40.0
24,cjx,m,19,r,1,(-172.20000000000002, 2.1088417881317425e-14),25,5,2,yes,x,5,x,0.4866139000514522,1,32,test1,4,0.48674790002405643,-40.0
24,cjx,m,19,r,1,(-121.76378772032352, -121.76378772032348),26,3,1,no,m,6,m,0.625451400061138,1,33,test1,4,0.6255533000221476,-40.0
24,cjx,m,19,r,1,(-172.20000000000002, 2.1088417881317425e-14),25,3,1,yes,x,5,m,0.7163869999349117,0,34,test1,4,0.71661869995296,-42.0
24,cjx,m,19,r,1,(-121.76378772032348, 121.76378772032349),24,-3,11,yes,x,5,m,0.6187325000064448,0,35,test1,4,0.6188350999727845,-48.0
24,cjx,m,19,r,1,(-121.76378772032348, 121.76378772032349),24,-3,11,no,m,6,m,0.8427099999971688,1,36,test1,4,0.8428913000971079,-48.0
24,cjx,m,19,r,1,(-121.76378772032348, 121.76378772032349),24,-7,13,yes,x,5,x,0.5917996000498533,1,37,test1,4,0.592111699981615,-52.0
24,cjx,m,19,r,1,(-121.76378772032352, -121.76378772032348),26,7,3,yes,x,5,x,0.5087020000210032,1,38,test1,4,0.5089138000039384,-38.0
24,cjx,m,19,r,1,(-121.76378772032348, 121.76378772032349),24,-3,11,yes,x,5,x,0.5676129999337718,1,39,test1,4,0.5679385999683291,-48.0
24,cjx,m,19,r,1,(-3.163262682197613e-14, -172.20000000000002),27,7,3,no,m,6,m,0.8472413999261335,1,40,test1,4,0.8474534000270069,-48.0
24,cjx,m,19,r,1,(-121.76378772032348, 121.76378772032349),24,-7,13,yes,x,5,x,0.36401360004674643,1,41,test1,4,0.3641197000397369,-52.0
24,cjx,m,19,r,1,(172.20000000000002, 0.0),21,5,2,yes,x,5,m,0.5125158000737429,0,42,test1,4,0.5126152000157163,-40.0
24,cjx,m,19,r,1,(-172.20000000000002, 2.1088417881317425e-14),25,-5,12,yes,x,5,x,0.4386110999621451,1,43,test1,4,0.43875590001698583,-50.0
24,cjx,m,19,r,1,(-172.20000000000002, 2.1088417881317425e-14),25,3,1,yes,x,5,x,0.7518672000151128,1,44,test1,4,0.7522564999526367,-42.0
24,cjx,m,19,r,1,(172.20000000000002, 0.0),21,-5,12,yes,x,5,x,0.37897129997145385,1,45,test1,4,0.3790822000009939,-50.0
24,cjx,m,19,r,1,(-172.20000000000002, 2.1088417881317425e-14),25,5,2,no,m,6,m,0.6683610000181943,1,46,test1,4,0.6685965000651777,-50.0
24,cjx,m,19,r,1,(172.20000000000002, 0.0),21,3,1,yes,x,5,x,0.5316372999222949,1,47,test1,4,0.5320263999747112,-42.0
24,cjx,m,19,r,1,(172.20000000000002, 0.0),21,-3,11,yes,x,5,x,0.4900283000897616,1,48,test1,4,0.49023959995247424,-48.0
24,cjx,m,19,r,1,(121.76378772032349, 121.76378772032349),22,-5,12,no,m,6,m,0.775262999930419,1,49,test1,4,0.7757109999656677,-48.0
24,cjx,m,19,r,1,(-3.163262682197613e-14, -172.20000000000002),27,-25,14,no,m,6,m,0.6396278999745846,1,50,test1,4,0.6398781000170857,-48.0
24,cjx,m,19,r,1,(121.76378772032346, -121.76378772032352),28,7,3,yes,x,5,x,0.4051867000525817,1,51,test1,4,0.4053161001065746,-38.0
24,cjx,m,19,r,1,(-3.163262682197613e-14, -172.20000000000002),27,-7,13,no,m,6,m,0.6370666000293568,1,52,test1,4,0.6371819000924006,-38.0
24,cjx,m,19,r,1,(-172.20000000000002, 2.1088417881317425e-14),25,-3,11,yes,x,5,x,0.8939352000597864,1,53,test1,4,0.89423810003791,-48.0
24,cjx,m,19,r,1,(-121.76378772032352, -121.76378772032348),26,-5,12,no,m,6,m,0.7916328000137582,1,54,test1,4,0.7917386000044644,-48.0
24,cjx,m,19,r,1,(1.0544208940658713e-14, 172.20000000000002),23,25,4,yes,x,5,x,0.37051179993432015,1,55,test1,4,0.37072440003976226,-20.0
24,cjx,m,19,r,1,(-172.20000000000002, 2.1088417881317425e-14),25,5,2,yes,x,5,x,0.653882599901408,1,56,test1,4,0.6540047000162303,-40.0
24,cjx,m,19,r,1,(121.76378772032349, 121.76378772032349),22,-5,12,yes,x,5,x,0.8988796999910846,1,57,test1,4,0.899006399908103,-50.0
24,cjx,m,19,r,1,(172.20000000000002, 0.0),21,7,3,yes,x,5,x,0.44714900001417845,1,58,test1,4,0.4472732999129221,-38.0
24,cjx,m,19,r,1,(-121.76378772032352, -121.76378772032348),26,-3,11,yes,x,5,x,0.602864500018768,1,59,test1,4,0.6030127999838442,-48.0
24,cjx,m,19,r,1,(-121.76378772032348, 121.76378772032349),24,-25,14,yes,x,5,x,0.43610280007123947,1,60,test1,4,0.43636440008413047,-70.0
24,cjx,m,19,r,1,(-121.76378772032352, -121.76378772032348),26,5,2,yes,x,5,x,0.5784968000371009,1,61,test1,4,0.5785949999699369,-40.0
24,cjx,m,19,r,1,(1.0544208940658713e-14, 172.20000000000002),23,-5,12,yes,x,5,x,0.5529285999946296,1,62,test1,4,0.553266100003384,-50.0
24,cjx,m,19,r,1,(-121.76378772032348, 121.76378772032349),24,-25,14,yes,x,5,x,0.4362195000285283,1,63,test1,4,0.4365068000042811,-70.0
24,cjx,m,19,r,1,(172.20000000000002, 0.0),21,-5,12,no,m,6,m,0.9947527000913396,1,64,test1,4,0.9949943999527022,-70.0
24,cjx,m,19,r,1,(121.76378772032349, 121.76378772032349),22,-3,11,yes,x,5,x,0.5605379000771791,1,65,test1,4,0.5607762000290677,-48.0
24,cjx,m,19,r,1,(1.0544208940658713e-14, 172.20000000000002),23,7,3,no,m,6,m,0.734684000024572,1,66,test1,4,0.7348235999234021,-48.0
24,cjx,m,19,r,1,(1.0544208940658713e-14, 172.20000000000002),23,7,3,yes,x,5,x,0.38050379999913275,1,67,test1,4,0.38070150010753423,-38.0
24,cjx,m,19,r,1,(172.20000000000002, 0.0),21,25,4,no,m,6,m,0.5896627999609336,1,68,test1,4,0.5899735999992117,-38.0
24,cjx,m,19,r,1,(121.76378772032346, -121.76378772032352),28,-5,12,yes,x,5,x,0.8151865999680012,1,69,test1,4,0.8153161000227556,-50.0
24,cjx,m,19,r,1,(172.20000000000002, 0.0),21,-25,14,no,m,6,m,0.6935693999985233,1,70,test1,4,0.6937369999941438,-50.0
24,cjx,m,19,r,1,(-121.76378772032352, -121.76378772032348),26,-3,11,no,m,6,m,0.6512713000411168,1,71,test1,4,0.6516217000316828,-50.0
24,cjx,m,19,r,1,(-121.76378772032348, 121.76378772032349),24,3,1,yes,x,5,x,0.6069348000455648,1,72,test1,4,0.6071429000003263,-42.0
24,cjx,m,19,r,1,(1.0544208940658713e-14, 172.20000000000002),23,-3,11,no,m,6,m,0.5857055999804288,1,73,test1,4,0.5859676999971271,-42.0
24,cjx,m,19,r,1,(121.76378772032346, -121.76378772032352),28,-25,14,no,m,6,m,0.7212642000522465,1,74,test1,4,0.7221930999075994,-42.0
24,cjx,m,19,r,1,(-121.76378772032352, -121.76378772032348),26,7,3,yes,x,5,x,0.4706630000146106,1,75,test1,4,0.4709579999325797,-38.0
24,cjx,m,19,r,1,(121.76378772032349, 121.76378772032349),22,-5,12,yes,x,5,x,0.5291035999543965,1,76,test1,4,0.5298688999610022,-50.0
24,cjx,m,19,r,1,(-172.20000000000002, 2.1088417881317425e-14),25,-7,13,yes,x,5,x,0.628152700024657,1,77,test1,4,0.6282812000717968,-52.0
24,cjx,m,19,r,1,(-3.163262682197613e-14, -172.20000000000002),27,-3,11,yes,x,5,m,1.1044018999673426,0,78,test1,4,1.104511000099592,-48.0
24,cjx,m,19,r,1,(121.76378772032349, 121.76378772032349),22,7,3,no,m,6,m,0.6223173000616953,1,79,test1,4,0.622440000064671,-48.0
24,cjx,m,19,r,1,(1.0544208940658713e-14, 172.20000000000002),23,-7,13,yes,x,5,x,0.48161279992200434,1,80,test1,4,0.48173279990442097,-52.0
24,cjx,m,19,r,1,(121.76378772032349, 121.76378772032349),22,-25,14,yes,x,5,x,0.40517829998862,1,81,test1,4,0.4054669999750331,-70.0
24,cjx,m,19,r,1,(1.0544208940658713e-14, 172.20000000000002),23,7,3,yes,x,5,x,0.42849760001990944,1,82,test1,4,0.42864579998422414,-38.0
24,cjx,m,19,r,1,(-121.76378772032352, -121.76378772032348),26,-25,14,yes,x,5,x,0.457483800011687,1,83,test1,4,0.4575906000100076,-70.0
24,cjx,m,19,r,1,(121.76378772032349, 121.76378772032349),22,25,4,yes,x,5,x,0.4558259000768885,1,84,test1,4,0.45615069998893887,-20.0
24,cjx,m,19,r,1,(121.76378772032346, -121.76378772032352),28,5,2,no,m,6,m,0.6692546000704169,1,85,test1,4,0.6696633000392467,-20.0
24,cjx,m,19,r,1,(-121.76378772032352, -121.76378772032348),26,25,4,no,m,6,m,0.6967901000753045,1,86,test1,4,0.6969459000974894,-20.0
24,cjx,m,19,r,1,(-3.163262682197613e-14, -172.20000000000002),27,-5,12,no,m,6,m,0.7971076000249013,1,87,test1,4,0.7973044000100344,-20.0
24,cjx,m,19,r,1,(-121.76378772032348, 121.76378772032349),24,-5,12,yes,x,5,x,0.6027292999206111,1,88,test1,4,0.603133299970068,-50.0
24,cjx,m,19,r,1,(121.76378772032346, -121.76378772032352),28,25,4,yes,x,5,x,0.45357550005428493,1,89,test1,4,0.45382379996590316,-20.0
24,cjx,m,19,r,1,(1.0544208940658713e-14, 172.20000000000002),23,5,2,yes,x,5,x,0.5558489999966696,1,90,test1,4,0.5560073999222368,-40.0
24,cjx,m,19,r,1,(-172.20000000000002, 2.1088417881317425e-14),25,-3,11,yes,x,5,x,0.5915741000790149,1,91,test1,4,0.5917044999077916,-48.0
24,cjx,m,19,r,1,(-3.163262682197613e-14, -172.20000000000002),27,3,1,no,m,6,m,0.7403806999791414,1,92,test1,4,0.7405059000011533,-48.0
24,cjx,m,19,r,1,(121.76378772032349, 121.76378772032349),22,-25,14,yes,x,5,x,0.4712374999653548,1,93,test1,4,0.47155489993747324,-70.0
24,cjx,m,19,r,1,(-3.163262682197613e-14, -172.20000000000002),27,3,1,yes,x,5,m,0.5442082999506965,0,94,test1,4,0.544329300057143,-42.0
24,cjx,m,19,r,1,(1.0544208940658713e-14, 172.20000000000002),23,-7,13,no,m,6,m,0.46546269999817014,1,95,test1,4,0.46582010004203767,-42.0
24,cjx,m,19,r,1,(-172.20000000000002, 2.1088417881317425e-14),25,3,1,no,m,6,m,0.6148914999794215,1,96,test1,4,0.615095500019379,-42.0
24,cjx,m,19,r,1,(1.0544208940658713e-14, 172.20000000000002),23,5,2,no,m,6,m,0.5610507000237703,1,1,test2,4,0.5611877999035642,-42.0
24,cjx,m,19,r,1,(121.76378772032346, -121.76378772032352),28,-3,11,yes,x,5,m,0.6308153999270871,0,2,test2,4,0.631030400050804,-48.0
24,cjx,m,19,r,1,(-121.76378772032352, -121.76378772032348),26,-7,13,yes,x,5,x,0.44827190006617457,1,3,test2,4,0.44898110011126846,-52.0
24,cjx,m,19,r,1,(1.0544208940658713e-14, 172.20000000000002),23,-7,13,yes,x,5,x,0.4127682999242097,1,4,test2,4,0.41299400001298636,-52.0
24,cjx,m,19,r,1,(-121.76378772032348, 121.76378772032349),24,7,3,yes,x,5,x,0.3497314000269398,1,5,test2,4,0.3502704999409616,-38.0
24,cjx,m,19,r,1,(121.76378772032349, 121.76378772032349),22,-3,11,yes,x,5,x,0.6375585000496358,1,6,test2,4,0.6379678000230342,-48.0
24,cjx,m,19,r,1,(-3.163262682197613e-14, -172.20000000000002),27,25,4,yes,x,5,x,0.42895640002097934,1,7,test2,4,0.4292744999984279,-20.0
24,cjx,m,19,r,1,(172.20000000000002, 0.0),21,-7,13,no,m,6,x,0.5138512999983504,0,8,test2,4,0.514059399953112,-20.0
24,cjx,m,19,r,1,(121.76378772032349, 121.76378772032349),22,3,1,yes,x,5,x,0.8827627000864595,1,9,test2,4,0.8831685999175534,-42.0
24,cjx,m,19,r,1,(172.20000000000002, 0.0),21,-25,14,yes,x,5,x,0.44644770002923906,1,10,test2,4,0.4466575999977067,-70.0
24,cjx,m,19,r,1,(172.20000000000002, 0.0),21,5,2,no,m,6,m,0.8262664000503719,1,11,test2,4,0.8263690000167117,-70.0
24,cjx,m,19,r,1,(172.20000000000002, 0.0),21,-7,13,yes,x,5,x,0.5716298999032006,1,12,test2,4,0.5717947999946773,-52.0
24,cjx,m,19,r,1,(-121.76378772032348, 121.76378772032349),24,7,3,yes,x,5,x,0.43779349990654737,1,13,test2,4,0.43804209993686527,-38.0
24,cjx,m,19,r,1,(172.20000000000002, 0.0),21,-7,13,yes,x,5,x,0.39739620010368526,1,14,test2,4,0.3978075999766588,-52.0
24,cjx,m,19,r,1,(121.76378772032346, -121.76378772032352),28,-3,11,no,m,6,m,0.7648375000571832,1,15,test2,4,0.7652864999836311,-52.0
24,cjx,m,19,r,1,(121.76378772032346, -121.76378772032352),28,25,4,no,m,6,m,0.6007185000926256,1,16,test2,4,0.6010891000041738,-52.0
24,cjx,m,19,r,1,(-172.20000000000002, 2.1088417881317425e-14),25,-25,14,no,m,6,m,0.6611397000961006,1,17,test2,4,0.661429800093174,-52.0
24,cjx,m,19,r,1,(1.0544208940658713e-14, 172.20000000000002),23,5,2,yes,x,5,x,0.4090097000589594,1,18,test2,4,0.4091117000207305,-40.0
24,cjx,m,19,r,1,(1.0544208940658713e-14, 172.20000000000002),23,3,1,yes,x,5,x,0.5325955000007525,1,19,test2,4,0.5327718999469653,-42.0
24,cjx,m,19,r,1,(-121.76378772032348, 121.76378772032349),24,-5,12,no,m,6,m,0.5769868000643328,1,20,test2,4,0.5776755000697449,-42.0
24,cjx,m,19,r,1,(121.76378772032349, 121.76378772032349),22,-7,13,no,m,6,m,0.7081651999615133,1,21,test2,4,0.7085097000235692,-42.0
24,cjx,m,19,r,1,(-121.76378772032348, 121.76378772032349),24,5,2,no,m,6,m,0.6032977000577375,1,22,test2,4,0.6033911000704393,-42.0
24,cjx,m,19,r,1,(-121.76378772032352, -121.76378772032348),26,25,4,yes,x,5,x,0.46185600000899285,1,23,test2,4,0.4620197999756783,-20.0
24,cjx,m,19,r,1,(-121.76378772032352, -121.76378772032348),26,-25,14,no,m,6,m,0.5449551000492647,1,24,test2,4,0.5452065999852493,-20.0
24,cjx,m,19,r,1,(-3.163262682197613e-14, -172.20000000000002),27,-3,11,no,m,6,m,0.5420308000175282,1,25,test2,4,0.5421529000159353,-20.0
24,cjx,m,19,r,1,(-3.163262682197613e-14, -172.20000000000002),27,-25,14,yes,x,5,x,0.40342210000380874,1,26,test2,4,0.40364799997769296,-70.0
24,cjx,m,19,r,1,(-3.163262682197613e-14, -172.20000000000002),27,-7,13,yes,x,5,x,0.43302400002721697,1,27,test2,4,0.4331246000947431,-52.0
24,cjx,m,19,r,1,(-121.76378772032348, 121.76378772032349),24,25,4,yes,x,5,x,0.4025260000489652,1,28,test2,4,0.40279399999417365,-20.0
24,cjx,m,19,r,1,(121.76378772032349, 121.76378772032349),22,-7,13,yes,x,5,x,0.508274499909021,1,29,test2,4,0.5083798000123352,-52.0
24,cjx,m,19,r,1,(121.76378772032349, 121.76378772032349),22,7,3,yes,x,5,x,0.3896344000240788,1,30,test2,4,0.3897757000522688,-38.0
24,cjx,m,19,r,1,(172.20000000000002, 0.0),21,25,4,yes,x,5,x,0.4528442999580875,1,31,test2,4,0.45310299994889647,-20.0
24,cjx,m,19,r,1,(-121.76378772032348, 121.76378772032349),24,-25,14,no,m,6,m,0.6451704000355676,1,32,test2,4,0.6452940000453964,-20.0
24,cjx,m,19,r,1,(121.76378772032349, 121.76378772032349),22,3,1,no,m,6,m,0.4896199000068009,1,33,test2,4,0.4899473999394104,-20.0
24,cjx,m,19,r,1,(121.76378772032346, -121.76378772032352),28,-7,13,no,m,6,m,0.5260481999721378,1,34,test2,4,0.5263490000506863,-20.0
24,cjx,m,19,r,1,(121.76378772032346, -121.76378772032352),28,-25,14,yes,x,5,x,0.3926262999884784,1,35,test2,4,0.39309060003142804,-70.0
24,cjx,m,19,r,1,(-121.76378772032352, -121.76378772032348),26,5,2,yes,x,5,x,0.6157747999532148,1,36,test2,4,0.6162414000136778,-40.0
24,cjx,m,19,r,1,(121.76378772032346, -121.76378772032352),28,7,3,no,m,6,m,0.5421131000621244,1,37,test2,4,0.5423494999995455,-40.0
24,cjx,m,19,r,1,(121.76378772032349, 121.76378772032349),22,5,2,yes,x,5,x,0.5033520000288263,1,38,test2,4,0.5036272000288591,-40.0
24,cjx,m,19,r,1,(1.0544208940658713e-14, 172.20000000000002),23,-25,14,yes,x,5,x,0.38448659994173795,1,39,test2,4,0.38496609998401254,-70.0
24,cjx,m,19,r,1,(172.20000000000002, 0.0),21,3,1,yes,x,5,m,0.7543413999956101,0,40,test2,4,0.7548593999817967,-42.0
24,cjx,m,19,r,1,(-172.20000000000002, 2.1088417881317425e-14),25,-3,11,no,m,6,m,0.5652275000466034,1,41,test2,4,0.5656403000466526,-42.0
24,cjx,m,19,r,1,(121.76378772032349, 121.76378772032349),22,5,2,no,m,6,m,0.5600515999831259,1,42,test2,4,0.5602101000258699,-42.0
24,cjx,m,19,r,1,(121.76378772032346, -121.76378772032352),28,3,1,yes,x,5,x,0.9574742000550032,1,43,test2,4,0.9576856000348926,-42.0
24,cjx,m,19,r,1,(-121.76378772032348, 121.76378772032349),24,5,2,yes,x,5,x,0.4243618999607861,1,44,test2,4,0.4247013001004234,-40.0
24,cjx,m,19,r,1,(-121.76378772032352, -121.76378772032348),26,25,4,yes,x,5,x,0.4063470000401139,1,45,test2,4,0.40663590002804995,-20.0
24,cjx,m,19,r,1,(1.0544208940658713e-14, 172.20000000000002),23,-3,11,yes,x,5,x,0.8234423999674618,1,46,test2,4,0.8235746000427753,-48.0
24,cjx,m,19,r,1,(-3.163262682197613e-14, -172.20000000000002),27,-7,13,yes,x,5,x,0.5395839000120759,1,47,test2,4,0.5399055000161752,-52.0
24,cjx,m,19,r,1,(-121.76378772032352, -121.76378772032348),26,3,1,yes,x,5,m,0.6899959000293165,0,48,test2,4,0.6902945999754593,-42.0
24,cjx,m,19,r,1,(172.20000000000002, 0.0),21,25,4,yes,x,5,x,0.4523615000071004,1,49,test2,4,0.45248109998647124,-20.0
24,cjx,m,19,r,1,(-121.76378772032352, -121.76378772032348),26,5,2,no,m,6,m,0.5936375000746921,1,50,test2,4,0.5938297000247985,-20.0
24,cjx,m,19,r,1,(-121.76378772032352, -121.76378772032348),26,-7,13,no,m,6,m,0.7468651999952272,1,51,test2,4,0.747231199988164,-20.0
24,cjx,m,19,r,1,(-172.20000000000002, 2.1088417881317425e-14),25,25,4,yes,x,5,x,0.471010799985379,1,52,test2,4,0.4711305999662727,-20.0
24,cjx,m,19,r,1,(-172.20000000000002, 2.1088417881317425e-14),25,-25,14,yes,x,5,x,0.4235624000430107,1,53,test2,4,0.4241730000358075,-70.0
24,cjx,m,19,r,1,(1.0544208940658713e-14, 172.20000000000002),23,-5,12,yes,x,5,x,0.5086673999903724,1,54,test2,4,0.5088029999751598,-50.0
24,cjx,m,19,r,1,(-3.163262682197613e-14, -172.20000000000002),27,5,2,yes,x,5,x,0.7843308000592515,1,55,test2,4,0.7847620999673381,-40.0
24,cjx,m,19,r,1,(1.0544208940658713e-14, 172.20000000000002),23,-25,14,no,m,6,m,0.8148260000161827,1,56,test2,4,0.8151766000082716,-40.0
24,cjx,m,19,r,1,(-121.76378772032348, 121.76378772032349),24,-5,12,yes,x,5,x,0.46651329996529967,1,57,test2,4,0.4666148000396788,-50.0
