subj_id,subj_name,subj_gender ,subj_age,subj_handedness,subj_runNum,tar_l_x,tar_l_y,loc_code,tar_ori,tar_code,tar_pre ,cor_response,pre_code,subj_response,RT,correct,trial_num,type,bloc_num,dur, real_tar
2,lsh,f,20,r,1,(-121.76378772032352, -121.76378772032348),26,-3,11,no,m,6,m,1.4046109000046272,1,1,prac,0,1.405413000000408,0.0
2,lsh,f,20,r,1,(-121.76378772032348, 121.76378772032349),24,-25,14,no,m,6,m,0.9869198999949731,1,2,prac,0,0.9870286999939708,0.0
2,lsh,f,20,r,1,(-121.76378772032352, -121.76378772032348),26,7,3,yes,x,5,m,0.9723358000046574,0,3,prac,0,0.9725794999976642,-38.0
2,lsh,f,20,r,1,(121.76378772032346, -121.76378772032352),28,-7,13,yes,x,5,x,1.0996765000018058,1,4,prac,0,1.0999710000032792,-52.0
2,lsh,f,20,r,1,(121.76378772032349, 121.76378772032349),22,7,3,yes,x,5,x,0.8103531000087969,1,5,prac,0,0.8106173999985913,-38.0
2,lsh,f,20,r,1,(-121.76378772032348, 121.76378772032349),24,-3,11,yes,x,5,m,0.8801296000019647,0,6,prac,0,0.8804200000013225,-48.0
2,lsh,f,20,r,1,(-172.20000000000002, 2.1088417881317425e-14),25,-5,12,yes,x,5,m,1.1223777999985032,0,7,prac,0,1.1225613999995403,-50.0
2,lsh,f,20,r,1,(121.76378772032349, 121.76378772032349),22,7,3,no,m,6,m,1.5847817000030773,1,8,prac,0,1.58503090000886,-50.0
2,lsh,f,20,r,1,(1.0544208940658713e-14, 172.20000000000002),23,-3,11,no,m,6,m,1.4992118999944068,1,9,prac,0,1.499425699992571,-50.0
2,lsh,f,20,r,1,(-121.76378772032352, -121.76378772032348),26,5,2,yes,x,5,m,1.6417061999964062,0,10,prac,0,1.6419395999982953,-40.0
2,lsh,f,20,r,1,(-121.76378772032352, -121.76378772032348),26,5,2,no,m,6,m,1.403734000006807,1,11,prac,0,1.4038334999931976,-40.0
2,lsh,f,20,r,1,(-172.20000000000002, 2.1088417881317425e-14),25,-7,13,yes,x,5,x,0.7584579000103986,1,12,prac,0,0.7585593999974662,-52.0
2,lsh,f,20,r,1,(-121.76378772032348, 121.76378772032349),24,5,2,yes,x,5,x,0.7712286999885691,1,13,prac,0,0.771327399997972,-40.0
2,lsh,f,20,r,1,(-3.163262682197613e-14, -172.20000000000002),27,-3,11,yes,x,5,m,1.8839885000052163,0,14,prac,0,1.8841768999991473,-48.0
2,lsh,f,20,r,1,(-121.76378772032348, 121.76378772032349),24,7,3,no,m,6,m,1.9719850000110455,1,15,prac,0,1.9725886000087485,-48.0
2,lsh,f,20,r,1,(-172.20000000000002, 2.1088417881317425e-14),25,-25,14,yes,x,5,x,0.6574254000006476,1,16,prac,0,0.6577049999905284,-70.0
2,lsh,f,20,r,1,(121.76378772032349, 121.76378772032349),22,5,2,yes,x,5,x,0.6999280000018189,1,17,prac,0,0.7001263999991352,-40.0
2,lsh,f,20,r,1,(1.0544208940658713e-14, 172.20000000000002),23,5,2,no,m,6,None,None,0,18,prac,0,1.9800887999881525,-40.0
2,lsh,f,20,r,1,(-172.20000000000002, 2.1088417881317425e-14),25,-25,14,no,m,6,x,1.4794474999944214,0,19,prac,0,1.4798385999893071,-40.0
2,lsh,f,20,r,1,(172.20000000000002, 0.0),21,-7,13,yes,x,5,x,0.6297177999949781,1,20,prac,0,0.6298124000022653,-52.0
2,lsh,f,20,r,1,(-172.20000000000002, 2.1088417881317425e-14),25,-7,13,yes,x,5,x,0.9473729000019375,1,1,test1,1,0.9479607000102988,-52.0
2,lsh,f,20,r,1,(-121.76378772032352, -121.76378772032348),26,-25,14,yes,x,5,x,0.6172850000002654,1,2,test1,1,0.6173841999989236,-70.0
2,lsh,f,20,r,1,(121.76378772032346, -121.76378772032352),28,25,4,yes,x,5,x,0.5329634999943664,1,3,test1,1,0.5330746000108775,-20.0
2,lsh,f,20,r,1,(-3.163262682197613e-14, -172.20000000000002),27,25,4,yes,x,5,x,0.5250953000067966,1,4,test1,1,0.5253285000071628,-20.0
2,lsh,f,20,r,1,(1.0544208940658713e-14, 172.20000000000002),23,-7,13,yes,x,5,x,0.6422937000024831,1,5,test1,1,0.6424093999958131,-52.0
2,lsh,f,20,r,1,(121.76378772032349, 121.76378772032349),22,25,4,yes,x,5,x,0.5207568000041647,1,6,test1,1,0.5215827000065474,-20.0
2,lsh,f,20,r,1,(-3.163262682197613e-14, -172.20000000000002),27,3,1,yes,x,5,m,0.8018250000022817,0,7,test1,1,0.802037500005099,-42.0
2,lsh,f,20,r,1,(172.20000000000002, 0.0),21,-25,14,yes,x,5,x,0.5616882000031183,1,8,test1,1,0.5623451999999816,-70.0
2,lsh,f,20,r,1,(121.76378772032349, 121.76378772032349),22,5,2,no,m,6,m,1.1109562999918126,1,9,test1,1,1.1111942999996245,-70.0
2,lsh,f,20,r,1,(121.76378772032349, 121.76378772032349),22,-5,12,yes,x,5,x,0.6291671999933897,1,10,test1,1,0.6294027999974787,-50.0
2,lsh,f,20,r,1,(-121.76378772032352, -121.76378772032348),26,25,4,yes,x,5,x,0.5589152000029571,1,11,test1,1,0.5591206000099191,-20.0
2,lsh,f,20,r,1,(172.20000000000002, 0.0),21,7,3,yes,x,5,x,0.571968599993852,1,12,test1,1,0.5722781000076793,-38.0
2,lsh,f,20,r,1,(121.76378772032349, 121.76378772032349),22,-7,13,yes,x,5,x,0.4926592999981949,1,13,test1,1,0.49283219999051653,-52.0
2,lsh,f,20,r,1,(172.20000000000002, 0.0),21,3,1,no,m,6,m,1.067187799999374,1,14,test1,1,1.0673588999925414,-52.0
2,lsh,f,20,r,1,(-121.76378772032352, -121.76378772032348),26,3,1,no,m,6,m,1.198778299993137,1,15,test1,1,1.1990244000044186,-52.0
2,lsh,f,20,r,1,(-121.76378772032348, 121.76378772032349),24,5,2,yes,x,5,x,0.7016520000033779,1,16,test1,1,0.702090099992347,-40.0
2,lsh,f,20,r,1,(-172.20000000000002, 2.1088417881317425e-14),25,3,1,no,m,6,m,1.35289379999449,1,17,test1,1,1.353471599999466,-40.0
2,lsh,f,20,r,1,(-3.163262682197613e-14, -172.20000000000002),27,3,1,yes,x,5,x,1.2195045999978902,1,18,test1,1,1.2197325000015553,-42.0
2,lsh,f,20,r,1,(1.0544208940658713e-14, 172.20000000000002),23,-7,13,yes,x,5,x,0.6027401000028476,1,19,test1,1,0.6033248000021558,-52.0
2,lsh,f,20,r,1,(172.20000000000002, 0.0),21,25,4,yes,x,5,x,0.5110687999986112,1,20,test1,1,0.5112286000075983,-20.0
2,lsh,f,20,r,1,(172.20000000000002, 0.0),21,25,4,no,m,6,m,0.9532435000000987,1,21,test1,1,0.9535395999992033,-20.0
2,lsh,f,20,r,1,(1.0544208940658713e-14, 172.20000000000002),23,5,2,yes,x,5,x,0.5984958999906667,1,22,test1,1,0.5992396999936318,-40.0
2,lsh,f,20,r,1,(-121.76378772032348, 121.76378772032349),24,5,2,no,m,6,m,0.7509295000054408,1,23,test1,1,0.7511723999923561,-40.0
2,lsh,f,20,r,1,(-121.76378772032352, -121.76378772032348),26,3,1,yes,x,5,m,0.9076882999943336,0,24,test1,1,0.907846400004928,-42.0
2,lsh,f,20,r,1,(1.0544208940658713e-14, 172.20000000000002),23,7,3,no,m,6,m,1.3232966999930795,1,25,test1,1,1.3236452999990433,-42.0
2,lsh,f,20,r,1,(121.76378772032346, -121.76378772032352),28,-25,14,yes,x,5,x,0.49127329999464564,1,26,test1,1,0.4915497000038158,-70.0
2,lsh,f,20,r,1,(172.20000000000002, 0.0),21,-7,13,no,m,6,m,0.856011199997738,1,27,test1,1,0.8561348999937763,-70.0
2,lsh,f,20,r,1,(-172.20000000000002, 2.1088417881317425e-14),25,-3,11,yes,x,5,x,0.9724511999957031,1,28,test1,1,0.9726280999893788,-48.0
2,lsh,f,20,r,1,(121.76378772032349, 121.76378772032349),22,3,1,yes,x,5,x,1.1094129999983124,1,29,test1,1,1.1096205999929225,-42.0
2,lsh,f,20,r,1,(121.76378772032349, 121.76378772032349),22,25,4,yes,x,5,x,0.5148057000042172,1,30,test1,1,0.5150331000040751,-20.0
2,lsh,f,20,r,1,(-172.20000000000002, 2.1088417881317425e-14),25,-3,11,yes,x,5,m,0.7735052000061842,0,31,test1,1,0.7736650000006193,-48.0
2,lsh,f,20,r,1,(-121.76378772032352, -121.76378772032348),26,25,4,yes,x,5,x,0.4895605999918189,1,32,test1,1,0.49012230000516865,-20.0
2,lsh,f,20,r,1,(-172.20000000000002, 2.1088417881317425e-14),25,7,3,yes,x,5,x,0.5509550999995554,1,33,test1,1,0.5511745999974664,-38.0
2,lsh,f,20,r,1,(-172.20000000000002, 2.1088417881317425e-14),25,25,4,no,m,6,m,0.9411977999989176,1,34,test1,1,0.9414214999997057,-38.0
2,lsh,f,20,r,1,(172.20000000000002, 0.0),21,7,3,yes,x,5,x,0.5850989999889862,1,35,test1,1,0.5854607999935979,-38.0
2,lsh,f,20,r,1,(121.76378772032349, 121.76378772032349),22,-7,13,no,m,6,m,0.7245850999897812,1,36,test1,1,0.7247719000006327,-38.0
2,lsh,f,20,r,1,(-121.76378772032352, -121.76378772032348),26,25,4,no,m,6,m,1.2453818000067258,1,37,test1,1,1.2455980000086129,-38.0
2,lsh,f,20,r,1,(-121.76378772032352, -121.76378772032348),26,-3,11,yes,x,5,m,0.6790751999942586,0,38,test1,1,0.6794584000017494,-48.0
2,lsh,f,20,r,1,(-3.163262682197613e-14, -172.20000000000002),27,-7,13,yes,x,5,x,0.6096142000023974,1,39,test1,1,0.609831399997347,-52.0
2,lsh,f,20,r,1,(-121.76378772032348, 121.76378772032349),24,-3,11,yes,x,5,x,1.121855899997172,1,40,test1,1,1.12231759999122,-48.0
2,lsh,f,20,r,1,(1.0544208940658713e-14, 172.20000000000002),23,25,4,no,m,6,m,0.7400819999893429,1,41,test1,1,0.7401825999986613,-48.0
2,lsh,f,20,r,1,(1.0544208940658713e-14, 172.20000000000002),23,-3,11,no,m,6,m,1.0191789000091376,1,42,test1,1,1.0197999000083655,-48.0
2,lsh,f,20,r,1,(121.76378772032349, 121.76378772032349),22,-25,14,no,m,6,m,0.8975897000054829,1,43,test1,1,0.8980183000094257,-48.0
2,lsh,f,20,r,1,(-121.76378772032352, -121.76378772032348),26,7,3,yes,x,5,x,0.8660429000010481,1,44,test1,1,0.8664813000068534,-38.0
2,lsh,f,20,r,1,(-121.76378772032348, 121.76378772032349),24,25,4,yes,x,5,x,0.48038290000113193,1,45,test1,1,0.4806603000033647,-20.0
2,lsh,f,20,r,1,(-3.163262682197613e-14, -172.20000000000002),27,-5,12,yes,x,5,x,0.6889727999950992,1,46,test1,1,0.6890744999982417,-50.0
2,lsh,f,20,r,1,(-121.76378772032348, 121.76378772032349),24,-5,12,yes,x,5,x,0.7293396000022767,1,47,test1,1,0.7295798999984981,-50.0
2,lsh,f,20,r,1,(172.20000000000002, 0.0),21,5,2,no,m,6,m,0.8273658000107389,1,48,test1,1,0.8277270000107819,-50.0
2,lsh,f,20,r,1,(121.76378772032346, -121.76378772032352),28,3,1,yes,x,5,m,1.0350162999966415,0,49,test1,1,1.0351196999981767,-42.0
2,lsh,f,20,r,1,(-3.163262682197613e-14, -172.20000000000002),27,5,2,yes,x,5,x,0.5654469000000972,1,50,test1,1,0.565579499991145,-40.0
2,lsh,f,20,r,1,(1.0544208940658713e-14, 172.20000000000002),23,-25,14,yes,x,5,x,0.45448660000693053,1,51,test1,1,0.45476579999376554,-70.0
2,lsh,f,20,r,1,(-121.76378772032352, -121.76378772032348),26,7,3,yes,x,5,x,0.6764931999932742,1,52,test1,1,0.676611300004879,-38.0
2,lsh,f,20,r,1,(1.0544208940658713e-14, 172.20000000000002),23,3,1,yes,x,5,x,0.6164490000082878,1,53,test1,1,0.6166124000010313,-42.0
2,lsh,f,20,r,1,(1.0544208940658713e-14, 172.20000000000002),23,5,2,no,m,6,m,0.7988898999901721,1,54,test1,1,0.7991488999978174,-42.0
2,lsh,f,20,r,1,(-3.163262682197613e-14, -172.20000000000002),27,5,2,no,m,6,m,0.9552223000064259,1,55,test1,1,0.955320599998231,-42.0
2,lsh,f,20,r,1,(1.0544208940658713e-14, 172.20000000000002),23,3,1,no,m,6,m,0.8277713999996195,1,56,test1,1,0.8280108000035398,-42.0
2,lsh,f,20,r,1,(121.76378772032346, -121.76378772032352),28,-5,12,yes,x,5,x,0.5732803999999305,1,57,test1,1,0.5734229999943636,-50.0
2,lsh,f,20,r,1,(-121.76378772032348, 121.76378772032349),24,25,4,yes,x,5,x,0.4634178999986034,1,58,test1,1,0.46351870000944473,-20.0
2,lsh,f,20,r,1,(1.0544208940658713e-14, 172.20000000000002),23,-5,12,yes,x,5,x,0.5095665999979246,1,59,test1,1,0.5099877000029664,-50.0
2,lsh,f,20,r,1,(-121.76378772032348, 121.76378772032349),24,7,3,yes,x,5,x,0.5183736999897519,1,60,test1,1,0.5188376000005519,-38.0
2,lsh,f,20,r,1,(-121.76378772032352, -121.76378772032348),26,-5,12,yes,x,5,x,1.175593599997228,1,61,test1,1,1.1757223999884445,-50.0
2,lsh,f,20,r,1,(-121.76378772032352, -121.76378772032348),26,3,1,yes,x,5,m,0.7745890000078361,0,62,test1,1,0.7746886000095401,-42.0
2,lsh,f,20,r,1,(-3.163262682197613e-14, -172.20000000000002),27,-7,13,yes,x,5,x,0.6719954000000143,1,63,test1,1,0.6721158000000287,-52.0
2,lsh,f,20,r,1,(121.76378772032346, -121.76378772032352),28,3,1,yes,x,5,x,1.1592661000031512,1,64,test1,1,1.1593633000011323,-42.0
2,lsh,f,20,r,1,(-121.76378772032348, 121.76378772032349),24,7,3,no,m,6,m,1.0470995999930892,1,65,test1,1,1.0476696000114316,-42.0
2,lsh,f,20,r,1,(-121.76378772032352, -121.76378772032348),26,7,3,no,m,6,m,0.951201800009585,1,66,test1,1,0.9513284000131534,-42.0
2,lsh,f,20,r,1,(172.20000000000002, 0.0),21,-5,12,no,m,6,m,1.2415210000035586,1,67,test1,1,1.2418456000013975,-42.0
2,lsh,f,20,r,1,(-172.20000000000002, 2.1088417881317425e-14),25,5,2,yes,x,5,x,0.5611690999940038,1,68,test1,1,0.5615011000045342,-40.0
2,lsh,f,20,r,1,(-172.20000000000002, 2.1088417881317425e-14),25,-7,13,yes,x,5,x,0.4174209000047995,1,69,test1,1,0.4177258999989135,-52.0
2,lsh,f,20,r,1,(-172.20000000000002, 2.1088417881317425e-14),25,7,3,yes,x,5,x,0.47753519999969285,1,70,test1,1,0.4778840999933891,-38.0
2,lsh,f,20,r,1,(-121.76378772032348, 121.76378772032349),24,5,2,yes,x,5,x,0.5065485999948578,1,71,test1,1,0.5066612999944482,-40.0
2,lsh,f,20,r,1,(-121.76378772032348, 121.76378772032349),24,3,1,yes,x,5,x,0.7014267999911681,1,72,test1,1,0.7015477999957511,-42.0
2,lsh,f,20,r,1,(-172.20000000000002, 2.1088417881317425e-14),25,3,1,yes,x,5,x,0.49212480000278447,1,73,test1,1,0.4922549000038998,-42.0
2,lsh,f,20,r,1,(121.76378772032346, -121.76378772032352),28,5,2,yes,x,5,m,0.8272781999985455,0,74,test1,1,0.8275076999998419,-40.0
2,lsh,f,20,r,1,(121.76378772032346, -121.76378772032352),28,25,4,yes,x,5,x,0.5214090999943437,1,75,test1,1,0.5215270999906352,-20.0
2,lsh,f,20,r,1,(-121.76378772032348, 121.76378772032349),24,3,1,yes,x,5,x,0.6281085000082385,1,76,test1,1,0.628270799992606,-42.0
2,lsh,f,20,r,1,(-121.76378772032348, 121.76378772032349),24,3,1,no,m,6,m,0.9101687999936985,1,77,test1,1,0.9102864000014961,-42.0
2,lsh,f,20,r,1,(-121.76378772032348, 121.76378772032349),24,-5,12,no,m,6,m,0.9398593000078108,1,78,test1,1,0.93999420000182,-42.0
2,lsh,f,20,r,1,(-3.163262682197613e-14, -172.20000000000002),27,-25,14,yes,x,5,x,0.5133091000025161,1,79,test1,1,0.513501699999324,-70.0
2,lsh,f,20,r,1,(-3.163262682197613e-14, -172.20000000000002),27,25,4,yes,x,5,x,0.5239778999966802,1,80,test1,1,0.5242518000013661,-20.0
2,lsh,f,20,r,1,(121.76378772032349, 121.76378772032349),22,-25,14,yes,x,5,x,0.5790024000016274,1,81,test1,1,0.579179499996826,-70.0
2,lsh,f,20,r,1,(-172.20000000000002, 2.1088417881317425e-14),25,-5,12,yes,x,5,x,0.5274104999989504,1,82,test1,1,0.5279149000125472,-50.0
2,lsh,f,20,r,1,(121.76378772032346, -121.76378772032352),28,5,2,no,m,6,m,0.8791657999972813,1,83,test1,1,0.8792633000120986,-50.0
2,lsh,f,20,r,1,(121.76378772032346, -121.76378772032352),28,-25,14,no,m,6,m,0.7610576000006404,1,84,test1,1,0.7612952000054065,-50.0
2,lsh,f,20,r,1,(-121.76378772032348, 121.76378772032349),24,-7,13,no,m,6,m,0.7918321999895852,1,85,test1,1,0.7919296999898506,-50.0
2,lsh,f,20,r,1,(121.76378772032349, 121.76378772032349),22,5,2,yes,x,5,x,0.6956303000042681,1,86,test1,1,0.6958448000077624,-40.0
2,lsh,f,20,r,1,(-121.76378772032352, -121.76378772032348),26,5,2,no,m,6,m,0.7222136000054888,1,87,test1,1,0.7223427999997512,-40.0
2,lsh,f,20,r,1,(1.0544208940658713e-14, 172.20000000000002),23,-3,11,yes,x,5,m,1.3364597000036156,0,88,test1,1,1.336689399991883,-48.0
2,lsh,f,20,r,1,(121.76378772032346, -121.76378772032352),28,-5,12,yes,x,5,x,0.6603010999970138,1,89,test1,1,0.6608506999909878,-50.0
2,lsh,f,20,r,1,(172.20000000000002, 0.0),21,-7,13,yes,x,5,x,0.5852964000077918,1,90,test1,1,0.5853976999933366,-52.0
2,lsh,f,20,r,1,(-172.20000000000002, 2.1088417881317425e-14),25,25,4,yes,x,5,x,0.48095749999629334,1,91,test1,1,0.48130850000598,-20.0
2,lsh,f,20,r,1,(121.76378772032349, 121.76378772032349),22,25,4,no,m,6,m,0.7573629000107758,1,92,test1,1,0.7575901000091108,-20.0
2,lsh,f,20,r,1,(-3.163262682197613e-14, -172.20000000000002),27,-5,12,no,m,6,m,0.6359505000000354,1,93,test1,1,0.6364445999934105,-20.0
2,lsh,f,20,r,1,(121.76378772032349, 121.76378772032349),22,3,1,no,m,6,m,0.6054721999971662,1,94,test1,1,0.6055995000060648,-20.0
2,lsh,f,20,r,1,(-3.163262682197613e-14, -172.20000000000002),27,-3,11,no,m,6,m,0.8606201999937184,1,95,test1,1,0.8609962000045925,-20.0
2,lsh,f,20,r,1,(-172.20000000000002, 2.1088417881317425e-14),25,-5,12,no,m,6,m,0.683183300003293,1,96,test1,1,0.6833262000000104,-20.0
2,lsh,f,20,r,1,(-172.20000000000002, 2.1088417881317425e-14),25,3,1,yes,x,5,x,0.7833613000111654,1,1,test2,1,0.7836084000009578,-42.0
2,lsh,f,20,r,1,(121.76378772032349, 121.76378772032349),22,-3,11,no,m,6,m,0.823823500002618,1,2,test2,1,0.8239525999961188,-42.0
2,lsh,f,20,r,1,(-172.20000000000002, 2.1088417881317425e-14),25,-25,14,yes,x,5,x,0.47678529999393504,1,3,test2,1,0.4769049000024097,-70.0
2,lsh,f,20,r,1,(121.76378772032349, 121.76378772032349),22,-5,12,no,m,6,m,0.8159111999993911,1,4,test2,1,0.8160295999987284,-70.0
2,lsh,f,20,r,1,(-172.20000000000002, 2.1088417881317425e-14),25,-3,11,no,m,6,m,0.6251714999962132,1,5,test2,1,0.6252985000028275,-70.0
2,lsh,f,20,r,1,(-3.163262682197613e-14, -172.20000000000002),27,7,3,yes,x,5,x,0.5616041000030236,1,6,test2,1,0.561764400001266,-38.0
2,lsh,f,20,r,1,(-3.163262682197613e-14, -172.20000000000002),27,7,3,no,m,6,m,0.6913510000013048,1,7,test2,1,0.6916471000004094,-38.0
2,lsh,f,20,r,1,(172.20000000000002, 0.0),21,-3,11,yes,x,5,x,0.7144211999984691,1,8,test2,1,0.7145334999950137,-48.0
2,lsh,f,20,r,1,(121.76378772032349, 121.76378772032349),22,5,2,yes,x,5,x,0.6357009999919683,1,9,test2,1,0.6359544999868376,-40.0
2,lsh,f,20,r,1,(1.0544208940658713e-14, 172.20000000000002),23,7,3,yes,x,5,x,0.4830216999980621,1,10,test2,1,0.48312679999799,-38.0
2,lsh,f,20,r,1,(-172.20000000000002, 2.1088417881317425e-14),25,-25,14,yes,x,5,x,0.4859045000048354,1,11,test2,1,0.4860057999903802,-70.0
2,lsh,f,20,r,1,(121.76378772032346, -121.76378772032352),28,-3,11,yes,x,5,m,0.9284250000055181,0,12,test2,1,0.9285830000007991,-48.0
2,lsh,f,20,r,1,(121.76378772032349, 121.76378772032349),22,-7,13,yes,x,5,x,0.4976389000075869,1,13,test2,1,0.4979684999998426,-52.0
2,lsh,f,20,r,1,(172.20000000000002, 0.0),21,-7,13,yes,x,5,x,0.5999140000058105,1,14,test2,1,0.600013699993724,-52.0
2,lsh,f,20,r,1,(121.76378772032349, 121.76378772032349),22,-3,11,yes,x,5,x,0.586488000000827,1,15,test2,1,0.5871734999964247,-48.0
2,lsh,f,20,r,1,(-121.76378772032352, -121.76378772032348),26,-3,11,yes,x,5,m,0.8722450999921421,0,16,test2,1,0.8724723999912385,-48.0
2,lsh,f,20,r,1,(121.76378772032346, -121.76378772032352),28,7,3,yes,x,5,x,0.5790113999973983,1,17,test2,1,0.5791083999938564,-38.0
2,lsh,f,20,r,1,(-121.76378772032352, -121.76378772032348),26,-5,12,no,m,6,m,1.0079595999995945,1,18,test2,1,1.0082538000133354,-38.0
2,lsh,f,20,r,1,(172.20000000000002, 0.0),21,25,4,yes,x,5,x,0.4825442000001203,1,19,test2,1,0.4828288999997312,-20.0
2,lsh,f,20,r,1,(-172.20000000000002, 2.1088417881317425e-14),25,25,4,yes,x,5,x,0.4193556999962311,1,20,test2,1,0.4195703000004869,-20.0
2,lsh,f,20,r,1,(121.76378772032346, -121.76378772032352),28,5,2,yes,x,5,x,0.71944970000186,1,21,test2,1,0.7195475999906193,-40.0
2,lsh,f,20,r,1,(-121.76378772032348, 121.76378772032349),24,-5,12,yes,x,5,x,0.7052658000029624,1,22,test2,1,0.7053940999903716,-50.0
2,lsh,f,20,r,1,(121.76378772032346, -121.76378772032352),28,-7,13,yes,x,5,x,0.6554348000063328,1,23,test2,1,0.6555483999982243,-52.0
2,lsh,f,20,r,1,(172.20000000000002, 0.0),21,-25,14,no,m,6,m,0.8430624000029638,1,24,test2,1,0.8432904000073904,-52.0
2,lsh,f,20,r,1,(1.0544208940658713e-14, 172.20000000000002),23,7,3,yes,x,5,x,0.4732059000089066,1,25,test2,1,0.4736468000046443,-38.0
2,lsh,f,20,r,1,(-121.76378772032352, -121.76378772032348),26,-3,11,no,m,6,m,0.7555599000043003,1,26,test2,1,0.7556642999988981,-38.0
2,lsh,f,20,r,1,(-121.76378772032352, -121.76378772032348),26,-25,14,no,m,6,m,0.9275745000049938,1,27,test2,1,0.9281590999889886,-38.0
2,lsh,f,20,r,1,(121.76378772032349, 121.76378772032349),22,7,3,yes,x,5,x,0.6400253000028897,1,28,test2,1,0.6402469000022393,-38.0
2,lsh,f,20,r,1,(-3.163262682197613e-14, -172.20000000000002),27,5,2,yes,x,5,x,1.042728000000352,1,29,test2,1,1.0431437999941409,-40.0
2,lsh,f,20,r,1,(-121.76378772032352, -121.76378772032348),26,-25,14,yes,x,5,x,0.5312916999973822,1,30,test2,1,0.5316893999988679,-70.0
2,lsh,f,20,r,1,(-121.76378772032348, 121.76378772032349),24,-7,13,yes,x,5,x,0.45206510000571143,1,31,test2,1,0.4524600000004284,-52.0
2,lsh,f,20,r,1,(1.0544208940658713e-14, 172.20000000000002),23,-25,14,yes,x,5,x,0.5400995999953011,1,32,test2,1,0.5402941999927862,-70.0
2,lsh,f,20,r,1,(121.76378772032346, -121.76378772032352),28,-3,11,no,m,6,m,0.6750849000090966,1,33,test2,1,0.6756515999877593,-70.0
2,lsh,f,20,r,1,(172.20000000000002, 0.0),21,7,3,no,m,6,m,0.8543352999986382,1,34,test2,1,0.8544448000029661,-70.0
2,lsh,f,20,r,1,(121.76378772032346, -121.76378772032352),28,7,3,yes,x,5,x,0.5433928999991622,1,35,test2,1,0.5435174999875017,-38.0
2,lsh,f,20,r,1,(1.0544208940658713e-14, 172.20000000000002),23,-5,12,yes,x,5,x,0.5071992999874055,1,36,test2,1,0.5073696000035852,-50.0
2,lsh,f,20,r,1,(121.76378772032349, 121.76378772032349),22,7,3,no,m,6,m,0.7419997999968473,1,37,test2,1,0.7421438000019407,-50.0
2,lsh,f,20,r,1,(-3.163262682197613e-14, -172.20000000000002),27,-25,14,no,m,6,m,0.6946136999904411,1,38,test2,1,0.6948178999882657,-50.0
2,lsh,f,20,r,1,(172.20000000000002, 0.0),21,5,2,yes,x,5,x,0.7194865999917965,1,39,test2,1,0.7197486999939429,-40.0
2,lsh,f,20,r,1,(-121.76378772032348, 121.76378772032349),24,-25,14,yes,x,5,x,0.6129014000034658,1,40,test2,1,0.6131311000062851,-70.0
2,lsh,f,20,r,1,(-3.163262682197613e-14, -172.20000000000002),27,-3,11,yes,x,5,x,1.1332427000015741,1,41,test2,1,1.1335271999996621,-48.0
2,lsh,f,20,r,1,(1.0544208940658713e-14, 172.20000000000002),23,3,1,yes,x,5,x,1.1431463999906555,1,42,test2,1,1.1435230000060983,-42.0
2,lsh,f,20,r,1,(-121.76378772032348, 121.76378772032349),24,7,3,yes,x,5,x,0.6598052000044845,1,43,test2,1,0.6599214000016218,-38.0
2,lsh,f,20,r,1,(121.76378772032346, -121.76378772032352),28,-3,11,yes,x,5,x,1.1085842000029515,1,44,test2,1,1.1087312999879941,-48.0
2,lsh,f,20,r,1,(121.76378772032346, -121.76378772032352),28,-7,13,yes,x,5,x,0.5647641999967163,1,45,test2,1,0.5650600999942981,-52.0
2,lsh,f,20,r,1,(-121.76378772032352, -121.76378772032348),26,5,2,yes,x,5,x,1.0369633999944199,1,46,test2,1,1.0370767999993404,-40.0
2,lsh,f,20,r,1,(-172.20000000000002, 2.1088417881317425e-14),25,-5,12,yes,x,5,x,0.530500300010317,1,47,test2,1,0.5306294000038179,-50.0
2,lsh,f,20,r,1,(-121.76378772032348, 121.76378772032349),24,-3,11,yes,x,5,x,0.5232523000013316,1,48,test2,1,0.5234096000058344,-48.0
2,lsh,f,20,r,1,(-3.163262682197613e-14, -172.20000000000002),27,7,3,yes,x,5,x,0.5784773999912431,1,49,test2,1,0.5787343999982113,-38.0
2,lsh,f,20,r,1,(1.0544208940658713e-14, 172.20000000000002),23,25,4,yes,x,5,x,0.4519436999980826,1,50,test2,1,0.45210100000258535,-20.0
2,lsh,f,20,r,1,(-3.163262682197613e-14, -172.20000000000002),27,3,1,no,m,6,m,0.7463539999880595,1,51,test2,1,0.7464524999959394,-20.0
2,lsh,f,20,r,1,(1.0544208940658713e-14, 172.20000000000002),23,-5,12,no,m,6,m,0.7838140000094427,1,52,test2,1,0.7841684000013629,-20.0
2,lsh,f,20,r,1,(121.76378772032346, -121.76378772032352),28,-25,14,yes,x,5,x,0.6974298999994062,1,53,test2,1,0.6976792000059504,-70.0
2,lsh,f,20,r,1,(-121.76378772032352, -121.76378772032348),26,-7,13,yes,x,5,x,0.7655666999926325,1,54,test2,1,0.7658048000012059,-52.0
2,lsh,f,20,r,1,(172.20000000000002, 0.0),21,3,1,yes,x,5,m,0.7772347999998601,0,55,test2,1,0.7773801000003004,-42.0
2,lsh,f,20,r,1,(121.76378772032346, -121.76378772032352),28,3,1,no,m,6,m,0.8979869000031613,1,56,test2,1,0.8981601999985287,-42.0
2,lsh,f,20,r,1,(121.76378772032349, 121.76378772032349),22,-5,12,yes,x,5,x,0.6988248999987263,1,57,test2,1,0.69895859999815,-50.0
2,lsh,f,20,r,1,(-3.163262682197613e-14, -172.20000000000002),27,-7,13,no,m,6,m,0.6631535999913467,1,58,test2,1,0.663373599993065,-50.0
2,lsh,f,20,r,1,(1.0544208940658713e-14, 172.20000000000002),23,-25,14,no,m,6,m,0.6228197000018554,1,59,test2,1,0.6231027999892831,-50.0
2,lsh,f,20,r,1,(-3.163262682197613e-14, -172.20000000000002),27,-5,12,yes,x,5,x,0.5513471000012942,1,60,test2,1,0.5516071999882115,-50.0
2,lsh,f,20,r,1,(-121.76378772032348, 121.76378772032349),24,25,4,no,m,6,m,0.6911108999920543,1,61,test2,1,0.6912329000042519,-50.0
2,lsh,f,20,r,1,(172.20000000000002, 0.0),21,5,2,yes,x,5,m,0.6498311000032118,0,62,test2,1,0.650270800004364,-40.0
2,lsh,f,20,r,1,(121.76378772032346, -121.76378772032352),28,-7,13,no,m,6,m,1.0830572999984724,1,63,test2,1,1.0831963000091491,-40.0
2,lsh,f,20,r,1,(-3.163262682197613e-14, -172.20000000000002),27,25,4,no,m,6,m,1.749540300006629,1,64,test2,1,1.749639899993781,-40.0
2,lsh,f,20,r,1,(-172.20000000000002, 2.1088417881317425e-14),25,7,3,no,m,6,m,0.8454913000023225,1,65,test2,1,0.8457752000103937,-40.0
2,lsh,f,20,r,1,(121.76378772032346, -121.76378772032352),28,-5,12,no,m,6,m,0.9384716000058688,1,66,test2,1,0.93874379999761,-40.0
2,lsh,f,20,r,1,(-121.76378772032352, -121.76378772032348),26,-7,13,no,m,6,m,1.053714099994977,1,67,test2,1,1.0538635000120848,-40.0
2,lsh,f,20,r,1,(-172.20000000000002, 2.1088417881317425e-14),25,-25,14,no,m,6,m,0.7817952999903355,1,68,test2,1,0.7819326000026194,-40.0
2,lsh,f,20,r,1,(121.76378772032349, 121.76378772032349),22,-3,11,yes,x,5,x,0.8955299999943236,1,69,test2,1,0.8958014999952866,-48.0
2,lsh,f,20,r,1,(121.76378772032346, -121.76378772032352),28,7,3,no,m,6,m,1.5660853000008501,1,70,test2,1,1.5664929999911692,-48.0
2,lsh,f,20,r,1,(172.20000000000002, 0.0),21,-3,11,no,m,6,m,1.062600699995528,1,71,test2,1,1.0629101999948034,-48.0
2,lsh,f,20,r,1,(121.76378772032349, 121.76378772032349),22,3,1,yes,x,5,x,0.6980480000056559,1,72,test2,1,0.6983966999978293,-42.0
2,lsh,f,20,r,1,(1.0544208940658713e-14, 172.20000000000002),23,-3,11,yes,x,5,x,0.8340966000105254,1,73,test2,1,0.8344900000083726,-48.0
2,lsh,f,20,r,1,(-121.76378772032348, 121.76378772032349),24,-3,11,no,m,6,x,1.525009200006025,0,74,test2,1,1.525106400004006,-48.0
2,lsh,f,20,r,1,(172.20000000000002, 0.0),21,-5,12,yes,x,5,x,1.1559472999942955,1,75,test2,1,1.1561737000010908,-50.0
2,lsh,f,20,r,1,(121.76378772032346, -121.76378772032352),28,25,4,no,m,6,m,1.0129776999965543,1,76,test2,1,1.013183700008085,-50.0
2,lsh,f,20,r,1,(-172.20000000000002, 2.1088417881317425e-14),25,5,2,no,m,6,x,1.2698937999957707,0,77,test2,1,1.2700098999921465,-50.0
2,lsh,f,20,r,1,(1.0544208940658713e-14, 172.20000000000002),23,-7,13,no,m,6,m,0.9978556999994908,1,78,test2,1,0.9980795000010403,-50.0
2,lsh,f,20,r,1,(-121.76378772032348, 121.76378772032349),24,-25,14,no,m,6,m,0.9216530999983661,1,79,test2,1,0.9217499000078533,-50.0
2,lsh,f,20,r,1,(-121.76378772032352, -121.76378772032348),26,-7,13,yes,x,5,x,0.5955031000048621,1,80,test2,1,0.5958114999957616,-52.0
2,lsh,f,20,r,1,(1.0544208940658713e-14, 172.20000000000002),23,5,2,yes,x,5,x,0.709233999994467,1,81,test2,1,0.7094149000040488,-40.0
2,lsh,f,20,r,1,(172.20000000000002, 0.0),21,3,1,yes,x,5,m,1.079905599995982,0,82,test2,1,1.0804436000034912,-42.0
2,lsh,f,20,r,1,(-121.76378772032348, 121.76378772032349),24,-7,13,yes,x,5,x,0.5192479999968782,1,83,test2,1,0.5193754000065383,-52.0
2,lsh,f,20,r,1,(172.20000000000002, 0.0),21,-25,14,yes,x,5,x,0.6722284999996191,1,84,test2,1,0.6723416999884648,-70.0
2,lsh,f,20,r,1,(121.76378772032349, 121.76378772032349),22,7,3,yes,x,5,x,0.6848728000040865,1,85,test2,1,0.6850045000028331,-38.0
2,lsh,f,20,r,1,(-172.20000000000002, 2.1088417881317425e-14),25,5,2,yes,x,5,x,0.4988584000093397,1,86,test2,1,0.4989573000057135,-40.0
2,lsh,f,20,r,1,(-121.76378772032352, -121.76378772032348),26,-5,12,yes,x,5,x,0.5404603000060888,1,87,test2,1,0.540571200006525,-50.0
2,lsh,f,20,r,1,(1.0544208940658713e-14, 172.20000000000002),23,25,4,yes,x,5,x,0.5377558999898611,1,88,test2,1,0.5380321999982698,-20.0
2,lsh,f,20,r,1,(172.20000000000002, 0.0),21,-3,11,yes,x,5,m,0.8028666000027442,0,89,test2,1,0.8029882999981055,-48.0
2,lsh,f,20,r,1,(-3.163262682197613e-14, -172.20000000000002),27,-3,11,yes,x,5,m,1.1262855999957537,0,90,test2,1,1.1264392000011867,-48.0
2,lsh,f,20,r,1,(-121.76378772032348, 121.76378772032349),24,-25,14,yes,x,5,x,0.6261826999980258,1,91,test2,1,0.6264510000037262,-70.0
2,lsh,f,20,r,1,(-172.20000000000002, 2.1088417881317425e-14),25,-7,13,no,m,6,m,0.8232214000017848,1,92,test2,1,0.8233207000012044,-70.0
2,lsh,f,20,r,1,(-3.163262682197613e-14, -172.20000000000002),27,-25,14,yes,x,5,x,0.483480499999132,1,93,test2,1,0.4837824999995064,-70.0
2,lsh,f,20,r,1,(172.20000000000002, 0.0),21,-5,12,yes,x,5,x,0.8304570999898715,1,94,test2,1,0.8305675999872619,-50.0
2,lsh,f,20,r,1,(-121.76378772032352, -121.76378772032348),26,5,2,yes,x,5,x,1.20558369999344,1,95,test2,1,1.2057006999966688,-40.0
2,lsh,f,20,r,1,(121.76378772032349, 121.76378772032349),22,-25,14,yes,x,5,x,0.5205553999985568,1,96,test2,1,0.5208933999965666,-70.0
2,lsh,f,20,r,1,(-172.20000000000002, 2.1088417881317425e-14),25,-7,13,yes,x,5,x,0.8127633999974933,1,1,test1,2,0.8128628999984358,-52.0
2,lsh,f,20,r,1,(-121.76378772032352, -121.76378772032348),26,-25,14,yes,x,5,x,0.45131899999978486,1,2,test1,2,0.4517084999970393,-70.0
2,lsh,f,20,r,1,(121.76378772032346, -121.76378772032352),28,25,4,yes,x,5,x,0.4499169000046095,1,3,test1,2,0.4502096999931382,-20.0
2,lsh,f,20,r,1,(-3.163262682197613e-14, -172.20000000000002),27,25,4,yes,x,5,x,0.3810659000009764,1,4,test1,2,0.38119309999456163,-20.0
2,lsh,f,20,r,1,(1.0544208940658713e-14, 172.20000000000002),23,-7,13,yes,x,5,x,0.6164789999893401,1,5,test1,2,0.616576400003396,-52.0
2,lsh,f,20,r,1,(121.76378772032349, 121.76378772032349),22,25,4,yes,x,5,x,0.4079009999986738,1,6,test1,2,0.40802740000071935,-20.0
2,lsh,f,20,r,1,(-3.163262682197613e-14, -172.20000000000002),27,3,1,yes,x,5,x,1.0024963000032585,1,7,test1,2,1.0025939000042854,-42.0
2,lsh,f,20,r,1,(172.20000000000002, 0.0),21,-25,14,yes,x,5,x,0.4405560000013793,1,8,test1,2,0.440899499997613,-70.0
2,lsh,f,20,r,1,(121.76378772032349, 121.76378772032349),22,5,2,no,m,6,m,1.4501974000013433,1,9,test1,2,1.4503255000017816,-70.0
2,lsh,f,20,r,1,(121.76378772032349, 121.76378772032349),22,-5,12,yes,x,5,x,0.6415343999979086,1,10,test1,2,0.6416388000070583,-50.0
2,lsh,f,20,r,1,(-121.76378772032352, -121.76378772032348),26,25,4,yes,x,5,x,0.5156359000102384,1,11,test1,2,0.5157902000064496,-20.0
2,lsh,f,20,r,1,(172.20000000000002, 0.0),21,7,3,yes,x,5,x,0.5662480000028154,1,12,test1,2,0.5664916999958223,-38.0
2,lsh,f,20,r,1,(121.76378772032349, 121.76378772032349),22,-7,13,yes,x,5,x,0.8396341999905417,1,13,test1,2,0.8399033000023337,-52.0
2,lsh,f,20,r,1,(172.20000000000002, 0.0),21,3,1,no,m,6,m,1.5847293000115314,1,14,test1,2,1.5853486999985762,-52.0
2,lsh,f,20,r,1,(-121.76378772032352, -121.76378772032348),26,3,1,no,m,6,m,0.8356093000038527,1,15,test1,2,0.8358434999972815,-52.0
2,lsh,f,20,r,1,(-121.76378772032348, 121.76378772032349),24,5,2,yes,x,5,x,0.690150900001754,1,16,test1,2,0.6903877000004286,-40.0
2,lsh,f,20,r,1,(-172.20000000000002, 2.1088417881317425e-14),25,3,1,no,m,6,x,1.7257938999973703,0,17,test1,2,1.7259520000079647,-40.0
2,lsh,f,20,r,1,(-3.163262682197613e-14, -172.20000000000002),27,3,1,yes,x,5,x,1.3004877000057604,1,18,test1,2,1.3006068000104278,-42.0
2,lsh,f,20,r,1,(1.0544208940658713e-14, 172.20000000000002),23,-7,13,yes,x,5,x,0.7192446999979438,1,19,test1,2,0.719349200007855,-52.0
2,lsh,f,20,r,1,(172.20000000000002, 0.0),21,25,4,yes,x,5,x,0.41282880000653677,1,20,test1,2,0.4132763999950839,-20.0
2,lsh,f,20,r,1,(172.20000000000002, 0.0),21,25,4,no,m,6,m,0.7853193999908399,1,21,test1,2,0.7856546999973943,-20.0
2,lsh,f,20,r,1,(1.0544208940658713e-14, 172.20000000000002),23,5,2,yes,x,5,x,0.5180853999918327,1,22,test1,2,0.5186154999973951,-40.0
2,lsh,f,20,r,1,(-121.76378772032348, 121.76378772032349),24,5,2,no,m,6,m,0.7539772000018274,1,23,test1,2,0.7542095000098925,-40.0
2,lsh,f,20,r,1,(-121.76378772032352, -121.76378772032348),26,3,1,yes,x,5,m,0.9921051999990596,0,24,test1,2,0.9923773000045912,-42.0
2,lsh,f,20,r,1,(1.0544208940658713e-14, 172.20000000000002),23,7,3,no,m,6,m,0.7938310000026831,1,25,test1,2,0.7940262000047369,-42.0
2,lsh,f,20,r,1,(121.76378772032346, -121.76378772032352),28,-25,14,yes,x,5,x,0.6209887000004528,1,26,test1,2,0.6216229999990901,-70.0
2,lsh,f,20,r,1,(172.20000000000002, 0.0),21,-7,13,no,m,6,m,0.6808466000074986,1,27,test1,2,0.6809580999979516,-70.0
2,lsh,f,20,r,1,(-172.20000000000002, 2.1088417881317425e-14),25,-3,11,yes,x,5,x,0.7061873999919044,1,28,test1,2,0.7064820999949006,-48.0
2,lsh,f,20,r,1,(121.76378772032349, 121.76378772032349),22,3,1,yes,x,5,x,1.5406279000017093,1,29,test1,2,1.5408322000002954,-42.0
2,lsh,f,20,r,1,(121.76378772032349, 121.76378772032349),22,25,4,yes,x,5,x,0.6355394999991404,1,30,test1,2,0.6357806000014534,-20.0
2,lsh,f,20,r,1,(-172.20000000000002, 2.1088417881317425e-14),25,-3,11,yes,x,5,x,0.6534385999984806,1,31,test1,2,0.6536625000007916,-48.0
2,lsh,f,20,r,1,(-121.76378772032352, -121.76378772032348),26,25,4,yes,x,5,x,0.4779017999971984,1,32,test1,2,0.4785812000045553,-20.0
2,lsh,f,20,r,1,(-172.20000000000002, 2.1088417881317425e-14),25,7,3,yes,x,5,x,0.4592009999905713,1,33,test1,2,0.45930120001139585,-38.0
2,lsh,f,20,r,1,(-172.20000000000002, 2.1088417881317425e-14),25,25,4,no,m,6,m,0.8383822000032524,1,34,test1,2,0.839076300006127,-38.0
2,lsh,f,20,r,1,(172.20000000000002, 0.0),21,7,3,yes,x,5,x,0.5724497999908635,1,35,test1,2,0.5726939000014681,-38.0
2,lsh,f,20,r,1,(121.76378772032349, 121.76378772032349),22,-7,13,no,m,6,m,0.7151488000090467,1,36,test1,2,0.7152645000023767,-38.0
2,lsh,f,20,r,1,(-121.76378772032352, -121.76378772032348),26,25,4,no,m,6,m,0.8294980000064243,1,37,test1,2,0.8296257000038167,-38.0
2,lsh,f,20,r,1,(-121.76378772032352, -121.76378772032348),26,-3,11,yes,x,5,x,0.9408288999984507,1,38,test1,2,0.9411118999996688,-48.0
2,lsh,f,20,r,1,(-3.163262682197613e-14, -172.20000000000002),27,-7,13,yes,x,5,x,0.6643138000072213,1,39,test1,2,0.6644728999963263,-52.0
2,lsh,f,20,r,1,(-121.76378772032348, 121.76378772032349),24,-3,11,yes,x,5,m,1.2219836000003852,0,40,test1,2,1.2221141000045463,-48.0
2,lsh,f,20,r,1,(1.0544208940658713e-14, 172.20000000000002),23,25,4,no,m,6,m,0.8479021999955876,1,41,test1,2,0.8480600000038976,-48.0
2,lsh,f,20,r,1,(1.0544208940658713e-14, 172.20000000000002),23,-3,11,no,m,6,m,0.8629645000037272,1,42,test1,2,0.8630912000080571,-48.0
2,lsh,f,20,r,1,(121.76378772032349, 121.76378772032349),22,-25,14,no,m,6,m,0.6139052000071388,1,43,test1,2,0.6141365999937989,-48.0
2,lsh,f,20,r,1,(-121.76378772032352, -121.76378772032348),26,7,3,yes,x,5,x,0.5360840999928769,1,44,test1,2,0.53657050000038,-38.0
2,lsh,f,20,r,1,(-121.76378772032348, 121.76378772032349),24,25,4,yes,x,5,x,0.477943799996865,1,45,test1,2,0.47830859999521635,-20.0
2,lsh,f,20,r,1,(-3.163262682197613e-14, -172.20000000000002),27,-5,12,yes,x,5,x,0.738042899989523,1,46,test1,2,0.7387248000013642,-50.0
2,lsh,f,20,r,1,(-121.76378772032348, 121.76378772032349),24,-5,12,yes,x,5,x,0.6586065000010421,1,47,test1,2,0.6590794999938225,-50.0
2,lsh,f,20,r,1,(172.20000000000002, 0.0),21,5,2,no,m,6,m,1.1514667000010377,1,48,test1,2,1.1515900999947917,-50.0
2,lsh,f,20,r,1,(121.76378772032346, -121.76378772032352),28,3,1,yes,x,5,m,1.5001257999974769,0,49,test1,2,1.5003445000038482,-42.0
2,lsh,f,20,r,1,(-3.163262682197613e-14, -172.20000000000002),27,5,2,yes,x,5,x,0.703354399985983,1,50,test1,2,0.703480900003342,-40.0
2,lsh,f,20,r,1,(1.0544208940658713e-14, 172.20000000000002),23,-25,14,yes,x,5,x,0.5280626000021584,1,51,test1,2,0.5281591000093613,-70.0
2,lsh,f,20,r,1,(-121.76378772032352, -121.76378772032348),26,7,3,yes,x,5,x,0.8207098999992013,1,52,test1,2,0.821303100005025,-38.0
2,lsh,f,20,r,1,(1.0544208940658713e-14, 172.20000000000002),23,3,1,yes,x,5,x,0.8111534000054235,1,53,test1,2,0.8113712000049418,-42.0
2,lsh,f,20,r,1,(1.0544208940658713e-14, 172.20000000000002),23,5,2,no,m,6,m,0.7805597999977181,1,54,test1,2,0.7807855999999447,-42.0
2,lsh,f,20,r,1,(-3.163262682197613e-14, -172.20000000000002),27,5,2,no,m,6,x,1.1470018999971217,0,55,test1,2,1.14713070000289,-42.0
2,lsh,f,20,r,1,(1.0544208940658713e-14, 172.20000000000002),23,3,1,no,m,6,m,0.7621127000020351,1,56,test1,2,0.7623373999958858,-42.0
2,lsh,f,20,r,1,(121.76378772032346, -121.76378772032352),28,-5,12,yes,x,5,x,0.5330720000056317,1,57,test1,2,0.5332987000001594,-50.0
2,lsh,f,20,r,1,(-121.76378772032348, 121.76378772032349),24,25,4,yes,x,5,x,0.6016517999960342,1,58,test1,2,0.6017762999981642,-20.0
2,lsh,f,20,r,1,(1.0544208940658713e-14, 172.20000000000002),23,-5,12,yes,x,5,x,0.6247350000048755,1,59,test1,2,0.6248503999959212,-50.0
2,lsh,f,20,r,1,(-121.76378772032348, 121.76378772032349),24,7,3,yes,x,5,x,0.5808256000018446,1,60,test1,2,0.581235799996648,-38.0
2,lsh,f,20,r,1,(-121.76378772032352, -121.76378772032348),26,-5,12,yes,x,5,x,0.6539462999935495,1,61,test1,2,0.6541896999988239,-50.0
2,lsh,f,20,r,1,(-121.76378772032352, -121.76378772032348),26,3,1,yes,x,5,m,0.8561423000064678,0,62,test1,2,0.8564362000033725,-42.0
2,lsh,f,20,r,1,(-3.163262682197613e-14, -172.20000000000002),27,-7,13,yes,x,5,x,0.5165742999961367,1,63,test1,2,0.517448799990234,-52.0
2,lsh,f,20,r,1,(121.76378772032346, -121.76378772032352),28,3,1,yes,x,5,x,1.0643786000000546,1,64,test1,2,1.0646563000045717,-42.0
2,lsh,f,20,r,1,(-121.76378772032348, 121.76378772032349),24,7,3,no,m,6,m,0.8401408000063384,1,65,test1,2,0.8402364999928977,-42.0
2,lsh,f,20,r,1,(-121.76378772032352, -121.76378772032348),26,7,3,no,m,6,m,1.022997000007308,1,66,test1,2,1.0230991999997059,-42.0
2,lsh,f,20,r,1,(172.20000000000002, 0.0),21,-5,12,no,m,6,m,0.931162900000345,1,67,test1,2,0.9314230000018142,-42.0
2,lsh,f,20,r,1,(-172.20000000000002, 2.1088417881317425e-14),25,5,2,yes,x,5,x,0.6356353000010131,1,68,test1,2,0.6357318000082159,-40.0
2,lsh,f,20,r,1,(-172.20000000000002, 2.1088417881317425e-14),25,-7,13,yes,x,5,x,0.49217830000270624,1,69,test1,2,0.4924499999906402,-52.0
2,lsh,f,20,r,1,(-172.20000000000002, 2.1088417881317425e-14),25,7,3,yes,x,5,x,0.6808448000083445,1,70,test1,2,0.6810013000067556,-38.0
2,lsh,f,20,r,1,(-121.76378772032348, 121.76378772032349),24,5,2,yes,x,5,x,0.8316370000102324,1,71,test1,2,0.8317402999964543,-40.0
2,lsh,f,20,r,1,(-121.76378772032348, 121.76378772032349),24,3,1,yes,x,5,x,0.5661633999989135,1,72,test1,2,0.5663284999900497,-42.0
2,lsh,f,20,r,1,(-172.20000000000002, 2.1088417881317425e-14),25,3,1,yes,x,5,x,0.448373300008825,1,73,test1,2,0.44853569999395404,-42.0
2,lsh,f,20,r,1,(121.76378772032346, -121.76378772032352),28,5,2,yes,x,5,x,0.9434274000086589,1,74,test1,2,0.9436100000020815,-40.0
2,lsh,f,20,r,1,(121.76378772032346, -121.76378772032352),28,25,4,yes,x,5,x,0.6066079000011086,1,75,test1,2,0.6067058000044199,-20.0
2,lsh,f,20,r,1,(-121.76378772032348, 121.76378772032349),24,3,1,yes,x,5,x,0.6693013000040082,1,76,test1,2,0.6694202999933623,-42.0
2,lsh,f,20,r,1,(-121.76378772032348, 121.76378772032349),24,3,1,no,m,6,m,0.7979535000049509,1,77,test1,2,0.7981679999938933,-42.0
2,lsh,f,20,r,1,(-121.76378772032348, 121.76378772032349),24,-5,12,no,m,6,m,0.7895658000052208,1,78,test1,2,0.7902105999964988,-42.0
2,lsh,f,20,r,1,(-3.163262682197613e-14, -172.20000000000002),27,-25,14,yes,x,5,x,0.4731697999959579,1,79,test1,2,0.47327050000603776,-70.0
2,lsh,f,20,r,1,(-3.163262682197613e-14, -172.20000000000002),27,25,4,yes,x,5,x,0.5755031000007875,1,80,test1,2,0.5756035999947926,-20.0
2,lsh,f,20,r,1,(121.76378772032349, 121.76378772032349),22,-25,14,yes,x,5,x,0.4805293000099482,1,81,test1,2,0.48065820000192616,-70.0
2,lsh,f,20,r,1,(-172.20000000000002, 2.1088417881317425e-14),25,-5,12,yes,x,5,x,0.5677370999910636,1,82,test1,2,0.5683635999885155,-50.0
2,lsh,f,20,r,1,(121.76378772032346, -121.76378772032352),28,5,2,no,m,6,m,0.8607683000009274,1,83,test1,2,0.8609787000023061,-50.0
2,lsh,f,20,r,1,(121.76378772032346, -121.76378772032352),28,-25,14,no,m,6,m,0.6840100999979768,1,84,test1,2,0.6841367999877548,-50.0
2,lsh,f,20,r,1,(-121.76378772032348, 121.76378772032349),24,-7,13,no,m,6,m,0.8372553000081098,1,85,test1,2,0.8373779000103241,-50.0
2,lsh,f,20,r,1,(121.76378772032349, 121.76378772032349),22,5,2,yes,x,5,x,0.6654844000004232,1,86,test1,2,0.6656236999988323,-40.0
2,lsh,f,20,r,1,(-121.76378772032352, -121.76378772032348),26,5,2,no,m,6,m,0.6785942999995314,1,87,test1,2,0.6786877999984426,-40.0
2,lsh,f,20,r,1,(1.0544208940658713e-14, 172.20000000000002),23,-3,11,yes,x,5,x,0.5996648000000278,1,88,test1,2,0.599764700004016,-48.0
2,lsh,f,20,r,1,(121.76378772032346, -121.76378772032352),28,-5,12,yes,x,5,x,0.6399634999979753,1,89,test1,2,0.6402355000027455,-50.0
2,lsh,f,20,r,1,(172.20000000000002, 0.0),21,-7,13,yes,x,5,x,0.679908299993258,1,90,test1,2,0.6800427999987733,-52.0
2,lsh,f,20,r,1,(-172.20000000000002, 2.1088417881317425e-14),25,25,4,yes,x,5,x,0.591057900004671,1,91,test1,2,0.5911740000010468,-20.0
2,lsh,f,20,r,1,(121.76378772032349, 121.76378772032349),22,25,4,no,m,6,m,0.714108700005454,1,92,test1,2,0.714381300000241,-20.0
2,lsh,f,20,r,1,(-3.163262682197613e-14, -172.20000000000002),27,-5,12,no,m,6,m,0.8366936000093119,1,93,test1,2,0.8368851999985054,-20.0
2,lsh,f,20,r,1,(121.76378772032349, 121.76378772032349),22,3,1,no,m,6,m,0.6289214999997057,1,94,test1,2,0.6292047000024468,-20.0
2,lsh,f,20,r,1,(-3.163262682197613e-14, -172.20000000000002),27,-3,11,no,m,6,m,0.5709870999999112,1,95,test1,2,0.5716097000113223,-20.0
2,lsh,f,20,r,1,(-172.20000000000002, 2.1088417881317425e-14),25,-5,12,no,m,6,m,0.5893387999967672,1,96,test1,2,0.5894492999941576,-20.0
2,lsh,f,20,r,1,(-172.20000000000002, 2.1088417881317425e-14),25,3,1,yes,x,5,x,0.7835353999980725,1,1,test2,2,0.7843835999956354,-42.0
2,lsh,f,20,r,1,(121.76378772032349, 121.76378772032349),22,-3,11,no,m,6,m,1.1175258000002941,1,2,test2,2,1.1176831000047969,-42.0
2,lsh,f,20,r,1,(-172.20000000000002, 2.1088417881317425e-14),25,-25,14,yes,x,5,x,0.5065879000030691,1,3,test2,2,0.5066987000027439,-70.0
2,lsh,f,20,r,1,(121.76378772032349, 121.76378772032349),22,-5,12,no,m,6,x,0.8999146999994991,0,4,test2,2,0.9000731999985874,-70.0
2,lsh,f,20,r,1,(-172.20000000000002, 2.1088417881317425e-14),25,-3,11,no,m,6,m,1.0770198999962304,1,5,test2,2,1.0777211999957217,-70.0
2,lsh,f,20,r,1,(-3.163262682197613e-14, -172.20000000000002),27,7,3,yes,x,5,x,0.567301499992027,1,6,test2,2,0.5675291999941692,-38.0
2,lsh,f,20,r,1,(-3.163262682197613e-14, -172.20000000000002),27,7,3,no,m,6,m,1.0056608000013512,1,7,test2,2,1.0058273000031477,-38.0
2,lsh,f,20,r,1,(172.20000000000002, 0.0),21,-3,11,yes,x,5,x,0.7836158999998588,1,8,test2,2,0.7838115999911679,-48.0
2,lsh,f,20,r,1,(121.76378772032349, 121.76378772032349),22,5,2,yes,x,5,x,0.7030679000017699,1,9,test2,2,0.7036154000088573,-40.0
2,lsh,f,20,r,1,(1.0544208940658713e-14, 172.20000000000002),23,7,3,yes,x,5,x,0.6059167000057641,1,10,test2,2,0.6060189999989234,-38.0
2,lsh,f,20,r,1,(-172.20000000000002, 2.1088417881317425e-14),25,-25,14,yes,x,5,x,0.5475448000070173,1,11,test2,2,0.5476557999936631,-70.0
2,lsh,f,20,r,1,(121.76378772032346, -121.76378772032352),28,-3,11,yes,x,5,x,0.9455230999883497,1,12,test2,2,0.9456292999966536,-48.0
2,lsh,f,20,r,1,(121.76378772032349, 121.76378772032349),22,-7,13,yes,x,5,x,0.5899236999975983,1,13,test2,2,0.590100799992797,-52.0
2,lsh,f,20,r,1,(172.20000000000002, 0.0),21,-7,13,yes,x,5,x,0.608469899991178,1,14,test2,2,0.608693400004995,-52.0
2,lsh,f,20,r,1,(121.76378772032349, 121.76378772032349),22,-3,11,yes,x,5,m,1.4047328000015114,0,15,test2,2,1.4050874000095064,-48.0
2,lsh,f,20,r,1,(-121.76378772032352, -121.76378772032348),26,-3,11,yes,x,5,m,1.4188313000049675,0,16,test2,2,1.419052000012016,-48.0
2,lsh,f,20,r,1,(121.76378772032346, -121.76378772032352),28,7,3,yes,x,5,x,0.6040619999985211,1,17,test2,2,0.6043384999939008,-38.0
2,lsh,f,20,r,1,(-121.76378772032352, -121.76378772032348),26,-5,12,no,m,6,x,1.4719812000112142,0,18,test2,2,1.4726852000021609,-38.0
2,lsh,f,20,r,1,(172.20000000000002, 0.0),21,25,4,yes,x,5,x,0.5624324999953387,1,19,test2,2,0.5626550000015413,-20.0
2,lsh,f,20,r,1,(-172.20000000000002, 2.1088417881317425e-14),25,25,4,yes,x,5,x,0.4963772000046447,1,20,test2,2,0.49666309999884106,-20.0
2,lsh,f,20,r,1,(121.76378772032346, -121.76378772032352),28,5,2,yes,x,5,x,0.812549800000852,1,21,test2,2,0.8127786999975797,-40.0
2,lsh,f,20,r,1,(-121.76378772032348, 121.76378772032349),24,-5,12,yes,x,5,x,0.6581366000027629,1,22,test2,2,0.6582706000044709,-50.0
2,lsh,f,20,r,1,(121.76378772032346, -121.76378772032352),28,-7,13,yes,x,5,x,0.6524289000080898,1,23,test2,2,0.6525301000074251,-52.0
2,lsh,f,20,r,1,(172.20000000000002, 0.0),21,-25,14,no,m,6,m,1.1787617999943905,1,24,test2,2,1.1788571000070078,-52.0
2,lsh,f,20,r,1,(1.0544208940658713e-14, 172.20000000000002),23,7,3,yes,x,5,x,0.643156000005547,1,25,test2,2,0.6435523000109242,-38.0
2,lsh,f,20,r,1,(-121.76378772032352, -121.76378772032348),26,-3,11,no,m,6,m,0.8434328000003006,1,26,test2,2,0.8435669999889797,-38.0
2,lsh,f,20,r,1,(-121.76378772032352, -121.76378772032348),26,-25,14,no,m,6,m,0.7873719000053825,1,27,test2,2,0.7875841000059154,-38.0
2,lsh,f,20,r,1,(121.76378772032349, 121.76378772032349),22,7,3,yes,x,5,x,0.6515188000048511,1,28,test2,2,0.6519486999895889,-38.0
2,lsh,f,20,r,1,(-3.163262682197613e-14, -172.20000000000002),27,5,2,yes,x,5,x,0.6586776000040118,1,29,test2,2,0.6588884999946458,-40.0
2,lsh,f,20,r,1,(-121.76378772032352, -121.76378772032348),26,-25,14,yes,x,5,x,0.5319585000106599,1,30,test2,2,0.532060099998489,-70.0
2,lsh,f,20,r,1,(-121.76378772032348, 121.76378772032349),24,-7,13,yes,x,5,x,0.636186000003363,1,31,test2,2,0.6365072000044165,-52.0
2,lsh,f,20,r,1,(1.0544208940658713e-14, 172.20000000000002),23,-25,14,yes,x,5,x,0.5845467000035569,1,32,test2,2,0.5846693999919808,-70.0
2,lsh,f,20,r,1,(121.76378772032346, -121.76378772032352),28,-3,11,no,m,6,m,0.7440948000003118,1,33,test2,2,0.7443316999997478,-70.0
2,lsh,f,20,r,1,(172.20000000000002, 0.0),21,7,3,no,m,6,m,0.6497172999952454,1,34,test2,2,0.6498786000011023,-70.0
2,lsh,f,20,r,1,(121.76378772032346, -121.76378772032352),28,7,3,yes,x,5,x,0.6306465000088792,1,35,test2,2,0.630746500013629,-38.0
2,lsh,f,20,r,1,(1.0544208940658713e-14, 172.20000000000002),23,-5,12,yes,x,5,x,0.5843709000037052,1,36,test2,2,0.5845860999979777,-50.0
2,lsh,f,20,r,1,(121.76378772032349, 121.76378772032349),22,7,3,no,m,6,m,0.7715001000033226,1,37,test2,2,0.7716266999923391,-50.0
2,lsh,f,20,r,1,(-3.163262682197613e-14, -172.20000000000002),27,-25,14,no,m,6,m,0.7367930000036722,1,38,test2,2,0.7372674000071129,-50.0
2,lsh,f,20,r,1,(172.20000000000002, 0.0),21,5,2,yes,x,5,x,0.594447700001183,1,39,test2,2,0.5946391000034055,-40.0
2,lsh,f,20,r,1,(-121.76378772032348, 121.76378772032349),24,-25,14,yes,x,5,x,0.5656335999956354,1,40,test2,2,0.5658421000116505,-70.0
2,lsh,f,20,r,1,(-3.163262682197613e-14, -172.20000000000002),27,-3,11,yes,x,5,x,0.8829881999990903,1,41,test2,2,0.8830927000090014,-48.0
2,lsh,f,20,r,1,(1.0544208940658713e-14, 172.20000000000002),23,3,1,yes,x,5,x,0.6429982000117889,1,42,test2,2,0.6432154000067385,-42.0
2,lsh,f,20,r,1,(-121.76378772032348, 121.76378772032349),24,7,3,yes,x,5,x,0.6442286000092281,1,43,test2,2,0.644762099997024,-38.0
2,lsh,f,20,r,1,(121.76378772032346, -121.76378772032352),28,-3,11,yes,x,5,x,0.5723348999890732,1,44,test2,2,0.5724674000084633,-48.0
2,lsh,f,20,r,1,(121.76378772032346, -121.76378772032352),28,-7,13,yes,x,5,x,0.5355793000053382,1,45,test2,2,0.5358170999970753,-52.0
2,lsh,f,20,r,1,(-121.76378772032352, -121.76378772032348),26,5,2,yes,x,5,x,0.7045698000001721,1,46,test2,2,0.7047521999920718,-40.0
2,lsh,f,20,r,1,(-172.20000000000002, 2.1088417881317425e-14),25,-5,12,yes,x,5,x,0.6378733999881661,1,47,test2,2,0.6381738999916706,-50.0
2,lsh,f,20,r,1,(-121.76378772032348, 121.76378772032349),24,-3,11,yes,x,5,x,0.6751379000052111,1,48,test2,2,0.6752585000067484,-48.0
2,lsh,f,20,r,1,(-3.163262682197613e-14, -172.20000000000002),27,7,3,yes,x,5,x,0.6958718999958364,1,49,test2,2,0.6961662999965483,-38.0
2,lsh,f,20,r,1,(1.0544208940658713e-14, 172.20000000000002),23,25,4,yes,x,5,x,0.5543729000055464,1,50,test2,2,0.5546024999930523,-20.0
2,lsh,f,20,r,1,(-3.163262682197613e-14, -172.20000000000002),27,3,1,no,m,6,m,0.7638684999983525,1,51,test2,2,0.764238399991882,-20.0
2,lsh,f,20,r,1,(1.0544208940658713e-14, 172.20000000000002),23,-5,12,no,m,6,m,0.7088148999901023,1,52,test2,2,0.7090178999933414,-20.0
2,lsh,f,20,r,1,(121.76378772032346, -121.76378772032352),28,-25,14,yes,x,5,x,0.49978959999862127,1,53,test2,2,0.4999956999963615,-70.0
2,lsh,f,20,r,1,(-121.76378772032352, -121.76378772032348),26,-7,13,yes,x,5,x,0.6395178999955533,1,54,test2,2,0.6398097000055714,-52.0
2,lsh,f,20,r,1,(172.20000000000002, 0.0),21,3,1,yes,x,5,x,0.8404745000007097,1,55,test2,2,0.8406817999930354,-42.0
2,lsh,f,20,r,1,(121.76378772032346, -121.76378772032352),28,3,1,no,m,6,m,0.8329613999958383,1,56,test2,2,0.8331625999999233,-42.0
2,lsh,f,20,r,1,(121.76378772032349, 121.76378772032349),22,-5,12,yes,x,5,x,0.6661460000032093,1,57,test2,2,0.6664482999913162,-50.0
2,lsh,f,20,r,1,(-3.163262682197613e-14, -172.20000000000002),27,-7,13,no,m,6,m,0.8668877000018256,1,58,test2,2,0.8673249999992549,-50.0
2,lsh,f,20,r,1,(1.0544208940658713e-14, 172.20000000000002),23,-25,14,no,m,6,m,0.6585078000061912,1,59,test2,2,0.6586051999911433,-50.0
2,lsh,f,20,r,1,(-3.163262682197613e-14, -172.20000000000002),27,-5,12,yes,x,5,x,0.6217842999903951,1,60,test2,2,0.6218878000072436,-50.0
2,lsh,f,20,r,1,(-121.76378772032348, 121.76378772032349),24,25,4,no,m,6,m,0.655780600005528,1,61,test2,2,0.6560047999955714,-50.0
2,lsh,f,20,r,1,(172.20000000000002, 0.0),21,5,2,yes,x,5,x,0.7525849999947241,1,62,test2,2,0.7527335000049789,-40.0
2,lsh,f,20,r,1,(121.76378772032346, -121.76378772032352),28,-7,13,no,m,6,m,0.5921113999938825,1,63,test2,2,0.5922104000055697,-40.0
2,lsh,f,20,r,1,(-3.163262682197613e-14, -172.20000000000002),27,25,4,no,m,6,m,0.5589088999986416,1,64,test2,2,0.5592622000112897,-40.0
2,lsh,f,20,r,1,(-172.20000000000002, 2.1088417881317425e-14),25,7,3,no,m,6,m,0.6187066000129562,1,65,test2,2,0.6188127000059467,-40.0
2,lsh,f,20,r,1,(121.76378772032346, -121.76378772032352),28,-5,12,no,m,6,m,0.6286809000011999,1,66,test2,2,0.6292092999938177,-40.0
2,lsh,f,20,r,1,(-121.76378772032352, -121.76378772032348),26,-7,13,no,m,6,m,0.6045577000040794,1,67,test2,2,0.6047516000107862,-40.0
2,lsh,f,20,r,1,(-172.20000000000002, 2.1088417881317425e-14),25,-25,14,no,m,6,m,0.6490264000021853,1,68,test2,2,0.6492228999995859,-40.0
2,lsh,f,20,r,1,(121.76378772032349, 121.76378772032349),22,-3,11,yes,x,5,x,0.6102085000020452,1,69,test2,2,0.6104430000123102,-48.0
2,lsh,f,20,r,1,(121.76378772032346, -121.76378772032352),28,7,3,no,m,6,m,0.8692590999999084,1,70,test2,2,0.8694974999962142,-48.0
2,lsh,f,20,r,1,(172.20000000000002, 0.0),21,-3,11,no,m,6,m,0.6383823000069242,1,71,test2,2,0.6385479000018677,-48.0
2,lsh,f,20,r,1,(121.76378772032349, 121.76378772032349),22,3,1,yes,x,5,x,0.5837813000107417,1,72,test2,2,0.5839330000017071,-42.0
2,lsh,f,20,r,1,(1.0544208940658713e-14, 172.20000000000002),23,-3,11,yes,x,5,x,0.6025709999958053,1,73,test2,2,0.6028930000029504,-48.0
2,lsh,f,20,r,1,(-121.76378772032348, 121.76378772032349),24,-3,11,no,m,6,m,0.8112034999940079,1,74,test2,2,0.811303800001042,-48.0
2,lsh,f,20,r,1,(172.20000000000002, 0.0),21,-5,12,yes,x,5,x,0.5546149000001606,1,75,test2,2,0.5547409999999218,-50.0
2,lsh,f,20,r,1,(121.76378772032346, -121.76378772032352),28,25,4,no,m,6,m,1.1648308000003453,1,76,test2,2,1.165187299993704,-50.0
2,lsh,f,20,r,1,(-172.20000000000002, 2.1088417881317425e-14),25,5,2,no,m,6,m,0.6430734000023222,1,77,test2,2,0.643193900003098,-50.0
2,lsh,f,20,r,1,(1.0544208940658713e-14, 172.20000000000002),23,-7,13,no,m,6,m,0.755990000005113,1,78,test2,2,0.7562609000015073,-50.0
2,lsh,f,20,r,1,(-121.76378772032348, 121.76378772032349),24,-25,14,no,m,6,m,0.6361065999954008,1,79,test2,2,0.6366358999948716,-50.0
2,lsh,f,20,r,1,(-121.76378772032352, -121.76378772032348),26,-7,13,yes,x,5,x,0.4851123000116786,1,80,test2,2,0.4852149000071222,-52.0
2,lsh,f,20,r,1,(1.0544208940658713e-14, 172.20000000000002),23,5,2,yes,x,5,x,0.493759000004502,1,81,test2,2,0.4938717000040924,-40.0
2,lsh,f,20,r,1,(172.20000000000002, 0.0),21,3,1,yes,x,5,x,0.6301348999986658,1,82,test2,2,0.6304512999922736,-42.0
2,lsh,f,20,r,1,(-121.76378772032348, 121.76378772032349),24,-7,13,yes,x,5,x,0.5564377999980934,1,83,test2,2,0.5565351999975974,-52.0
2,lsh,f,20,r,1,(172.20000000000002, 0.0),21,-25,14,yes,x,5,x,0.5866152999951737,1,84,test2,2,0.5867118999885861,-70.0
2,lsh,f,20,r,1,(121.76378772032349, 121.76378772032349),22,7,3,yes,x,5,x,0.6142930000060005,1,85,test2,2,0.6144886999973096,-38.0
2,lsh,f,20,r,1,(-172.20000000000002, 2.1088417881317425e-14),25,5,2,yes,x,5,x,0.7783093000034569,1,86,test2,2,0.7784022999985609,-40.0
2,lsh,f,20,r,1,(-121.76378772032352, -121.76378772032348),26,-5,12,yes,x,5,x,0.8330580000038026,1,87,test2,2,0.8331613000045763,-50.0
2,lsh,f,20,r,1,(1.0544208940658713e-14, 172.20000000000002),23,25,4,yes,x,5,x,0.5713386999996146,1,88,test2,2,0.5716191999963485,-20.0
2,lsh,f,20,r,1,(172.20000000000002, 0.0),21,-3,11,yes,x,5,m,0.9835012000112329,0,89,test2,2,0.9837872999924002,-48.0
2,lsh,f,20,r,1,(-3.163262682197613e-14, -172.20000000000002),27,-3,11,yes,x,5,x,1.0060198999999557,1,90,test2,2,1.006251799990423,-48.0
2,lsh,f,20,r,1,(-121.76378772032348, 121.76378772032349),24,-25,14,yes,x,5,x,0.5333227999944938,1,91,test2,2,0.5336320000060368,-70.0
2,lsh,f,20,r,1,(-172.20000000000002, 2.1088417881317425e-14),25,-7,13,no,m,6,m,0.9211834000016097,1,92,test2,2,0.9214428000123007,-70.0
2,lsh,f,20,r,1,(-3.163262682197613e-14, -172.20000000000002),27,-25,14,yes,x,5,x,0.4408838000090327,1,93,test2,2,0.4411502000002656,-70.0
2,lsh,f,20,r,1,(172.20000000000002, 0.0),21,-5,12,yes,x,5,x,0.6923786999977892,1,94,test2,2,0.692826900005457,-50.0
2,lsh,f,20,r,1,(-121.76378772032352, -121.76378772032348),26,5,2,yes,x,5,x,0.6100671000021975,1,95,test2,2,0.6106020000006538,-40.0
2,lsh,f,20,r,1,(121.76378772032349, 121.76378772032349),22,-25,14,yes,x,5,x,0.6131362000014633,1,96,test2,2,0.6132854000024963,-70.0
2,lsh,f,20,r,1,(-172.20000000000002, 2.1088417881317425e-14),25,-7,13,yes,x,5,x,0.6050353999889921,1,1,test1,3,0.605139399995096,-52.0
2,lsh,f,20,r,1,(-121.76378772032352, -121.76378772032348),26,-25,14,yes,x,5,x,0.47660210001049563,1,2,test1,3,0.4767139999894425,-70.0
2,lsh,f,20,r,1,(121.76378772032346, -121.76378772032352),28,25,4,yes,x,5,x,0.5413434999936726,1,3,test1,3,0.541457100000116,-20.0
2,lsh,f,20,r,1,(-3.163262682197613e-14, -172.20000000000002),27,25,4,yes,x,5,x,0.430759399998351,1,4,test1,3,0.43112639999890234,-20.0
2,lsh,f,20,r,1,(1.0544208940658713e-14, 172.20000000000002),23,-7,13,yes,x,5,x,0.5593356000026688,1,5,test1,3,0.5595755999966059,-52.0
2,lsh,f,20,r,1,(121.76378772032349, 121.76378772032349),22,25,4,yes,x,5,x,0.5192132999945898,1,6,test1,3,0.519328400012455,-20.0
2,lsh,f,20,r,1,(-3.163262682197613e-14, -172.20000000000002),27,3,1,yes,x,5,x,0.5344022000062978,1,7,test1,3,0.5346411000064109,-42.0
2,lsh,f,20,r,1,(172.20000000000002, 0.0),21,-25,14,yes,x,5,x,0.4558556999982102,1,8,test1,3,0.45597260000067763,-70.0
2,lsh,f,20,r,1,(121.76378772032349, 121.76378772032349),22,5,2,no,m,6,m,0.8389850999956252,1,9,test1,3,0.8395079000038095,-70.0
2,lsh,f,20,r,1,(121.76378772032349, 121.76378772032349),22,-5,12,yes,x,5,x,0.6860171999869635,1,10,test1,3,0.6861183000000892,-50.0
2,lsh,f,20,r,1,(-121.76378772032352, -121.76378772032348),26,25,4,yes,x,5,x,0.47713899999507703,1,11,test1,3,0.4772346999961883,-20.0
2,lsh,f,20,r,1,(172.20000000000002, 0.0),21,7,3,yes,x,5,x,0.47325399999681395,1,12,test1,3,0.47344499999599066,-38.0
2,lsh,f,20,r,1,(121.76378772032349, 121.76378772032349),22,-7,13,yes,x,5,x,0.505408000011812,1,13,test1,3,0.5057226999924751,-52.0
2,lsh,f,20,r,1,(172.20000000000002, 0.0),21,3,1,no,m,6,m,0.9744701000017812,1,14,test1,3,0.9747938999935286,-52.0
2,lsh,f,20,r,1,(-121.76378772032352, -121.76378772032348),26,3,1,no,m,6,m,0.7330479999945965,1,15,test1,3,0.7333567000023322,-52.0
2,lsh,f,20,r,1,(-121.76378772032348, 121.76378772032349),24,5,2,yes,x,5,x,0.4590286000020569,1,16,test1,3,0.45946299999195617,-40.0
2,lsh,f,20,r,1,(-172.20000000000002, 2.1088417881317425e-14),25,3,1,no,m,6,m,0.7273420999990776,1,17,test1,3,0.727481900001294,-40.0
2,lsh,f,20,r,1,(-3.163262682197613e-14, -172.20000000000002),27,3,1,yes,x,5,x,0.9194641999929445,1,18,test1,3,0.9198947999975644,-42.0
2,lsh,f,20,r,1,(1.0544208940658713e-14, 172.20000000000002),23,-7,13,yes,x,5,x,0.6273492999898735,1,19,test1,3,0.6277872000064235,-52.0
2,lsh,f,20,r,1,(172.20000000000002, 0.0),21,25,4,yes,x,5,x,0.4928591000061715,1,20,test1,3,0.49308709999604616,-20.0
2,lsh,f,20,r,1,(172.20000000000002, 0.0),21,25,4,no,m,6,m,0.7197595999896294,1,21,test1,3,0.7199216000008164,-20.0
2,lsh,f,20,r,1,(1.0544208940658713e-14, 172.20000000000002),23,5,2,yes,x,5,x,0.5485738999996101,1,22,test1,3,0.5491020000044955,-40.0
2,lsh,f,20,r,1,(-121.76378772032348, 121.76378772032349),24,5,2,no,m,6,m,0.7016110999975353,1,23,test1,3,0.7017736999987392,-40.0
2,lsh,f,20,r,1,(-121.76378772032352, -121.76378772032348),26,3,1,yes,x,5,x,0.8650603999994928,1,24,test1,3,0.8652226000122027,-42.0
2,lsh,f,20,r,1,(1.0544208940658713e-14, 172.20000000000002),23,7,3,no,m,6,m,0.8798931000055745,1,25,test1,3,0.8799909000081243,-42.0
2,lsh,f,20,r,1,(121.76378772032346, -121.76378772032352),28,-25,14,yes,x,5,x,0.5543216000078246,1,26,test1,3,0.5547883000108413,-70.0
2,lsh,f,20,r,1,(172.20000000000002, 0.0),21,-7,13,no,m,6,x,0.9206871000060346,0,27,test1,3,0.9208520999964094,-70.0
2,lsh,f,20,r,1,(-172.20000000000002, 2.1088417881317425e-14),25,-3,11,yes,x,5,x,0.6971007999964058,1,28,test1,3,0.697232399994391,-48.0
2,lsh,f,20,r,1,(121.76378772032349, 121.76378772032349),22,3,1,yes,x,5,x,0.8850654999987455,1,29,test1,3,0.8851638000051025,-42.0
2,lsh,f,20,r,1,(121.76378772032349, 121.76378772032349),22,25,4,yes,x,5,x,0.7447962000005646,1,30,test1,3,0.7450114999955986,-20.0
2,lsh,f,20,r,1,(-172.20000000000002, 2.1088417881317425e-14),25,-3,11,yes,x,5,x,0.6698858000017935,1,31,test1,3,0.6700125000061234,-48.0
2,lsh,f,20,r,1,(-121.76378772032352, -121.76378772032348),26,25,4,yes,x,5,x,0.5432834000093862,1,32,test1,3,0.5435657000052743,-20.0
2,lsh,f,20,r,1,(-172.20000000000002, 2.1088417881317425e-14),25,7,3,yes,x,5,x,0.5286565999995219,1,33,test1,3,0.5294447999913245,-38.0
2,lsh,f,20,r,1,(-172.20000000000002, 2.1088417881317425e-14),25,25,4,no,m,6,m,0.8771552999969572,1,34,test1,3,0.8774037999974098,-38.0
2,lsh,f,20,r,1,(172.20000000000002, 0.0),21,7,3,yes,x,5,x,0.5476479999924777,1,35,test1,3,0.5479369999957271,-38.0
2,lsh,f,20,r,1,(121.76378772032349, 121.76378772032349),22,-7,13,no,m,6,m,0.9040851000027033,1,36,test1,3,0.9043170999939321,-38.0
2,lsh,f,20,r,1,(-121.76378772032352, -121.76378772032348),26,25,4,no,m,6,m,0.7369868000096176,1,37,test1,3,0.7373784999945201,-38.0
2,lsh,f,20,r,1,(-121.76378772032352, -121.76378772032348),26,-3,11,yes,x,5,x,0.7266699000028893,1,38,test1,3,0.7270147999952314,-48.0
2,lsh,f,20,r,1,(-3.163262682197613e-14, -172.20000000000002),27,-7,13,yes,x,5,x,0.5694049000012456,1,39,test1,3,0.5697098999953596,-52.0
2,lsh,f,20,r,1,(-121.76378772032348, 121.76378772032349),24,-3,11,yes,x,5,x,0.7001761999999871,1,40,test1,3,0.7014006999961566,-48.0
2,lsh,f,20,r,1,(1.0544208940658713e-14, 172.20000000000002),23,25,4,no,m,6,m,0.7052489000052446,1,41,test1,3,0.7053471999970498,-48.0
2,lsh,f,20,r,1,(1.0544208940658713e-14, 172.20000000000002),23,-3,11,no,m,6,m,0.7863141000125324,1,42,test1,3,0.7864317000057781,-48.0
2,lsh,f,20,r,1,(121.76378772032349, 121.76378772032349),22,-25,14,no,m,6,m,0.6020207999972627,1,43,test1,3,0.6021424999926239,-48.0
2,lsh,f,20,r,1,(-121.76378772032352, -121.76378772032348),26,7,3,yes,x,5,x,0.5408876000001328,1,44,test1,3,0.5410195000004023,-38.0
2,lsh,f,20,r,1,(-121.76378772032348, 121.76378772032349),24,25,4,yes,x,5,x,0.5036113999958616,1,45,test1,3,0.5042928000038955,-20.0
2,lsh,f,20,r,1,(-3.163262682197613e-14, -172.20000000000002),27,-5,12,yes,x,5,x,0.6324834999977611,1,46,test1,3,0.6326543000031961,-50.0
2,lsh,f,20,r,1,(-121.76378772032348, 121.76378772032349),24,-5,12,yes,x,5,x,0.5613061000040034,1,47,test1,3,0.5617672999942442,-50.0
2,lsh,f,20,r,1,(172.20000000000002, 0.0),21,5,2,no,m,6,m,0.8643710000033025,1,48,test1,3,0.8645095000101719,-50.0
2,lsh,f,20,r,1,(121.76378772032346, -121.76378772032352),28,3,1,yes,x,5,x,0.8641993000055663,1,49,test1,3,0.8644191000057617,-42.0
2,lsh,f,20,r,1,(-3.163262682197613e-14, -172.20000000000002),27,5,2,yes,x,5,x,0.7044939999905182,1,50,test1,3,0.7049857999954838,-40.0
2,lsh,f,20,r,1,(1.0544208940658713e-14, 172.20000000000002),23,-25,14,yes,x,5,x,0.5978234000067459,1,51,test1,3,0.5979192000086186,-70.0
2,lsh,f,20,r,1,(-121.76378772032352, -121.76378772032348),26,7,3,yes,x,5,x,0.6567420999926981,1,52,test1,3,0.6568390000029467,-38.0
2,lsh,f,20,r,1,(1.0544208940658713e-14, 172.20000000000002),23,3,1,yes,x,5,x,0.6466352999996161,1,53,test1,3,0.6468477000016719,-42.0
2,lsh,f,20,r,1,(1.0544208940658713e-14, 172.20000000000002),23,5,2,no,m,6,m,0.8245670000032987,1,54,test1,3,0.825292299996363,-42.0
2,lsh,f,20,r,1,(-3.163262682197613e-14, -172.20000000000002),27,5,2,no,m,6,m,0.6900814999971772,1,55,test1,3,0.6903071999986423,-42.0
2,lsh,f,20,r,1,(1.0544208940658713e-14, 172.20000000000002),23,3,1,no,m,6,m,0.602477499996894,1,56,test1,3,0.6026978000008967,-42.0
2,lsh,f,20,r,1,(121.76378772032346, -121.76378772032352),28,-5,12,yes,x,5,x,0.5754351999930805,1,57,test1,3,0.5761101999960374,-50.0
2,lsh,f,20,r,1,(-121.76378772032348, 121.76378772032349),24,25,4,yes,x,5,x,0.5113438999978825,1,58,test1,3,0.5114781000011135,-20.0
2,lsh,f,20,r,1,(1.0544208940658713e-14, 172.20000000000002),23,-5,12,yes,x,5,x,0.8157425000099465,1,59,test1,3,0.8159782000002451,-50.0
2,lsh,f,20,r,1,(-121.76378772032348, 121.76378772032349),24,7,3,yes,x,5,x,0.5600667999970028,1,60,test1,3,0.5609702000074321,-38.0
2,lsh,f,20,r,1,(-121.76378772032352, -121.76378772032348),26,-5,12,yes,x,5,x,0.5700448999996297,1,61,test1,3,0.5704339999938384,-50.0
2,lsh,f,20,r,1,(-121.76378772032352, -121.76378772032348),26,3,1,yes,x,5,x,0.8070326000015484,1,62,test1,3,0.8072701000055531,-42.0
2,lsh,f,20,r,1,(-3.163262682197613e-14, -172.20000000000002),27,-7,13,yes,x,5,x,0.4903323000035016,1,63,test1,3,0.4909833999990951,-52.0
2,lsh,f,20,r,1,(121.76378772032346, -121.76378772032352),28,3,1,yes,x,5,m,0.7839159999857657,0,64,test1,3,0.784082700003637,-42.0
2,lsh,f,20,r,1,(-121.76378772032348, 121.76378772032349),24,7,3,no,m,6,m,1.3149393000057898,1,65,test1,3,1.3152546999917831,-42.0
2,lsh,f,20,r,1,(-121.76378772032352, -121.76378772032348),26,7,3,no,m,6,m,0.6971265000029234,1,66,test1,3,0.697358899997198,-42.0
2,lsh,f,20,r,1,(172.20000000000002, 0.0),21,-5,12,no,m,6,m,0.853349299999536,1,67,test1,3,0.8534777000022586,-42.0
2,lsh,f,20,r,1,(-172.20000000000002, 2.1088417881317425e-14),25,5,2,yes,x,5,x,0.5740307999949437,1,68,test1,3,0.5743159999983618,-40.0
2,lsh,f,20,r,1,(-172.20000000000002, 2.1088417881317425e-14),25,-7,13,yes,x,5,x,0.42544370000541676,1,69,test1,3,0.4255392000050051,-52.0
2,lsh,f,20,r,1,(-172.20000000000002, 2.1088417881317425e-14),25,7,3,yes,x,5,x,0.5141478000005009,1,70,test1,3,0.5146941999992123,-38.0
2,lsh,f,20,r,1,(-121.76378772032348, 121.76378772032349),24,5,2,yes,x,5,x,0.48753020000003744,1,71,test1,3,0.48769030001130886,-40.0
2,lsh,f,20,r,1,(-121.76378772032348, 121.76378772032349),24,3,1,yes,x,5,x,0.5714685999992071,1,72,test1,3,0.5715648000041256,-42.0
2,lsh,f,20,r,1,(-172.20000000000002, 2.1088417881317425e-14),25,3,1,yes,x,5,x,0.6026407000026666,1,73,test1,3,0.6027614000049653,-42.0
2,lsh,f,20,r,1,(121.76378772032346, -121.76378772032352),28,5,2,yes,x,5,x,0.6294971000024816,1,74,test1,3,0.629629200004274,-40.0
2,lsh,f,20,r,1,(121.76378772032346, -121.76378772032352),28,25,4,yes,x,5,x,0.5741785999998683,1,75,test1,3,0.5744285999971908,-20.0
2,lsh,f,20,r,1,(-121.76378772032348, 121.76378772032349),24,3,1,yes,x,5,x,0.569161699997494,1,76,test1,3,0.56931840001198,-42.0
2,lsh,f,20,r,1,(-121.76378772032348, 121.76378772032349),24,3,1,no,m,6,m,0.631772099994123,1,77,test1,3,0.632164599999669,-42.0
2,lsh,f,20,r,1,(-121.76378772032348, 121.76378772032349),24,-5,12,no,m,6,m,0.6221346000093035,1,78,test1,3,0.6224687000067206,-42.0
2,lsh,f,20,r,1,(-3.163262682197613e-14, -172.20000000000002),27,-25,14,yes,x,5,x,0.6417999000113923,1,79,test1,3,0.6421827000012854,-70.0
2,lsh,f,20,r,1,(-3.163262682197613e-14, -172.20000000000002),27,25,4,yes,x,5,x,0.5253344999946421,1,80,test1,3,0.5261172000027727,-20.0
2,lsh,f,20,r,1,(121.76378772032349, 121.76378772032349),22,-25,14,yes,x,5,x,0.5097650999960024,1,81,test1,3,0.5099260999995749,-70.0
2,lsh,f,20,r,1,(-172.20000000000002, 2.1088417881317425e-14),25,-5,12,yes,x,5,x,0.5563955000106944,1,82,test1,3,0.5566964000026928,-50.0
2,lsh,f,20,r,1,(121.76378772032346, -121.76378772032352),28,5,2,no,m,6,m,0.7301183999952627,1,83,test1,3,0.730214099996374,-50.0
2,lsh,f,20,r,1,(121.76378772032346, -121.76378772032352),28,-25,14,no,m,6,m,0.7737555999920005,1,84,test1,3,0.7738551999937044,-50.0
2,lsh,f,20,r,1,(-121.76378772032348, 121.76378772032349),24,-7,13,no,m,6,m,0.6510400999977719,1,85,test1,3,0.6512719000020297,-50.0
2,lsh,f,20,r,1,(121.76378772032349, 121.76378772032349),22,5,2,yes,x,5,x,0.6008135000010952,1,86,test1,3,0.6009138000081293,-40.0
2,lsh,f,20,r,1,(-121.76378772032352, -121.76378772032348),26,5,2,no,m,6,m,0.7132348000013735,1,87,test1,3,0.7134707000077469,-40.0
2,lsh,f,20,r,1,(1.0544208940658713e-14, 172.20000000000002),23,-3,11,yes,x,5,x,0.544878200002131,1,88,test1,3,0.5451428999949712,-48.0
2,lsh,f,20,r,1,(121.76378772032346, -121.76378772032352),28,-5,12,yes,x,5,x,0.5258688000030816,1,89,test1,3,0.525966300003347,-50.0
2,lsh,f,20,r,1,(172.20000000000002, 0.0),21,-7,13,yes,x,5,x,0.40302019999944605,1,90,test1,3,0.4032320999976946,-52.0
2,lsh,f,20,r,1,(-172.20000000000002, 2.1088417881317425e-14),25,25,4,yes,x,5,x,0.5238323000085074,1,91,test1,3,0.5242711000028066,-20.0
2,lsh,f,20,r,1,(121.76378772032349, 121.76378772032349),22,25,4,no,m,6,m,0.6591745000041556,1,92,test1,3,0.6593906999914907,-20.0
2,lsh,f,20,r,1,(-3.163262682197613e-14, -172.20000000000002),27,-5,12,no,m,6,x,1.0648915999918245,0,93,test1,3,1.0649918999988586,-20.0
2,lsh,f,20,r,1,(121.76378772032349, 121.76378772032349),22,3,1,no,m,6,m,0.7543076000001747,1,94,test1,3,0.7545440999965649,-20.0
2,lsh,f,20,r,1,(-3.163262682197613e-14, -172.20000000000002),27,-3,11,no,m,6,m,0.6854501999914646,1,95,test1,3,0.6855857000045944,-20.0
2,lsh,f,20,r,1,(-172.20000000000002, 2.1088417881317425e-14),25,-5,12,no,m,6,m,0.652836399996886,1,96,test1,3,0.6529679999948712,-20.0
2,lsh,f,20,r,1,(-172.20000000000002, 2.1088417881317425e-14),25,3,1,yes,x,5,x,0.8102837999904295,1,1,test2,3,0.810402899995097,-42.0
2,lsh,f,20,r,1,(121.76378772032349, 121.76378772032349),22,-3,11,no,m,6,m,1.1090800999954809,1,2,test2,3,1.109759800005122,-42.0
2,lsh,f,20,r,1,(-172.20000000000002, 2.1088417881317425e-14),25,-25,14,yes,x,5,x,0.48179100001289044,1,3,test2,3,0.48200840000936296,-70.0
2,lsh,f,20,r,1,(121.76378772032349, 121.76378772032349),22,-5,12,no,m,6,m,1.0439000000042142,1,4,test2,3,1.0440425000124378,-70.0
2,lsh,f,20,r,1,(-172.20000000000002, 2.1088417881317425e-14),25,-3,11,no,m,6,x,0.6377043999964371,0,5,test2,3,0.6378989999939222,-70.0
2,lsh,f,20,r,1,(-3.163262682197613e-14, -172.20000000000002),27,7,3,yes,x,5,x,0.5786627000052249,1,6,test2,3,0.5791501999920001,-38.0
2,lsh,f,20,r,1,(-3.163262682197613e-14, -172.20000000000002),27,7,3,no,m,6,m,0.9407565000001341,1,7,test2,3,0.9409860000014305,-38.0
2,lsh,f,20,r,1,(172.20000000000002, 0.0),21,-3,11,yes,x,5,x,0.8473852000024635,1,8,test2,3,0.8478549999999814,-48.0
2,lsh,f,20,r,1,(121.76378772032349, 121.76378772032349),22,5,2,yes,x,5,x,0.6321203999978025,1,9,test2,3,0.6322772999992594,-40.0
2,lsh,f,20,r,1,(1.0544208940658713e-14, 172.20000000000002),23,7,3,yes,x,5,x,0.652728200002457,1,10,test2,3,0.6529703999985941,-38.0
2,lsh,f,20,r,1,(-172.20000000000002, 2.1088417881317425e-14),25,-25,14,yes,x,5,x,0.5584498999960488,1,11,test2,3,0.5587681000033626,-70.0
2,lsh,f,20,r,1,(121.76378772032346, -121.76378772032352),28,-3,11,yes,x,5,x,1.0165306999988388,1,12,test2,3,1.0166305000020657,-48.0
2,lsh,f,20,r,1,(121.76378772032349, 121.76378772032349),22,-7,13,yes,x,5,x,0.6115038999996614,1,13,test2,3,0.6117557999968994,-52.0
2,lsh,f,20,r,1,(172.20000000000002, 0.0),21,-7,13,yes,x,5,x,0.6209932000056142,1,14,test2,3,0.6210962000041036,-52.0
2,lsh,f,20,r,1,(121.76378772032349, 121.76378772032349),22,-3,11,yes,x,5,x,0.8860237999906531,1,15,test2,3,0.8861412999976892,-48.0
2,lsh,f,20,r,1,(-121.76378772032352, -121.76378772032348),26,-3,11,yes,x,5,m,1.4887930000113556,0,16,test2,3,1.488896399998339,-48.0
2,lsh,f,20,r,1,(121.76378772032346, -121.76378772032352),28,7,3,yes,x,5,x,0.5526481999986572,1,17,test2,3,0.5528405999939423,-38.0
2,lsh,f,20,r,1,(-121.76378772032352, -121.76378772032348),26,-5,12,no,m,6,m,1.0692916000116384,1,18,test2,3,1.0693915000010747,-38.0
2,lsh,f,20,r,1,(172.20000000000002, 0.0),21,25,4,yes,x,5,x,0.6835791999910725,1,19,test2,3,0.6838168000103906,-20.0
2,lsh,f,20,r,1,(-172.20000000000002, 2.1088417881317425e-14),25,25,4,yes,x,5,x,0.661302299995441,1,20,test2,3,0.6615143999952124,-20.0
2,lsh,f,20,r,1,(121.76378772032346, -121.76378772032352),28,5,2,yes,x,5,x,0.9883651999989524,1,21,test2,3,0.9884798999992199,-40.0
2,lsh,f,20,r,1,(-121.76378772032348, 121.76378772032349),24,-5,12,yes,x,5,x,1.3102310999965994,1,22,test2,3,1.3103401999978814,-50.0
2,lsh,f,20,r,1,(121.76378772032346, -121.76378772032352),28,-7,13,yes,x,5,x,0.6543552000075579,1,23,test2,3,0.6548550000006799,-52.0
2,lsh,f,20,r,1,(172.20000000000002, 0.0),21,-25,14,no,m,6,m,1.0179875000030734,1,24,test2,3,1.0180831000034232,-52.0
2,lsh,f,20,r,1,(1.0544208940658713e-14, 172.20000000000002),23,7,3,yes,x,5,x,0.6913497000059579,1,25,test2,3,0.6916346999933012,-38.0
2,lsh,f,20,r,1,(-121.76378772032352, -121.76378772032348),26,-3,11,no,m,6,m,0.7647162000066601,1,26,test2,3,0.764936999999918,-38.0
2,lsh,f,20,r,1,(-121.76378772032352, -121.76378772032348),26,-25,14,no,m,6,m,0.760366200003773,1,27,test2,3,0.7606195999978809,-38.0
2,lsh,f,20,r,1,(121.76378772032349, 121.76378772032349),22,7,3,yes,x,5,x,0.6755456000100821,1,28,test2,3,0.6756601999950362,-38.0
2,lsh,f,20,r,1,(-3.163262682197613e-14, -172.20000000000002),27,5,2,yes,x,5,x,0.6484988999873167,1,29,test2,3,0.6486612000007881,-40.0
2,lsh,f,20,r,1,(-121.76378772032352, -121.76378772032348),26,-25,14,yes,x,5,x,0.6854349000059301,1,30,test2,3,0.6855586000019684,-70.0
2,lsh,f,20,r,1,(-121.76378772032348, 121.76378772032349),24,-7,13,yes,x,5,x,0.6542482000077143,1,31,test2,3,0.6543411000020569,-52.0
2,lsh,f,20,r,1,(1.0544208940658713e-14, 172.20000000000002),23,-25,14,yes,x,5,x,0.4705664000066463,1,32,test2,3,0.47066319998702966,-70.0
2,lsh,f,20,r,1,(121.76378772032346, -121.76378772032352),28,-3,11,no,m,6,x,0.6376735999947414,0,33,test2,3,0.6378091000078712,-70.0
2,lsh,f,20,r,1,(172.20000000000002, 0.0),21,7,3,no,m,6,m,0.785149100003764,1,34,test2,3,0.7852461000002222,-70.0
2,lsh,f,20,r,1,(121.76378772032346, -121.76378772032352),28,7,3,yes,x,5,x,0.608864599998924,1,35,test2,3,0.6090026000019861,-38.0
2,lsh,f,20,r,1,(1.0544208940658713e-14, 172.20000000000002),23,-5,12,yes,x,5,x,0.5633988000045065,1,36,test2,3,0.5638678000104846,-50.0
2,lsh,f,20,r,1,(121.76378772032349, 121.76378772032349),22,7,3,no,m,6,x,1.3018939000030514,0,37,test2,3,1.302335900007165,-50.0
2,lsh,f,20,r,1,(-3.163262682197613e-14, -172.20000000000002),27,-25,14,no,m,6,m,1.2213961999950698,1,38,test2,3,1.221633799999836,-50.0
2,lsh,f,20,r,1,(172.20000000000002, 0.0),21,5,2,yes,x,5,x,0.7318626999913249,1,39,test2,3,0.7321559000120033,-40.0
2,lsh,f,20,r,1,(-121.76378772032348, 121.76378772032349),24,-25,14,yes,x,5,x,0.5560926999896765,1,40,test2,3,0.5562174000078812,-70.0
2,lsh,f,20,r,1,(-3.163262682197613e-14, -172.20000000000002),27,-3,11,yes,x,5,x,0.7106594999931986,1,41,test2,3,0.7108200000075158,-48.0
2,lsh,f,20,r,1,(1.0544208940658713e-14, 172.20000000000002),23,3,1,yes,x,5,x,0.8522542000137037,1,42,test2,3,0.8526361000112956,-42.0
2,lsh,f,20,r,1,(-121.76378772032348, 121.76378772032349),24,7,3,yes,x,5,x,0.5747204000072088,1,43,test2,3,0.5748748000041815,-38.0
2,lsh,f,20,r,1,(121.76378772032346, -121.76378772032352),28,-3,11,yes,x,5,x,0.6839207000011811,1,44,test2,3,0.6840187999914633,-48.0
2,lsh,f,20,r,1,(121.76378772032346, -121.76378772032352),28,-7,13,yes,x,5,x,0.5619211000012001,1,45,test2,3,0.5622285999997985,-52.0
2,lsh,f,20,r,1,(-121.76378772032352, -121.76378772032348),26,5,2,yes,x,5,x,0.735118099997635,1,46,test2,3,0.735339799997746,-40.0
2,lsh,f,20,r,1,(-172.20000000000002, 2.1088417881317425e-14),25,-5,12,yes,x,5,x,0.6361461000051349,1,47,test2,3,0.6365607000043383,-50.0
2,lsh,f,20,r,1,(-121.76378772032348, 121.76378772032349),24,-3,11,yes,x,5,x,0.7787045000004582,1,48,test2,3,0.7788657999917632,-48.0
2,lsh,f,20,r,1,(-3.163262682197613e-14, -172.20000000000002),27,7,3,yes,x,5,x,0.56387560001167,1,49,test2,3,0.5640364999999292,-38.0
2,lsh,f,20,r,1,(1.0544208940658713e-14, 172.20000000000002),23,25,4,yes,x,5,x,0.6605152999982238,1,50,test2,3,0.6607653999963077,-20.0
2,lsh,f,20,r,1,(-3.163262682197613e-14, -172.20000000000002),27,3,1,no,m,6,m,0.7367844999971567,1,51,test2,3,0.7370104000001447,-20.0
2,lsh,f,20,r,1,(1.0544208940658713e-14, 172.20000000000002),23,-5,12,no,m,6,m,0.7824929999915184,1,52,test2,3,0.7825980000052368,-20.0
2,lsh,f,20,r,1,(121.76378772032346, -121.76378772032352),28,-25,14,yes,x,5,x,0.47935229999711737,1,53,test2,3,0.47964600000705104,-70.0
2,lsh,f,20,r,1,(-121.76378772032352, -121.76378772032348),26,-7,13,yes,x,5,x,0.5802910000056727,1,54,test2,3,0.580666800000472,-52.0
2,lsh,f,20,r,1,(172.20000000000002, 0.0),21,3,1,yes,x,5,m,0.7406439000042155,0,55,test2,3,0.7409029999980703,-42.0
2,lsh,f,20,r,1,(121.76378772032346, -121.76378772032352),28,3,1,no,m,6,x,1.0512724000000162,0,56,test2,3,1.0515791000070749,-42.0
2,lsh,f,20,r,1,(121.76378772032349, 121.76378772032349),22,-5,12,yes,x,5,x,0.6642456000117818,1,57,test2,3,0.6643455000012182,-50.0
2,lsh,f,20,r,1,(-3.163262682197613e-14, -172.20000000000002),27,-7,13,no,m,6,m,0.6246947000036016,1,58,test2,3,0.6248519999935525,-50.0
2,lsh,f,20,r,1,(1.0544208940658713e-14, 172.20000000000002),23,-25,14,no,m,6,m,0.7087402000033762,1,59,test2,3,0.7088421999942511,-50.0
2,lsh,f,20,r,1,(-3.163262682197613e-14, -172.20000000000002),27,-5,12,yes,x,5,x,0.777367000002414,1,60,test2,3,0.7778836000070442,-50.0
2,lsh,f,20,r,1,(-121.76378772032348, 121.76378772032349),24,25,4,no,m,6,m,0.6858065999986138,1,61,test2,3,0.6860161000076914,-50.0
2,lsh,f,20,r,1,(172.20000000000002, 0.0),21,5,2,yes,x,5,x,0.6666197000013199,1,62,test2,3,0.6667145999963395,-40.0
2,lsh,f,20,r,1,(121.76378772032346, -121.76378772032352),28,-7,13,no,m,6,m,1.158792700007325,1,63,test2,3,1.1588922000082675,-40.0
2,lsh,f,20,r,1,(-3.163262682197613e-14, -172.20000000000002),27,25,4,no,m,6,m,0.7158512999885716,1,64,test2,3,0.7160507999942638,-40.0
2,lsh,f,20,r,1,(-172.20000000000002, 2.1088417881317425e-14),25,7,3,no,m,6,m,0.6854970999993384,1,65,test2,3,0.6861095000058413,-40.0
2,lsh,f,20,r,1,(121.76378772032346, -121.76378772032352),28,-5,12,no,m,6,m,0.5686709000001429,1,66,test2,3,0.5687715000094613,-40.0
2,lsh,f,20,r,1,(-121.76378772032352, -121.76378772032348),26,-7,13,no,m,6,m,0.5335055000032298,1,67,test2,3,0.5336669999960577,-40.0
2,lsh,f,20,r,1,(-172.20000000000002, 2.1088417881317425e-14),25,-25,14,no,m,6,m,0.5948919999937061,1,68,test2,3,0.5951279000000795,-40.0
2,lsh,f,20,r,1,(121.76378772032349, 121.76378772032349),22,-3,11,yes,x,5,x,0.6687010000023292,1,69,test2,3,0.6688288000004832,-48.0
2,lsh,f,20,r,1,(121.76378772032346, -121.76378772032352),28,7,3,no,m,6,x,0.8330629999982193,0,70,test2,3,0.8332945000001928,-48.0
2,lsh,f,20,r,1,(172.20000000000002, 0.0),21,-3,11,no,m,6,m,1.037911899999017,1,71,test2,3,1.0381071999872802,-48.0
2,lsh,f,20,r,1,(121.76378772032349, 121.76378772032349),22,3,1,yes,x,5,m,1.0055239999928745,0,72,test2,3,1.005743200003053,-42.0
2,lsh,f,20,r,1,(1.0544208940658713e-14, 172.20000000000002),23,-3,11,yes,x,5,x,0.5704239000042435,1,73,test2,3,0.570615300006466,-48.0
2,lsh,f,20,r,1,(-121.76378772032348, 121.76378772032349),24,-3,11,no,m,6,m,0.8624293999891961,1,74,test2,3,0.8625574999896344,-48.0
2,lsh,f,20,r,1,(172.20000000000002, 0.0),21,-5,12,yes,x,5,x,0.4910944000002928,1,75,test2,3,0.49120840000978205,-50.0
2,lsh,f,20,r,1,(121.76378772032346, -121.76378772032352),28,25,4,no,m,6,m,1.3051721999945585,1,76,test2,3,1.3053048000001581,-50.0
2,lsh,f,20,r,1,(-172.20000000000002, 2.1088417881317425e-14),25,5,2,no,m,6,m,0.646961900012684,1,77,test2,3,0.6470838999957778,-50.0
2,lsh,f,20,r,1,(1.0544208940658713e-14, 172.20000000000002),23,-7,13,no,m,6,m,0.6251523999962956,1,78,test2,3,0.6253503999905661,-50.0
2,lsh,f,20,r,1,(-121.76378772032348, 121.76378772032349),24,-25,14,no,m,6,m,0.6295565000036731,1,79,test2,3,0.6296713000047021,-50.0
2,lsh,f,20,r,1,(-121.76378772032352, -121.76378772032348),26,-7,13,yes,x,5,x,0.5775946999929147,1,80,test2,3,0.5779264000011608,-52.0
2,lsh,f,20,r,1,(1.0544208940658713e-14, 172.20000000000002),23,5,2,yes,x,5,x,0.7681355999957304,1,81,test2,3,0.7683734000020195,-40.0
2,lsh,f,20,r,1,(172.20000000000002, 0.0),21,3,1,yes,x,5,x,1.1375242000067374,1,82,test2,3,1.137681899999734,-42.0
2,lsh,f,20,r,1,(-121.76378772032348, 121.76378772032349),24,-7,13,yes,x,5,x,0.753704500006279,1,83,test2,3,0.7539358000067296,-52.0
2,lsh,f,20,r,1,(172.20000000000002, 0.0),21,-25,14,yes,x,5,x,0.6379375000105938,1,84,test2,3,0.638092900000629,-70.0
2,lsh,f,20,r,1,(121.76378772032349, 121.76378772032349),22,7,3,yes,x,5,x,0.6890918999997666,1,85,test2,3,0.6892205000040121,-38.0
2,lsh,f,20,r,1,(-172.20000000000002, 2.1088417881317425e-14),25,5,2,yes,x,5,x,0.7005868999985978,1,86,test2,3,0.7007358999981079,-40.0
2,lsh,f,20,r,1,(-121.76378772032352, -121.76378772032348),26,-5,12,yes,x,5,x,0.6354395000089426,1,87,test2,3,0.63567430000694,-50.0
2,lsh,f,20,r,1,(1.0544208940658713e-14, 172.20000000000002),23,25,4,yes,x,5,x,0.5618042999994941,1,88,test2,3,0.5620374999998603,-20.0
2,lsh,f,20,r,1,(172.20000000000002, 0.0),21,-3,11,yes,x,5,x,0.6331192999932682,1,89,test2,3,0.6333376999973552,-48.0
2,lsh,f,20,r,1,(-3.163262682197613e-14, -172.20000000000002),27,-3,11,yes,x,5,x,0.820715999987442,1,90,test2,3,0.8209433000010904,-48.0
2,lsh,f,20,r,1,(-121.76378772032348, 121.76378772032349),24,-25,14,yes,x,5,x,0.5418765999929747,1,91,test2,3,0.5423073999991175,-70.0
2,lsh,f,20,r,1,(-172.20000000000002, 2.1088417881317425e-14),25,-7,13,no,m,6,m,0.9588521999976365,1,92,test2,3,0.9590596000052756,-70.0
2,lsh,f,20,r,1,(-3.163262682197613e-14, -172.20000000000002),27,-25,14,yes,x,5,x,0.5736602999968454,1,93,test2,3,0.5737635999976192,-70.0
2,lsh,f,20,r,1,(172.20000000000002, 0.0),21,-5,12,yes,x,5,x,0.6794365999958245,1,94,test2,3,0.6797088000021176,-50.0
2,lsh,f,20,r,1,(-121.76378772032352, -121.76378772032348),26,5,2,yes,x,5,x,0.6133334999904037,1,95,test2,3,0.6134586000116542,-40.0
2,lsh,f,20,r,1,(121.76378772032349, 121.76378772032349),22,-25,14,yes,x,5,x,0.561445500003174,1,96,test2,3,0.5616613000020152,-70.0
2,lsh,f,20,r,1,(-172.20000000000002, 2.1088417881317425e-14),25,-7,13,yes,x,5,x,0.5270228000008501,1,1,test1,4,0.5271322000044165,-52.0
2,lsh,f,20,r,1,(-121.76378772032352, -121.76378772032348),26,-25,14,yes,x,5,x,0.5026690999948187,1,2,test1,4,0.5030203000060283,-70.0
2,lsh,f,20,r,1,(121.76378772032346, -121.76378772032352),28,25,4,yes,x,5,x,0.6004197000002023,1,3,test1,4,0.6007376000052318,-20.0
2,lsh,f,20,r,1,(-3.163262682197613e-14, -172.20000000000002),27,25,4,yes,x,5,x,0.809415199997602,1,4,test1,4,0.809766899998067,-20.0
2,lsh,f,20,r,1,(1.0544208940658713e-14, 172.20000000000002),23,-7,13,yes,x,5,x,0.6329521000006935,1,5,test1,4,0.6331009999994421,-52.0
2,lsh,f,20,r,1,(121.76378772032349, 121.76378772032349),22,25,4,yes,x,5,x,0.4806015999929514,1,6,test1,4,0.48075750000134576,-20.0
2,lsh,f,20,r,1,(-3.163262682197613e-14, -172.20000000000002),27,3,1,yes,x,5,x,0.663180999996257,1,7,test1,4,0.6633115000004182,-42.0
2,lsh,f,20,r,1,(172.20000000000002, 0.0),21,-25,14,yes,x,5,x,0.6652341000008164,1,8,test1,4,0.6653235999983735,-70.0
2,lsh,f,20,r,1,(121.76378772032349, 121.76378772032349),22,5,2,no,m,6,m,0.8881991000089329,1,9,test1,4,0.8885244999983115,-70.0
2,lsh,f,20,r,1,(121.76378772032349, 121.76378772032349),22,-5,12,yes,x,5,x,0.4698204000014812,1,10,test1,4,0.4701039999927161,-50.0
2,lsh,f,20,r,1,(-121.76378772032352, -121.76378772032348),26,25,4,yes,x,5,x,0.5108039000042481,1,11,test1,4,0.510904800001299,-20.0
2,lsh,f,20,r,1,(172.20000000000002, 0.0),21,7,3,yes,x,5,x,0.6382161999936216,1,12,test1,4,0.638309299989487,-38.0
2,lsh,f,20,r,1,(121.76378772032349, 121.76378772032349),22,-7,13,yes,x,5,x,0.6626700999913737,1,13,test1,4,0.6630520000035176,-52.0
2,lsh,f,20,r,1,(172.20000000000002, 0.0),21,3,1,no,m,6,m,0.7343714000016917,1,14,test1,4,0.7345974000054412,-52.0
2,lsh,f,20,r,1,(-121.76378772032352, -121.76378772032348),26,3,1,no,m,6,m,0.7874558999901637,1,15,test1,4,0.7878359999886015,-52.0
2,lsh,f,20,r,1,(-121.76378772032348, 121.76378772032349),24,5,2,yes,x,5,x,0.5092768999893451,1,16,test1,4,0.5093790999962948,-40.0
2,lsh,f,20,r,1,(-172.20000000000002, 2.1088417881317425e-14),25,3,1,no,m,6,x,1.2087735999957658,0,17,test1,4,1.209278299997095,-40.0
2,lsh,f,20,r,1,(-3.163262682197613e-14, -172.20000000000002),27,3,1,yes,x,5,x,1.0540792999963742,1,18,test1,4,1.05450149999524,-42.0
2,lsh,f,20,r,1,(1.0544208940658713e-14, 172.20000000000002),23,-7,13,yes,x,5,x,0.5612416999938432,1,19,test1,4,0.5613421000016388,-52.0
2,lsh,f,20,r,1,(172.20000000000002, 0.0),21,25,4,yes,x,5,x,0.5064926000050036,1,20,test1,4,0.5071556000038981,-20.0
2,lsh,f,20,r,1,(172.20000000000002, 0.0),21,25,4,no,m,6,m,0.7416473000048427,1,21,test1,4,0.7419286999938777,-20.0
2,lsh,f,20,r,1,(1.0544208940658713e-14, 172.20000000000002),23,5,2,yes,x,5,x,0.5683500000013737,1,22,test1,4,0.5687331000081031,-40.0
2,lsh,f,20,r,1,(-121.76378772032348, 121.76378772032349),24,5,2,no,m,6,m,0.7328419999976177,1,23,test1,4,0.733106300001964,-40.0
2,lsh,f,20,r,1,(-121.76378772032352, -121.76378772032348),26,3,1,yes,x,5,m,0.7683764999965206,0,24,test1,4,0.7684777999966173,-42.0
2,lsh,f,20,r,1,(1.0544208940658713e-14, 172.20000000000002),23,7,3,no,m,6,m,0.99848560000828,1,25,test1,4,0.9985872999968706,-42.0
2,lsh,f,20,r,1,(121.76378772032346, -121.76378772032352),28,-25,14,yes,x,5,x,0.5818349000037415,1,26,test1,4,0.5819634000072256,-70.0
2,lsh,f,20,r,1,(172.20000000000002, 0.0),21,-7,13,no,m,6,m,0.6066799999971408,1,27,test1,4,0.6067976000049384,-70.0
2,lsh,f,20,r,1,(-172.20000000000002, 2.1088417881317425e-14),25,-3,11,yes,x,5,x,0.5807963000115706,1,28,test1,4,0.5809081999905175,-48.0
2,lsh,f,20,r,1,(121.76378772032349, 121.76378772032349),22,3,1,yes,x,5,x,0.855045300006168,1,29,test1,4,0.8551472000108333,-42.0
2,lsh,f,20,r,1,(121.76378772032349, 121.76378772032349),22,25,4,yes,x,5,x,0.4460278000042308,1,30,test1,4,0.4462649000051897,-20.0
2,lsh,f,20,r,1,(-172.20000000000002, 2.1088417881317425e-14),25,-3,11,yes,x,5,x,0.5828980999940541,1,31,test1,4,0.5830214000015985,-48.0
2,lsh,f,20,r,1,(-121.76378772032352, -121.76378772032348),26,25,4,yes,x,5,x,0.4809425999992527,1,32,test1,4,0.4810548000095878,-20.0
2,lsh,f,20,r,1,(-172.20000000000002, 2.1088417881317425e-14),25,7,3,yes,x,5,x,0.48825270000088494,1,33,test1,4,0.4886441999988165,-38.0
2,lsh,f,20,r,1,(-172.20000000000002, 2.1088417881317425e-14),25,25,4,no,m,6,m,0.8716131999972276,1,34,test1,4,0.8717762000014773,-38.0
2,lsh,f,20,r,1,(172.20000000000002, 0.0),21,7,3,yes,x,5,x,0.5565126000001328,1,35,test1,4,0.5566148999932921,-38.0
2,lsh,f,20,r,1,(121.76378772032349, 121.76378772032349),22,-7,13,no,m,6,x,1.1092628000042168,0,36,test1,4,1.1096871000045212,-38.0
2,lsh,f,20,r,1,(-121.76378772032352, -121.76378772032348),26,25,4,no,m,6,m,0.8983951999980491,1,37,test1,4,0.8985573999962071,-38.0
2,lsh,f,20,r,1,(-121.76378772032352, -121.76378772032348),26,-3,11,yes,x,5,m,0.6322222000017064,0,38,test1,4,0.6323820000106934,-48.0
2,lsh,f,20,r,1,(-3.163262682197613e-14, -172.20000000000002),27,-7,13,yes,x,5,x,0.44261879999248777,1,39,test1,4,0.4428321000013966,-52.0
2,lsh,f,20,r,1,(-121.76378772032348, 121.76378772032349),24,-3,11,yes,x,5,x,0.7514134999946691,1,40,test1,4,0.7515262000088114,-48.0
2,lsh,f,20,r,1,(1.0544208940658713e-14, 172.20000000000002),23,25,4,no,m,6,m,0.6242823000065982,1,41,test1,4,0.6246134999964852,-48.0
2,lsh,f,20,r,1,(1.0544208940658713e-14, 172.20000000000002),23,-3,11,no,m,6,m,0.7116132000082871,1,42,test1,4,0.7119667000079062,-48.0
2,lsh,f,20,r,1,(121.76378772032349, 121.76378772032349),22,-25,14,no,m,6,m,0.931743600012851,1,43,test1,4,0.9320689000014681,-48.0
2,lsh,f,20,r,1,(-121.76378772032352, -121.76378772032348),26,7,3,yes,x,5,x,0.536551099998178,1,44,test1,4,0.5373518999986118,-38.0
2,lsh,f,20,r,1,(-121.76378772032348, 121.76378772032349),24,25,4,yes,x,5,x,0.5020872000022791,1,45,test1,4,0.5022924000077182,-20.0
2,lsh,f,20,r,1,(-3.163262682197613e-14, -172.20000000000002),27,-5,12,yes,x,5,x,0.5116861000133213,1,46,test1,4,0.5120486000087112,-50.0
2,lsh,f,20,r,1,(-121.76378772032348, 121.76378772032349),24,-5,12,yes,x,5,x,0.4571739999955753,1,47,test1,4,0.4575526000116952,-50.0
2,lsh,f,20,r,1,(172.20000000000002, 0.0),21,5,2,no,m,6,m,1.0364898999978323,1,48,test1,4,1.0367180000030203,-50.0
2,lsh,f,20,r,1,(121.76378772032346, -121.76378772032352),28,3,1,yes,x,5,m,0.6369995999993989,0,49,test1,4,0.637270899998839,-42.0
2,lsh,f,20,r,1,(-3.163262682197613e-14, -172.20000000000002),27,5,2,yes,x,5,x,0.5366901999950642,1,50,test1,4,0.5371401000011247,-40.0
2,lsh,f,20,r,1,(1.0544208940658713e-14, 172.20000000000002),23,-25,14,yes,x,5,x,0.4733212999999523,1,51,test1,4,0.47345669999776874,-70.0
2,lsh,f,20,r,1,(-121.76378772032352, -121.76378772032348),26,7,3,yes,x,5,x,0.5833952999964822,1,52,test1,4,0.5836052999948151,-38.0
2,lsh,f,20,r,1,(1.0544208940658713e-14, 172.20000000000002),23,3,1,yes,x,5,x,0.4203756000060821,1,53,test1,4,0.4204695999942487,-42.0
2,lsh,f,20,r,1,(1.0544208940658713e-14, 172.20000000000002),23,5,2,no,m,6,m,0.7901866000029258,1,54,test1,4,0.7902871999976924,-42.0
2,lsh,f,20,r,1,(-3.163262682197613e-14, -172.20000000000002),27,5,2,no,m,6,m,0.681235399999423,1,55,test1,4,0.6815831999992952,-42.0
2,lsh,f,20,r,1,(1.0544208940658713e-14, 172.20000000000002),23,3,1,no,m,6,m,0.6500073000061093,1,56,test1,4,0.6501017999980832,-42.0
2,lsh,f,20,r,1,(121.76378772032346, -121.76378772032352),28,-5,12,yes,x,5,x,0.7868377000122564,1,57,test1,4,0.7870473999937531,-50.0
2,lsh,f,20,r,1,(-121.76378772032348, 121.76378772032349),24,25,4,yes,x,5,x,1.4879614999954356,1,58,test1,4,1.4884726000018418,-20.0
2,lsh,f,20,r,1,(1.0544208940658713e-14, 172.20000000000002),23,-5,12,yes,x,5,x,0.48826879999251105,1,59,test1,4,0.4885037000058219,-50.0
2,lsh,f,20,r,1,(-121.76378772032348, 121.76378772032349),24,7,3,yes,x,5,x,0.4570557999977609,1,60,test1,4,0.4575308999919798,-38.0
2,lsh,f,20,r,1,(-121.76378772032352, -121.76378772032348),26,-5,12,yes,x,5,x,0.6113731999939773,1,61,test1,4,0.6115169999975478,-50.0
2,lsh,f,20,r,1,(-121.76378772032352, -121.76378772032348),26,3,1,yes,x,5,x,0.8914885999984108,1,62,test1,4,0.8917941999970935,-42.0
2,lsh,f,20,r,1,(-3.163262682197613e-14, -172.20000000000002),27,-7,13,yes,x,5,x,0.44986619999690447,1,63,test1,4,0.4503636000008555,-52.0
2,lsh,f,20,r,1,(121.76378772032346, -121.76378772032352),28,3,1,yes,x,5,m,0.8780622000049334,0,64,test1,4,0.8786749999999302,-42.0
2,lsh,f,20,r,1,(-121.76378772032348, 121.76378772032349),24,7,3,no,m,6,x,0.6458814999932656,0,65,test1,4,0.64630359999137,-42.0
2,lsh,f,20,r,1,(-121.76378772032352, -121.76378772032348),26,7,3,no,m,6,m,0.8559555000101682,1,66,test1,4,0.8560862000013003,-42.0
2,lsh,f,20,r,1,(172.20000000000002, 0.0),21,-5,12,no,m,6,m,0.8044167000043672,1,67,test1,4,0.8047022999962792,-42.0
2,lsh,f,20,r,1,(-172.20000000000002, 2.1088417881317425e-14),25,5,2,yes,x,5,x,0.48658359999535605,1,68,test1,4,0.48713449999922886,-40.0
2,lsh,f,20,r,1,(-172.20000000000002, 2.1088417881317425e-14),25,-7,13,yes,x,5,x,0.5645920999959344,1,69,test1,4,0.5647164999973029,-52.0
2,lsh,f,20,r,1,(-172.20000000000002, 2.1088417881317425e-14),25,7,3,yes,x,5,x,0.5451535999891348,1,70,test1,4,0.5452665999910096,-38.0
2,lsh,f,20,r,1,(-121.76378772032348, 121.76378772032349),24,5,2,yes,x,5,x,0.5847743000049377,1,71,test1,4,0.5855356000101892,-40.0
2,lsh,f,20,r,1,(-121.76378772032348, 121.76378772032349),24,3,1,yes,x,5,m,0.9352363999933004,0,72,test1,4,0.9355504999984987,-42.0
2,lsh,f,20,r,1,(-172.20000000000002, 2.1088417881317425e-14),25,3,1,yes,x,5,x,0.4730452000076184,1,73,test1,4,0.4731723000004422,-42.0
2,lsh,f,20,r,1,(121.76378772032346, -121.76378772032352),28,5,2,yes,x,5,x,0.5430917000048794,1,74,test1,4,0.5433115999912843,-40.0
2,lsh,f,20,r,1,(121.76378772032346, -121.76378772032352),28,25,4,yes,x,5,x,0.4736810000031255,1,75,test1,4,0.47391449999122415,-20.0
2,lsh,f,20,r,1,(-121.76378772032348, 121.76378772032349),24,3,1,yes,x,5,x,0.5960156000073766,1,76,test1,4,0.5961155000113649,-42.0
2,lsh,f,20,r,1,(-121.76378772032348, 121.76378772032349),24,3,1,no,m,6,m,0.6460822999943048,1,77,test1,4,0.6461955999984639,-42.0
2,lsh,f,20,r,1,(-121.76378772032348, 121.76378772032349),24,-5,12,no,m,6,x,0.5173177999968175,0,78,test1,4,0.5175527999963379,-42.0
2,lsh,f,20,r,1,(-3.163262682197613e-14, -172.20000000000002),27,-25,14,yes,x,5,x,0.545105400000466,1,79,test1,4,0.5454857000004267,-70.0
2,lsh,f,20,r,1,(-3.163262682197613e-14, -172.20000000000002),27,25,4,yes,x,5,x,0.5352137000008952,1,80,test1,4,0.5353112000011606,-20.0
2,lsh,f,20,r,1,(121.76378772032349, 121.76378772032349),22,-25,14,yes,x,5,x,0.4983256999985315,1,81,test1,4,0.49846960000286344,-70.0
2,lsh,f,20,r,1,(-172.20000000000002, 2.1088417881317425e-14),25,-5,12,yes,x,5,x,0.4752653999894392,1,82,test1,4,0.4756595000071684,-50.0
2,lsh,f,20,r,1,(121.76378772032346, -121.76378772032352),28,5,2,no,m,6,m,0.8101827999926172,1,83,test1,4,0.8105446000117809,-50.0
2,lsh,f,20,r,1,(121.76378772032346, -121.76378772032352),28,-25,14,no,m,6,m,0.6436759000062011,1,84,test1,4,0.6437751000048593,-50.0
2,lsh,f,20,r,1,(-121.76378772032348, 121.76378772032349),24,-7,13,no,m,6,m,0.5891457999969134,1,85,test1,4,0.5893606000026921,-50.0
2,lsh,f,20,r,1,(121.76378772032349, 121.76378772032349),22,5,2,yes,x,5,x,0.7012146999913966,1,86,test1,4,0.701390000001993,-40.0
2,lsh,f,20,r,1,(-121.76378772032352, -121.76378772032348),26,5,2,no,m,6,m,0.6833374999987427,1,87,test1,4,0.68345149999368,-40.0
2,lsh,f,20,r,1,(1.0544208940658713e-14, 172.20000000000002),23,-3,11,yes,x,5,x,0.9107867999991868,1,88,test1,4,0.9109146999981022,-48.0
2,lsh,f,20,r,1,(121.76378772032346, -121.76378772032352),28,-5,12,yes,x,5,x,0.7405950999964261,1,89,test1,4,0.7408795000083046,-50.0
2,lsh,f,20,r,1,(172.20000000000002, 0.0),21,-7,13,yes,x,5,x,0.5880199000093853,1,90,test1,4,0.5881195000110893,-52.0
2,lsh,f,20,r,1,(-172.20000000000002, 2.1088417881317425e-14),25,25,4,yes,x,5,x,0.5589744000026258,1,91,test1,4,0.559166400009417,-20.0
2,lsh,f,20,r,1,(121.76378772032349, 121.76378772032349),22,25,4,no,m,6,m,0.8029837000067346,1,92,test1,4,0.8033056999993278,-20.0
2,lsh,f,20,r,1,(-3.163262682197613e-14, -172.20000000000002),27,-5,12,no,m,6,m,0.7055204000062076,1,93,test1,4,0.7056567000108771,-20.0
2,lsh,f,20,r,1,(121.76378772032349, 121.76378772032349),22,3,1,no,m,6,m,0.6223185999988345,1,94,test1,4,0.6224233999964781,-20.0
2,lsh,f,20,r,1,(-3.163262682197613e-14, -172.20000000000002),27,-3,11,no,m,6,m,0.5218001000030199,1,95,test1,4,0.5219292999972822,-20.0
2,lsh,f,20,r,1,(-172.20000000000002, 2.1088417881317425e-14),25,-5,12,no,m,6,m,0.4928038999933051,1,96,test1,4,0.4930400000012014,-20.0
2,lsh,f,20,r,1,(-172.20000000000002, 2.1088417881317425e-14),25,3,1,yes,x,5,x,0.7338365000032354,1,1,test2,4,0.7343746000115061,-42.0
2,lsh,f,20,r,1,(121.76378772032349, 121.76378772032349),22,-3,11,no,m,6,m,0.9598089999926742,1,2,test2,4,0.9600684000033652,-42.0
2,lsh,f,20,r,1,(-172.20000000000002, 2.1088417881317425e-14),25,-25,14,yes,x,5,x,0.4781260000017937,1,3,test2,4,0.4782963000034215,-70.0
2,lsh,f,20,r,1,(121.76378772032349, 121.76378772032349),22,-5,12,no,m,6,m,0.6973909999942407,1,4,test2,4,0.6979350000037812,-70.0
2,lsh,f,20,r,1,(-172.20000000000002, 2.1088417881317425e-14),25,-3,11,no,m,6,m,0.6292379000078654,1,5,test2,4,0.6293684999982361,-70.0
2,lsh,f,20,r,1,(-3.163262682197613e-14, -172.20000000000002),27,7,3,yes,x,5,x,0.6239712000096915,1,6,test2,4,0.6242518000071868,-38.0
2,lsh,f,20,r,1,(-3.163262682197613e-14, -172.20000000000002),27,7,3,no,m,6,m,0.6796304000017699,1,7,test2,4,0.680617699996219,-38.0
2,lsh,f,20,r,1,(172.20000000000002, 0.0),21,-3,11,yes,x,5,x,0.8445897000055993,1,8,test2,4,0.8450613000022713,-48.0
2,lsh,f,20,r,1,(121.76378772032349, 121.76378772032349),22,5,2,yes,x,5,x,0.5569591000094078,1,9,test2,4,0.5573455999983707,-40.0
2,lsh,f,20,r,1,(1.0544208940658713e-14, 172.20000000000002),23,7,3,yes,x,5,x,0.7801191000035033,1,10,test2,4,0.780219299995224,-38.0
2,lsh,f,20,r,1,(-172.20000000000002, 2.1088417881317425e-14),25,-25,14,yes,x,5,x,0.4861888000014005,1,11,test2,4,0.48628920000919607,-70.0
2,lsh,f,20,r,1,(121.76378772032346, -121.76378772032352),28,-3,11,yes,x,5,x,1.2908756999968318,1,12,test2,4,1.2909915000054752,-48.0
2,lsh,f,20,r,1,(121.76378772032349, 121.76378772032349),22,-7,13,yes,x,5,x,0.5488865000079386,1,13,test2,4,0.548995000004652,-52.0
2,lsh,f,20,r,1,(172.20000000000002, 0.0),21,-7,13,yes,x,5,x,0.5023075000062818,1,14,test2,4,0.5026057000068249,-52.0
2,lsh,f,20,r,1,(121.76378772032349, 121.76378772032349),22,-3,11,yes,x,5,x,0.6210049999936018,1,15,test2,4,0.6213289000006625,-48.0
2,lsh,f,20,r,1,(-121.76378772032352, -121.76378772032348),26,-3,11,yes,x,5,x,0.7364787999977125,1,16,test2,4,0.7365711000020383,-48.0
2,lsh,f,20,r,1,(121.76378772032346, -121.76378772032352),28,7,3,yes,x,5,x,0.5795598999975482,1,17,test2,4,0.5799568999937037,-38.0
2,lsh,f,20,r,1,(-121.76378772032352, -121.76378772032348),26,-5,12,no,m,6,m,1.4961176999931922,1,18,test2,4,1.4962415999907535,-38.0
2,lsh,f,20,r,1,(172.20000000000002, 0.0),21,25,4,yes,x,5,x,0.6793298999982653,1,19,test2,4,0.6798809000028996,-20.0
2,lsh,f,20,r,1,(-172.20000000000002, 2.1088417881317425e-14),25,25,4,yes,x,5,x,0.5689012000075309,1,20,test2,4,0.5690574000036577,-20.0
2,lsh,f,20,r,1,(121.76378772032346, -121.76378772032352),28,5,2,yes,x,5,x,0.7832588000019314,1,21,test2,4,0.783429499992053,-40.0
2,lsh,f,20,r,1,(-121.76378772032348, 121.76378772032349),24,-5,12,yes,x,5,x,0.7681118000036804,1,22,test2,4,0.768436099999235,-50.0
2,lsh,f,20,r,1,(121.76378772032346, -121.76378772032352),28,-7,13,yes,x,5,x,0.6919809999963036,1,23,test2,4,0.6924809999909485,-52.0
2,lsh,f,20,r,1,(172.20000000000002, 0.0),21,-25,14,no,m,6,m,1.591157100003329,1,24,test2,4,1.5913675000047078,-52.0
2,lsh,f,20,r,1,(1.0544208940658713e-14, 172.20000000000002),23,7,3,yes,x,5,x,0.6393733000004431,1,25,test2,4,0.6395553999900585,-38.0
2,lsh,f,20,r,1,(-121.76378772032352, -121.76378772032348),26,-3,11,no,m,6,m,1.401020100005553,1,26,test2,4,1.401303699996788,-38.0
2,lsh,f,20,r,1,(-121.76378772032352, -121.76378772032348),26,-25,14,no,m,6,m,0.9845767000078922,1,27,test2,4,0.9850836000114214,-38.0
2,lsh,f,20,r,1,(121.76378772032349, 121.76378772032349),22,7,3,yes,x,5,x,0.7835248000046704,1,28,test2,4,0.7837357999960659,-38.0
2,lsh,f,20,r,1,(-3.163262682197613e-14, -172.20000000000002),27,5,2,yes,x,5,x,0.579605699997046,1,29,test2,4,0.5798327999946196,-40.0
2,lsh,f,20,r,1,(-121.76378772032352, -121.76378772032348),26,-25,14,yes,x,5,x,0.5509709999896586,1,30,test2,4,0.5510729999950854,-70.0
2,lsh,f,20,r,1,(-121.76378772032348, 121.76378772032349),24,-7,13,yes,x,5,x,0.5611439000058454,1,31,test2,4,0.5615656000009039,-52.0
2,lsh,f,20,r,1,(1.0544208940658713e-14, 172.20000000000002),23,-25,14,yes,x,5,x,0.4726815999893006,1,32,test2,4,0.47301980000338517,-70.0
2,lsh,f,20,r,1,(121.76378772032346, -121.76378772032352),28,-3,11,no,m,6,m,0.975175899991882,1,33,test2,4,0.9752747000020463,-70.0
2,lsh,f,20,r,1,(172.20000000000002, 0.0),21,7,3,no,m,6,m,0.7313987999950768,1,34,test2,4,0.7316324999992503,-70.0
2,lsh,f,20,r,1,(121.76378772032346, -121.76378772032352),28,7,3,yes,x,5,x,0.5693002000043634,1,35,test2,4,0.5695006999885663,-38.0
2,lsh,f,20,r,1,(1.0544208940658713e-14, 172.20000000000002),23,-5,12,yes,x,5,x,0.639481500009424,1,36,test2,4,0.639683800007333,-50.0
2,lsh,f,20,r,1,(121.76378772032349, 121.76378772032349),22,7,3,no,m,6,m,0.7767896000004839,1,37,test2,4,0.7777620999986539,-50.0
2,lsh,f,20,r,1,(-3.163262682197613e-14, -172.20000000000002),27,-25,14,no,m,6,m,0.7091933000046993,1,38,test2,4,0.709421100007603,-50.0
2,lsh,f,20,r,1,(172.20000000000002, 0.0),21,5,2,yes,x,5,x,0.6412975999992341,1,39,test2,4,0.6416888000094332,-40.0
2,lsh,f,20,r,1,(-121.76378772032348, 121.76378772032349),24,-25,14,yes,x,5,x,0.5282198000058997,1,40,test2,4,0.5284889000031399,-70.0
2,lsh,f,20,r,1,(-3.163262682197613e-14, -172.20000000000002),27,-3,11,yes,x,5,x,0.8064867999928538,1,41,test2,4,0.8066880999977002,-48.0
2,lsh,f,20,r,1,(1.0544208940658713e-14, 172.20000000000002),23,3,1,yes,x,5,x,0.561674700002186,1,42,test2,4,0.561793899993063,-42.0
2,lsh,f,20,r,1,(-121.76378772032348, 121.76378772032349),24,7,3,yes,x,5,x,0.4972745999984909,1,43,test2,4,0.49737480000476353,-38.0
2,lsh,f,20,r,1,(121.76378772032346, -121.76378772032352),28,-3,11,yes,x,5,x,0.7354899000056321,1,44,test2,4,0.7356609999987995,-48.0
2,lsh,f,20,r,1,(121.76378772032346, -121.76378772032352),28,-7,13,yes,x,5,x,0.5912115999963135,1,45,test2,4,0.5913832999940496,-52.0
2,lsh,f,20,r,1,(-121.76378772032352, -121.76378772032348),26,5,2,yes,x,5,x,0.7166048000071896,1,46,test2,4,0.7169856999971671,-40.0
2,lsh,f,20,r,1,(-172.20000000000002, 2.1088417881317425e-14),25,-5,12,yes,x,5,x,0.5548970999952871,1,47,test2,4,0.5551382999983616,-50.0
2,lsh,f,20,r,1,(-121.76378772032348, 121.76378772032349),24,-3,11,yes,x,5,x,0.6438495999900624,1,48,test2,4,0.6441255000099773,-48.0
2,lsh,f,20,r,1,(-3.163262682197613e-14, -172.20000000000002),27,7,3,yes,x,5,x,0.6168691999919247,1,49,test2,4,0.6169891000026837,-38.0
2,lsh,f,20,r,1,(1.0544208940658713e-14, 172.20000000000002),23,25,4,yes,x,5,x,0.5817922999995062,1,50,test2,4,0.581973399996059,-20.0
2,lsh,f,20,r,1,(-3.163262682197613e-14, -172.20000000000002),27,3,1,no,m,6,m,0.8118720999918878,1,51,test2,4,0.8122064999915892,-20.0
2,lsh,f,20,r,1,(1.0544208940658713e-14, 172.20000000000002),23,-5,12,no,m,6,m,1.1668571999907726,1,52,test2,4,1.1671001999930013,-20.0
2,lsh,f,20,r,1,(121.76378772032346, -121.76378772032352),28,-25,14,yes,x,5,x,0.6348444000032032,1,53,test2,4,0.6349813000124414,-70.0
2,lsh,f,20,r,1,(-121.76378772032352, -121.76378772032348),26,-7,13,yes,x,5,x,0.7077247999986866,1,54,test2,4,0.7078231000050437,-52.0
2,lsh,f,20,r,1,(172.20000000000002, 0.0),21,3,1,yes,x,5,x,0.6420348000101512,1,55,test2,4,0.6423225000035018,-42.0
2,lsh,f,20,r,1,(121.76378772032346, -121.76378772032352),28,3,1,no,m,6,m,0.9658563999983016,1,56,test2,4,0.9661773999978323,-42.0
2,lsh,f,20,r,1,(121.76378772032349, 121.76378772032349),22,-5,12,yes,x,5,x,0.6527838000038173,1,57,test2,4,0.652954300006968,-50.0
2,lsh,f,20,r,1,(-3.163262682197613e-14, -172.20000000000002),27,-7,13,no,m,6,m,0.8726342000009026,1,58,test2,4,0.8727613999944879,-50.0
2,lsh,f,20,r,1,(1.0544208940658713e-14, 172.20000000000002),23,-25,14,no,m,6,m,0.7209384000016144,1,59,test2,4,0.7210886999964714,-50.0
2,lsh,f,20,r,1,(-3.163262682197613e-14, -172.20000000000002),27,-5,12,yes,x,5,x,0.5647770999930799,1,60,test2,4,0.5648950000031618,-50.0
2,lsh,f,20,r,1,(-121.76378772032348, 121.76378772032349),24,25,4,no,m,6,m,0.7658655999985058,1,61,test2,4,0.7665070999937598,-50.0
2,lsh,f,20,r,1,(172.20000000000002, 0.0),21,5,2,yes,x,5,x,0.8014746999979252,1,62,test2,4,0.8015981000062311,-40.0
2,lsh,f,20,r,1,(121.76378772032346, -121.76378772032352),28,-7,13,no,m,6,m,0.7816917000018293,1,63,test2,4,0.7820307999936631,-40.0
