subj_id,subj_name,subj_gender ,subj_age,subj_handedness,subj_runNum,tar_l_x,tar_l_y,loc_code,tar_ori,tar_code,tar_pre ,cor_response,pre_code,subj_response,RT,correct,trial_num,type,bloc_num,dur, real_tar
2,lsh,f,20,r,2,(-121.76378772032348, 121.76378772032349),24,25,4,yes,x,5,x,0.5109768999973312,1,1,test1,1,0.5111140000008163,-20.0
2,lsh,f,20,r,2,(121.76378772032349, 121.76378772032349),22,3,1,yes,x,5,x,0.7612220000009984,1,2,test1,1,0.7613749000011012,-42.0
2,lsh,f,20,r,2,(-172.20000000000002, 2.1088417881317425e-14),25,-7,13,yes,x,5,x,0.4621971000015037,1,3,test1,1,0.4627171999964048,-52.0
2,lsh,f,20,r,2,(-172.20000000000002, 2.1088417881317425e-14),25,-25,14,yes,x,5,x,0.3209050000004936,1,4,test1,1,0.3210059999983059,-70.0
2,lsh,f,20,r,2,(172.20000000000002, 0.0),21,3,1,no,m,6,m,0.5752785000004224,1,5,test1,1,0.5754076000011992,-70.0
2,lsh,f,20,r,2,(-121.76378772032348, 121.76378772032349),24,-25,14,yes,x,5,x,0.31448599999566795,1,6,test1,1,0.3146456999966176,-70.0
2,lsh,f,20,r,2,(-172.20000000000002, 2.1088417881317425e-14),25,-7,13,no,m,6,m,0.7262374000056298,1,7,test1,1,0.7263352000009036,-70.0
2,lsh,f,20,r,2,(172.20000000000002, 0.0),21,3,1,yes,x,5,m,0.5004235000014887,0,8,test1,1,0.5005687999946531,-42.0
2,lsh,f,20,r,2,(-121.76378772032348, 121.76378772032349),24,-3,11,yes,x,5,x,0.5819715999969048,1,9,test1,1,0.5820999999996275,-48.0
2,lsh,f,20,r,2,(1.0544208940658713e-14, 172.20000000000002),23,5,2,yes,x,5,x,0.5733108999993419,1,10,test1,1,0.5734091000049375,-40.0
2,lsh,f,20,r,2,(-121.76378772032348, 121.76378772032349),24,5,2,yes,x,5,x,0.42818439999973634,1,11,test1,1,0.4284066999971401,-40.0
2,lsh,f,20,r,2,(-121.76378772032348, 121.76378772032349),24,-5,12,no,m,6,m,0.6836215000002994,1,12,test1,1,0.6838711999953375,-40.0
2,lsh,f,20,r,2,(172.20000000000002, 0.0),21,7,3,yes,x,5,x,0.4150340000051074,1,13,test1,1,0.4152646000002278,-38.0
2,lsh,f,20,r,2,(-172.20000000000002, 2.1088417881317425e-14),25,3,1,yes,x,5,x,0.5372274000037578,1,14,test1,1,0.5373254000005545,-42.0
2,lsh,f,20,r,2,(-3.163262682197613e-14, -172.20000000000002),27,-3,11,no,m,6,m,0.6938442000027862,1,15,test1,1,0.6940745999963838,-42.0
2,lsh,f,20,r,2,(172.20000000000002, 0.0),21,-3,11,yes,x,5,x,0.5818968999956269,1,16,test1,1,0.5821058000001358,-48.0
2,lsh,f,20,r,2,(121.76378772032346, -121.76378772032352),28,3,1,yes,x,5,x,0.8384399999995367,1,17,test1,1,0.8385522000025958,-42.0
2,lsh,f,20,r,2,(121.76378772032346, -121.76378772032352),28,7,3,no,m,6,x,0.4354500999979791,0,18,test1,1,0.43557480000163196,-42.0
2,lsh,f,20,r,2,(1.0544208940658713e-14, 172.20000000000002),23,-3,11,yes,x,5,m,1.389765100000659,0,19,test1,1,1.3903314999988652,-48.0
2,lsh,f,20,r,2,(-3.163262682197613e-14, -172.20000000000002),27,-5,12,yes,x,5,x,0.5970756000024267,1,20,test1,1,0.5973526000016136,-50.0
2,lsh,f,20,r,2,(-121.76378772032352, -121.76378772032348),26,7,3,no,m,6,m,0.792395000004035,1,21,test1,1,0.7925254000001587,-50.0
2,lsh,f,20,r,2,(121.76378772032346, -121.76378772032352),28,5,2,yes,x,5,x,0.4747075000050245,1,22,test1,1,0.474948700000823,-40.0
2,lsh,f,20,r,2,(1.0544208940658713e-14, 172.20000000000002),23,25,4,yes,x,5,x,0.47722829999838723,1,23,test1,1,0.4774036000017077,-20.0
2,lsh,f,20,r,2,(-121.76378772032348, 121.76378772032349),24,-25,14,yes,x,5,x,0.4529328999997233,1,24,test1,1,0.45317119999526767,-70.0
2,lsh,f,20,r,2,(-3.163262682197613e-14, -172.20000000000002),27,-3,11,yes,x,5,x,1.0311913000041386,1,25,test1,1,1.0315188999957172,-48.0
2,lsh,f,20,r,2,(-172.20000000000002, 2.1088417881317425e-14),25,25,4,no,m,6,m,1.1984863000034238,1,26,test1,1,1.1986842000042088,-48.0
2,lsh,f,20,r,2,(-172.20000000000002, 2.1088417881317425e-14),25,3,1,no,m,6,m,0.6559043000015663,1,27,test1,1,0.6560957999972743,-48.0
2,lsh,f,20,r,2,(-121.76378772032348, 121.76378772032349),24,-7,13,no,m,6,m,0.7269825000039418,1,28,test1,1,0.7271829000019352,-48.0
2,lsh,f,20,r,2,(-3.163262682197613e-14, -172.20000000000002),27,-3,11,yes,x,5,x,0.5899260000005597,1,29,test1,1,0.5900244000004022,-48.0
2,lsh,f,20,r,2,(1.0544208940658713e-14, 172.20000000000002),23,-3,11,yes,x,5,x,0.86125919999904,1,30,test1,1,0.8615346000005957,-48.0
2,lsh,f,20,r,2,(172.20000000000002, 0.0),21,-7,13,yes,x,5,x,0.4251886999991257,1,31,test1,1,0.42559540000365814,-52.0
2,lsh,f,20,r,2,(-3.163262682197613e-14, -172.20000000000002),27,25,4,no,m,6,m,0.8766010999970604,1,32,test1,1,0.8768393999998807,-52.0
2,lsh,f,20,r,2,(-121.76378772032352, -121.76378772032348),26,7,3,yes,x,5,x,0.33925839999574237,1,33,test1,1,0.3395286000013584,-38.0
2,lsh,f,20,r,2,(172.20000000000002, 0.0),21,7,3,no,m,6,x,0.3449462999997195,0,34,test1,1,0.3453343000001041,-38.0
2,lsh,f,20,r,2,(121.76378772032349, 121.76378772032349),22,7,3,no,m,6,m,0.8192152999981772,1,35,test1,1,0.8193559999999707,-38.0
2,lsh,f,20,r,2,(1.0544208940658713e-14, 172.20000000000002),23,-7,13,yes,x,5,x,0.42625289999705274,1,36,test1,1,0.42672350000066217,-52.0
2,lsh,f,20,r,2,(172.20000000000002, 0.0),21,-5,12,yes,x,5,x,0.6511625999992248,1,37,test1,1,0.6516099000000395,-50.0
2,lsh,f,20,r,2,(1.0544208940658713e-14, 172.20000000000002),23,-25,14,yes,x,5,x,0.4607118999992963,1,38,test1,1,0.4608116999952472,-70.0
2,lsh,f,20,r,2,(172.20000000000002, 0.0),21,-5,12,no,m,6,m,0.7927974000049289,1,39,test1,1,0.7935575000010431,-70.0
2,lsh,f,20,r,2,(1.0544208940658713e-14, 172.20000000000002),23,-5,12,yes,x,5,x,0.5725592000017059,1,40,test1,1,0.5726881999944453,-50.0
2,lsh,f,20,r,2,(-172.20000000000002, 2.1088417881317425e-14),25,-5,12,yes,x,5,x,0.4479542000044603,1,41,test1,1,0.44805250000354135,-50.0
2,lsh,f,20,r,2,(1.0544208940658713e-14, 172.20000000000002),23,-25,14,no,m,6,m,0.7387584999960382,1,42,test1,1,0.7388821999993525,-50.0
2,lsh,f,20,r,2,(-121.76378772032352, -121.76378772032348),26,-25,14,no,m,6,m,0.5826760999989347,1,43,test1,1,0.5828661000050488,-50.0
2,lsh,f,20,r,2,(172.20000000000002, 0.0),21,-3,11,no,m,6,m,0.48390289999952074,1,44,test1,1,0.4841649000009056,-50.0
2,lsh,f,20,r,2,(121.76378772032346, -121.76378772032352),28,-7,13,yes,x,5,x,0.4886426999946707,1,45,test1,1,0.4888358000025619,-52.0
2,lsh,f,20,r,2,(-172.20000000000002, 2.1088417881317425e-14),25,7,3,yes,x,5,x,0.5075617999973474,1,46,test1,1,0.5078029000069364,-38.0
2,lsh,f,20,r,2,(-172.20000000000002, 2.1088417881317425e-14),25,3,1,yes,x,5,x,0.5565129000024172,1,47,test1,1,0.5567845999976271,-42.0
2,lsh,f,20,r,2,(121.76378772032349, 121.76378772032349),22,7,3,yes,x,5,x,0.5347127999993972,1,48,test1,1,0.5348097000023699,-38.0
2,lsh,f,20,r,2,(-121.76378772032348, 121.76378772032349),24,25,4,yes,x,5,x,0.4460222999987309,1,49,test1,1,0.4462022999941837,-20.0
2,lsh,f,20,r,2,(1.0544208940658713e-14, 172.20000000000002),23,7,3,yes,x,5,x,0.45233010000083596,1,50,test1,1,0.45245499999873573,-38.0
2,lsh,f,20,r,2,(-121.76378772032352, -121.76378772032348),26,-5,12,yes,x,5,x,0.4962115999951493,1,51,test1,1,0.49633059999905527,-50.0
2,lsh,f,20,r,2,(121.76378772032346, -121.76378772032352),28,-3,11,yes,x,5,x,0.6958756000021822,1,52,test1,1,0.6960001999977976,-48.0
2,lsh,f,20,r,2,(121.76378772032346, -121.76378772032352),28,7,3,yes,x,5,x,0.5635712000002968,1,53,test1,1,0.5637174000003142,-38.0
2,lsh,f,20,r,2,(172.20000000000002, 0.0),21,7,3,yes,x,5,x,0.4461461999962921,1,54,test1,1,0.4463761000006343,-38.0
2,lsh,f,20,r,2,(-3.163262682197613e-14, -172.20000000000002),27,5,2,yes,x,5,x,0.44572860000334913,1,55,test1,1,0.4463482999999542,-40.0
2,lsh,f,20,r,2,(1.0544208940658713e-14, 172.20000000000002),23,-25,14,yes,x,5,x,0.45794390000082785,1,56,test1,1,0.45810920000076294,-70.0
2,lsh,f,20,r,2,(-121.76378772032352, -121.76378772032348),26,3,1,yes,x,5,m,0.7674098999996204,0,57,test1,1,0.7676921000020229,-42.0
2,lsh,f,20,r,2,(1.0544208940658713e-14, 172.20000000000002),23,3,1,yes,x,5,x,1.0412308000013581,1,58,test1,1,1.0413926999972318,-42.0
2,lsh,f,20,r,2,(121.76378772032349, 121.76378772032349),22,25,4,yes,x,5,x,0.44344160000036936,1,59,test1,1,0.4435492000047816,-20.0
2,lsh,f,20,r,2,(1.0544208940658713e-14, 172.20000000000002),23,-7,13,no,m,6,m,0.656773599999724,1,60,test1,1,0.6571631000042544,-20.0
2,lsh,f,20,r,2,(1.0544208940658713e-14, 172.20000000000002),23,3,1,yes,x,5,x,0.8220027999996091,1,61,test1,1,0.8222421999962535,-42.0
2,lsh,f,20,r,2,(1.0544208940658713e-14, 172.20000000000002),23,7,3,no,m,6,m,0.6650417999990168,1,62,test1,1,0.6654530000014347,-42.0
2,lsh,f,20,r,2,(121.76378772032349, 121.76378772032349),22,-7,13,yes,x,5,x,0.47954800000297837,1,63,test1,1,0.4797083000012208,-52.0
2,lsh,f,20,r,2,(1.0544208940658713e-14, 172.20000000000002),23,-3,11,no,m,6,m,0.5951627000031294,1,64,test1,1,0.5954711000013049,-52.0
2,lsh,f,20,r,2,(121.76378772032349, 121.76378772032349),22,-5,12,yes,x,5,x,0.5155509999967762,1,65,test1,1,0.5161825000031968,-50.0
2,lsh,f,20,r,2,(-3.163262682197613e-14, -172.20000000000002),27,-25,14,yes,x,5,x,0.4049864000044181,1,66,test1,1,0.4051099000062095,-70.0
2,lsh,f,20,r,2,(1.0544208940658713e-14, 172.20000000000002),23,5,2,no,m,6,m,0.6519226000018534,1,67,test1,1,0.6520239000019501,-70.0
2,lsh,f,20,r,2,(-121.76378772032348, 121.76378772032349),24,7,3,yes,x,5,x,0.4309387000030256,1,68,test1,1,0.43118110000068555,-38.0
2,lsh,f,20,r,2,(172.20000000000002, 0.0),21,5,2,yes,x,5,x,0.4432946000015363,1,69,test1,1,0.4435056000002078,-40.0
2,lsh,f,20,r,2,(-172.20000000000002, 2.1088417881317425e-14),25,7,3,yes,x,5,x,0.4586478999990504,1,70,test1,1,0.4587437999944086,-38.0
2,lsh,f,20,r,2,(-121.76378772032352, -121.76378772032348),26,-3,11,no,m,6,m,0.7933352999971248,1,71,test1,1,0.7938781000048039,-38.0
2,lsh,f,20,r,2,(172.20000000000002, 0.0),21,5,2,no,m,6,m,0.750682500001858,1,72,test1,1,0.7511182000016561,-38.0
2,lsh,f,20,r,2,(-121.76378772032348, 121.76378772032349),24,-5,12,yes,x,5,x,0.4396273000020301,1,73,test1,1,0.43987059999926714,-50.0
2,lsh,f,20,r,2,(1.0544208940658713e-14, 172.20000000000002),23,25,4,no,m,6,m,0.7038892999989912,1,74,test1,1,0.7041035000002012,-50.0
2,lsh,f,20,r,2,(1.0544208940658713e-14, 172.20000000000002),23,-5,12,no,m,6,m,0.6127559000015026,1,75,test1,1,0.6130789000017103,-50.0
2,lsh,f,20,r,2,(-172.20000000000002, 2.1088417881317425e-14),25,-5,12,yes,x,5,x,0.670242700005474,1,76,test1,1,0.670468800002709,-50.0
2,lsh,f,20,r,2,(-121.76378772032352, -121.76378772032348),26,-3,11,yes,x,5,x,0.4570205999989412,1,77,test1,1,0.45717039999726694,-48.0
2,lsh,f,20,r,2,(-172.20000000000002, 2.1088417881317425e-14),25,-3,11,yes,x,5,x,0.4024462000015774,1,78,test1,1,0.40254510000522714,-48.0
2,lsh,f,20,r,2,(-172.20000000000002, 2.1088417881317425e-14),25,5,2,no,m,6,m,0.8566037000055076,1,79,test1,1,0.8567016000015428,-48.0
2,lsh,f,20,r,2,(-121.76378772032352, -121.76378772032348),26,5,2,yes,x,5,x,0.7280265000008512,1,80,test1,1,0.7281508000014583,-40.0
2,lsh,f,20,r,2,(-172.20000000000002, 2.1088417881317425e-14),25,-7,13,yes,x,5,x,0.4127401000005193,1,81,test1,1,0.4128853999936837,-52.0
2,lsh,f,20,r,2,(121.76378772032346, -121.76378772032352),28,-25,14,no,m,6,m,0.654846000004909,1,82,test1,1,0.6551626000000397,-52.0
2,lsh,f,20,r,2,(121.76378772032346, -121.76378772032352),28,3,1,no,m,6,m,0.6915340000050492,1,83,test1,1,0.6916476000042167,-52.0
2,lsh,f,20,r,2,(121.76378772032346, -121.76378772032352),28,-7,13,yes,x,5,x,0.5791710000048624,1,84,test1,1,0.5792710999958217,-52.0
2,lsh,f,20,r,2,(-121.76378772032348, 121.76378772032349),24,-3,11,yes,x,5,x,0.5604391999950167,1,85,test1,1,0.5607524000006379,-48.0
2,lsh,f,20,r,2,(-121.76378772032352, -121.76378772032348),26,-25,14,yes,x,5,x,0.39511620000121184,1,86,test1,1,0.39534099999582395,-70.0
2,lsh,f,20,r,2,(121.76378772032346, -121.76378772032352),28,5,2,yes,x,5,x,0.48665160000382457,1,87,test1,1,0.4868805000005523,-40.0
2,lsh,f,20,r,2,(-121.76378772032348, 121.76378772032349),24,3,1,yes,x,5,x,0.9278864000007161,1,88,test1,1,0.9281841999982134,-42.0
2,lsh,f,20,r,2,(-121.76378772032348, 121.76378772032349),24,-7,13,yes,x,5,x,0.4113448999996763,1,89,test1,1,0.4116555000000517,-52.0
2,lsh,f,20,r,2,(-121.76378772032352, -121.76378772032348),26,25,4,yes,x,5,x,0.46223230000032345,1,90,test1,1,0.46234060000278987,-20.0
2,lsh,f,20,r,2,(-121.76378772032352, -121.76378772032348),26,25,4,yes,x,5,x,0.42403980000381125,1,91,test1,1,0.42413759999908507,-20.0
2,lsh,f,20,r,2,(1.0544208940658713e-14, 172.20000000000002),23,5,2,yes,x,5,x,0.5456293999959598,1,92,test1,1,0.5457457000011345,-40.0
2,lsh,f,20,r,2,(-3.163262682197613e-14, -172.20000000000002),27,7,3,yes,x,5,x,0.3816235999984201,1,93,test1,1,0.38173700000334065,-38.0
2,lsh,f,20,r,2,(-3.163262682197613e-14, -172.20000000000002),27,-7,13,no,m,6,m,0.8129753999965033,1,94,test1,1,0.8130984000017634,-38.0
2,lsh,f,20,r,2,(-121.76378772032348, 121.76378772032349),24,5,2,yes,x,5,x,0.6544141000049422,1,95,test1,1,0.6545311000008951,-40.0
2,lsh,f,20,r,2,(121.76378772032346, -121.76378772032352),28,-25,14,yes,x,5,x,0.458702900003118,1,96,test1,1,0.45884559999831254,-70.0
2,lsh,f,20,r,2,(-121.76378772032348, 121.76378772032349),24,-5,12,yes,x,5,x,0.572424999998475,1,1,test2,1,0.5726512999972329,-50.0
2,lsh,f,20,r,2,(-172.20000000000002, 2.1088417881317425e-14),25,25,4,yes,x,5,x,0.42482770000060555,1,2,test2,1,0.42505420000088634,-20.0
2,lsh,f,20,r,2,(121.76378772032349, 121.76378772032349),22,-5,12,no,m,6,m,0.599454399998649,1,3,test2,1,0.5998049000045285,-20.0
2,lsh,f,20,r,2,(172.20000000000002, 0.0),21,-5,12,yes,x,5,x,0.5856606000015745,1,4,test2,1,0.5859105000054114,-50.0
2,lsh,f,20,r,2,(121.76378772032349, 121.76378772032349),22,25,4,yes,x,5,x,0.4533956999948714,1,5,test2,1,0.45362139999633655,-20.0
2,lsh,f,20,r,2,(1.0544208940658713e-14, 172.20000000000002),23,-7,13,yes,x,5,x,0.45051530000637285,1,6,test2,1,0.4507328999970923,-52.0
2,lsh,f,20,r,2,(121.76378772032349, 121.76378772032349),22,-7,13,no,m,6,m,0.6045483999987482,1,7,test2,1,0.6048107999959029,-52.0
2,lsh,f,20,r,2,(1.0544208940658713e-14, 172.20000000000002),23,-5,12,yes,x,5,x,0.40218820000154665,1,8,test2,1,0.4025242999996408,-50.0
2,lsh,f,20,r,2,(-3.163262682197613e-14, -172.20000000000002),27,3,1,yes,x,5,x,0.9029424999971525,1,9,test2,1,0.903123099997174,-42.0
2,lsh,f,20,r,2,(121.76378772032349, 121.76378772032349),22,-25,14,no,m,6,m,0.7067416999998386,1,10,test2,1,0.7069201999984216,-42.0
2,lsh,f,20,r,2,(172.20000000000002, 0.0),21,25,4,yes,x,5,x,0.4622903999988921,1,11,test2,1,0.4623878999991575,-20.0
2,lsh,f,20,r,2,(172.20000000000002, 0.0),21,25,4,yes,x,5,x,0.41343870000127936,1,12,test2,1,0.41360740000527585,-20.0
2,lsh,f,20,r,2,(-172.20000000000002, 2.1088417881317425e-14),25,5,2,yes,x,5,x,0.46724579999863636,1,13,test2,1,0.46734509999805596,-40.0
2,lsh,f,20,r,2,(-172.20000000000002, 2.1088417881317425e-14),25,25,4,yes,x,5,x,0.36090900000272086,1,14,test2,1,0.3613859000033699,-20.0
2,lsh,f,20,r,2,(-121.76378772032352, -121.76378772032348),26,25,4,no,m,6,m,0.6065710999973817,1,15,test2,1,0.6067161000028136,-20.0
2,lsh,f,20,r,2,(121.76378772032346, -121.76378772032352),28,3,1,yes,x,5,m,0.961464399995748,0,16,test2,1,0.9617342999990797,-42.0
2,lsh,f,20,r,2,(-172.20000000000002, 2.1088417881317425e-14),25,7,3,no,m,6,m,0.6720821999988402,1,17,test2,1,0.6721804000044358,-42.0
2,lsh,f,20,r,2,(-121.76378772032352, -121.76378772032348),26,5,2,no,m,6,m,0.9272836000018287,1,18,test2,1,0.9275701999940793,-42.0
2,lsh,f,20,r,2,(-172.20000000000002, 2.1088417881317425e-14),25,-3,11,no,m,6,m,0.6569600000002538,1,19,test2,1,0.6572091999987606,-42.0
2,lsh,f,20,r,2,(-3.163262682197613e-14, -172.20000000000002),27,3,1,yes,x,5,x,0.749888699996518,1,20,test2,1,0.7502597999991849,-42.0
2,lsh,f,20,r,2,(121.76378772032349, 121.76378772032349),22,-3,11,no,m,6,m,0.6347543000010774,1,21,test2,1,0.6348552999988897,-42.0
2,lsh,f,20,r,2,(-121.76378772032352, -121.76378772032348),26,-7,13,yes,x,5,x,0.45368259999668226,1,22,test2,1,0.4537981000030413,-52.0
2,lsh,f,20,r,2,(-172.20000000000002, 2.1088417881317425e-14),25,-25,14,no,m,6,m,0.6585078999996767,1,23,test2,1,0.6588362999973469,-52.0
2,lsh,f,20,r,2,(121.76378772032349, 121.76378772032349),22,-3,11,yes,x,5,x,0.5277132999981404,1,24,test2,1,0.5278440000038245,-48.0
2,lsh,f,20,r,2,(-121.76378772032352, -121.76378772032348),26,-7,13,no,m,6,m,0.6481504999974277,1,25,test2,1,0.6482429999960004,-48.0
2,lsh,f,20,r,2,(-121.76378772032352, -121.76378772032348),26,7,3,yes,x,5,x,0.4498846000060439,1,26,test2,1,0.4499896000052104,-38.0
2,lsh,f,20,r,2,(-121.76378772032352, -121.76378772032348),26,3,1,yes,x,5,x,0.6153954999972484,1,27,test2,1,0.6154935000013211,-42.0
2,lsh,f,20,r,2,(-121.76378772032352, -121.76378772032348),26,-25,14,yes,x,5,x,0.4428886999958195,1,28,test2,1,0.4430495999986306,-70.0
2,lsh,f,20,r,2,(-3.163262682197613e-14, -172.20000000000002),27,25,4,yes,x,5,x,0.4765297999983886,1,29,test2,1,0.47670539999671746,-20.0
2,lsh,f,20,r,2,(121.76378772032346, -121.76378772032352),28,-5,12,yes,x,5,x,0.5575024999998277,1,30,test2,1,0.5576291000033962,-50.0
2,lsh,f,20,r,2,(-172.20000000000002, 2.1088417881317425e-14),25,-5,12,no,m,6,m,0.6848602999962168,1,31,test2,1,0.6850170000034268,-50.0
2,lsh,f,20,r,2,(172.20000000000002, 0.0),21,-3,11,yes,x,5,x,1.3436757999952533,1,32,test2,1,1.3439044000042486,-48.0
2,lsh,f,20,r,2,(-121.76378772032348, 121.76378772032349),24,25,4,no,m,6,m,0.7214296000020113,1,33,test2,1,0.7217111999998451,-48.0
2,lsh,f,20,r,2,(-3.163262682197613e-14, -172.20000000000002),27,5,2,yes,x,5,x,0.5221209000010276,1,34,test2,1,0.5223505000030855,-40.0
2,lsh,f,20,r,2,(-3.163262682197613e-14, -172.20000000000002),27,5,2,no,m,6,m,0.6843745000005583,1,35,test2,1,0.6845921999993152,-40.0
2,lsh,f,20,r,2,(121.76378772032346, -121.76378772032352),28,-5,12,yes,x,5,x,0.5068099000054644,1,36,test2,1,0.5071173999967868,-50.0
2,lsh,f,20,r,2,(-3.163262682197613e-14, -172.20000000000002),27,-5,12,no,m,6,m,0.6083022999955574,1,37,test2,1,0.6087071000001743,-50.0
2,lsh,f,20,r,2,(-121.76378772032352, -121.76378772032348),26,3,1,no,m,6,m,0.6928642999992007,1,38,test2,1,0.6929579999996349,-50.0
2,lsh,f,20,r,2,(-121.76378772032348, 121.76378772032349),24,7,3,no,m,6,m,0.5757635999980266,1,39,test2,1,0.5761540999956196,-50.0
2,lsh,f,20,r,2,(121.76378772032346, -121.76378772032352),28,5,2,no,m,6,m,0.7846643999946536,1,40,test2,1,0.7847896000021137,-50.0
2,lsh,f,20,r,2,(121.76378772032349, 121.76378772032349),22,5,2,no,m,6,x,0.6111366999975871,0,41,test2,1,0.6112987999949837,-50.0
2,lsh,f,20,r,2,(121.76378772032346, -121.76378772032352),28,7,3,yes,x,5,x,0.6907126000005519,1,42,test2,1,0.6908180000027642,-38.0
2,lsh,f,20,r,2,(-121.76378772032348, 121.76378772032349),24,5,2,no,m,6,m,0.661952399997972,1,43,test2,1,0.6627768000034848,-38.0
2,lsh,f,20,r,2,(172.20000000000002, 0.0),21,-25,14,no,m,6,x,0.9359254000009969,0,44,test2,1,0.9361567000014475,-38.0
2,lsh,f,20,r,2,(121.76378772032346, -121.76378772032352),28,-25,14,yes,x,5,x,0.4502806000018609,1,45,test2,1,0.45055499999580206,-70.0
2,lsh,f,20,r,2,(-3.163262682197613e-14, -172.20000000000002),27,-7,13,yes,x,5,x,0.47296510000160197,1,46,test2,1,0.47328530000231694,-52.0
2,lsh,f,20,r,2,(121.76378772032349, 121.76378772032349),22,-5,12,yes,x,5,x,0.5881380999999237,1,47,test2,1,0.5882544999985839,-50.0
2,lsh,f,20,r,2,(-3.163262682197613e-14, -172.20000000000002),27,-7,13,yes,x,5,x,0.4235691000067163,1,48,test2,1,0.4236659000016516,-52.0
2,lsh,f,20,r,2,(-172.20000000000002, 2.1088417881317425e-14),25,-25,14,yes,x,5,x,0.4673642999987351,1,49,test2,1,0.46749170000111917,-70.0
2,lsh,f,20,r,2,(-172.20000000000002, 2.1088417881317425e-14),25,5,2,yes,x,5,x,0.5231873999946401,1,50,test2,1,0.5233459000010043,-40.0
2,lsh,f,20,r,2,(-3.163262682197613e-14, -172.20000000000002),27,3,1,no,m,6,m,0.6981147999977111,1,51,test2,1,0.6982355000000098,-40.0
2,lsh,f,20,r,2,(-3.163262682197613e-14, -172.20000000000002),27,-25,14,yes,x,5,x,0.46080430000438355,1,52,test2,1,0.46091969999542926,-70.0
2,lsh,f,20,r,2,(121.76378772032346, -121.76378772032352),28,25,4,yes,x,5,x,0.4250162999960594,1,53,test2,1,0.42545329999848036,-20.0
2,lsh,f,20,r,2,(-121.76378772032348, 121.76378772032349),24,3,1,yes,x,5,x,0.5852889000016148,1,54,test2,1,0.5856159000031766,-42.0
2,lsh,f,20,r,2,(121.76378772032349, 121.76378772032349),22,3,1,no,m,6,m,1.2403020999990986,1,55,test2,1,1.2404263999997056,-42.0
2,lsh,f,20,r,2,(-3.163262682197613e-14, -172.20000000000002),27,-25,14,no,m,6,m,0.6459792999958154,1,56,test2,1,0.6463862000018707,-42.0
2,lsh,f,20,r,2,(121.76378772032349, 121.76378772032349),22,5,2,yes,x,5,x,0.5361183999993955,1,57,test2,1,0.536280500004068,-40.0
2,lsh,f,20,r,2,(1.0544208940658713e-14, 172.20000000000002),23,25,4,yes,x,5,x,0.5674507000003359,1,58,test2,1,0.5676152000014554,-20.0
2,lsh,f,20,r,2,(-121.76378772032348, 121.76378772032349),24,7,3,yes,x,5,x,0.49718769999890355,1,59,test2,1,0.4973472999990918,-38.0
2,lsh,f,20,r,2,(172.20000000000002, 0.0),21,3,1,yes,x,5,x,1.0729229999997187,1,60,test2,1,1.0730890999984695,-42.0
2,lsh,f,20,r,2,(121.76378772032346, -121.76378772032352),28,-7,13,no,m,6,m,0.7077556000003824,1,61,test2,1,0.7084249000035925,-42.0
2,lsh,f,20,r,2,(121.76378772032349, 121.76378772032349),22,5,2,yes,x,5,x,0.565594499996223,1,62,test2,1,0.5658264000012423,-40.0
2,lsh,f,20,r,2,(-121.76378772032352, -121.76378772032348),26,-5,12,no,m,6,m,0.6960159999944153,1,63,test2,1,0.696152800002892,-40.0
2,lsh,f,20,r,2,(-121.76378772032348, 121.76378772032349),24,-7,13,yes,x,5,x,0.4599482999983593,1,64,test2,1,0.4600488000069163,-52.0
2,lsh,f,20,r,2,(121.76378772032349, 121.76378772032349),22,-3,11,yes,x,5,x,0.6148369000002276,1,65,test2,1,0.6149662000025273,-48.0
2,lsh,f,20,r,2,(172.20000000000002, 0.0),21,-7,13,yes,x,5,x,0.6541863000020385,1,66,test2,1,0.654426400004013,-52.0
2,lsh,f,20,r,2,(121.76378772032346, -121.76378772032352),28,25,4,no,m,6,m,0.8827349999992293,1,67,test2,1,0.8828921999956947,-52.0
2,lsh,f,20,r,2,(-121.76378772032348, 121.76378772032349),24,-25,14,no,m,6,m,0.657686399994418,1,68,test2,1,0.6578945999935968,-52.0
2,lsh,f,20,r,2,(121.76378772032349, 121.76378772032349),22,25,4,no,m,6,x,1.2159671999979764,0,69,test2,1,1.2161814999999478,-52.0
2,lsh,f,20,r,2,(172.20000000000002, 0.0),21,-7,13,no,m,6,m,0.598391299994546,1,70,test2,1,0.5986315999980434,-52.0
2,lsh,f,20,r,2,(172.20000000000002, 0.0),21,-25,14,yes,x,5,x,0.5171871000056854,1,71,test2,1,0.5172832000025664,-70.0
2,lsh,f,20,r,2,(121.76378772032346, -121.76378772032352),28,-3,11,yes,x,5,x,0.7356941999969422,1,72,test2,1,0.7361244999992778,-48.0
2,lsh,f,20,r,2,(-3.163262682197613e-14, -172.20000000000002),27,7,3,yes,x,5,x,0.5179845000020578,1,73,test2,1,0.5180884000001242,-38.0
2,lsh,f,20,r,2,(-3.163262682197613e-14, -172.20000000000002),27,25,4,yes,x,5,x,0.45305199999711476,1,74,test2,1,0.4534628999972483,-20.0
2,lsh,f,20,r,2,(1.0544208940658713e-14, 172.20000000000002),23,3,1,no,m,6,m,0.7917813999956707,1,75,test2,1,0.7920267000008607,-20.0
2,lsh,f,20,r,2,(-121.76378772032348, 121.76378772032349),24,3,1,no,m,6,m,0.7486876999973902,1,76,test2,1,0.7489330000025802,-20.0
2,lsh,f,20,r,2,(121.76378772032349, 121.76378772032349),22,-7,13,yes,x,5,x,0.48122480000165524,1,77,test2,1,0.4816186999960337,-52.0
2,lsh,f,20,r,2,(121.76378772032349, 121.76378772032349),22,3,1,yes,x,5,x,0.7947753999978886,1,78,test2,1,0.7951524000018253,-42.0
2,lsh,f,20,r,2,(-121.76378772032352, -121.76378772032348),26,5,2,yes,x,5,x,0.792725800005428,1,79,test2,1,0.7929091999976663,-40.0
2,lsh,f,20,r,2,(121.76378772032346, -121.76378772032352),28,25,4,yes,x,5,x,0.49295449999772245,1,80,test2,1,0.49326259999361355,-20.0
2,lsh,f,20,r,2,(172.20000000000002, 0.0),21,5,2,yes,x,5,x,0.5032418999981019,1,81,test2,1,0.5033402000044589,-40.0
2,lsh,f,20,r,2,(-121.76378772032352, -121.76378772032348),26,-7,13,yes,x,5,x,0.4813907999996445,1,82,test2,1,0.481629800000519,-52.0
2,lsh,f,20,r,2,(172.20000000000002, 0.0),21,25,4,no,m,6,m,0.7417616000020644,1,83,test2,1,0.741960499995912,-52.0
2,lsh,f,20,r,2,(121.76378772032346, -121.76378772032352),28,-3,11,no,m,6,m,0.7261297000004561,1,84,test2,1,0.726428499998292,-52.0
2,lsh,f,20,r,2,(-3.163262682197613e-14, -172.20000000000002),27,7,3,no,m,6,m,0.8465909000005922,1,85,test2,1,0.8468210999999428,-52.0
2,lsh,f,20,r,2,(172.20000000000002, 0.0),21,-25,14,yes,x,5,x,0.44430679999641143,1,86,test2,1,0.4444476999997278,-70.0
2,lsh,f,20,r,2,(121.76378772032349, 121.76378772032349),22,-25,14,yes,x,5,x,0.49241340000298806,1,87,test2,1,0.4926712999949814,-70.0
2,lsh,f,20,r,2,(121.76378772032346, -121.76378772032352),28,-5,12,no,m,6,m,0.6977314000032493,1,88,test2,1,0.6983942999941064,-70.0
2,lsh,f,20,r,2,(-121.76378772032352, -121.76378772032348),26,-5,12,yes,x,5,x,0.508135800002492,1,89,test2,1,0.5082320999936201,-50.0
2,lsh,f,20,r,2,(-121.76378772032352, -121.76378772032348),26,-3,11,yes,x,5,x,0.5295157000000472,1,90,test2,1,0.5297133999993093,-48.0
2,lsh,f,20,r,2,(121.76378772032349, 121.76378772032349),22,-25,14,yes,x,5,x,0.5066566000023158,1,91,test2,1,0.5067734000040218,-70.0
2,lsh,f,20,r,2,(121.76378772032349, 121.76378772032349),22,7,3,yes,x,5,x,0.5793946999983746,1,92,test2,1,0.5794973000010941,-38.0
2,lsh,f,20,r,2,(-121.76378772032348, 121.76378772032349),24,-3,11,no,m,6,m,0.6638804999965942,1,93,test2,1,0.6640394999994896,-38.0
2,lsh,f,20,r,2,(1.0544208940658713e-14, 172.20000000000002),23,7,3,yes,x,5,x,0.5248171999992337,1,94,test2,1,0.525522900003125,-38.0
2,lsh,f,20,r,2,(-172.20000000000002, 2.1088417881317425e-14),25,-3,11,yes,x,5,m,0.6448288999963552,0,95,test2,1,0.6450279999990016,-48.0
2,lsh,f,20,r,2,(-3.163262682197613e-14, -172.20000000000002),27,-5,12,yes,x,5,x,0.5015322999970522,1,96,test2,1,0.5023132999995141,-50.0
2,lsh,f,20,r,2,(-121.76378772032348, 121.76378772032349),24,25,4,yes,x,5,x,0.4787510999958613,1,1,test1,2,0.4789089999976568,-20.0
2,lsh,f,20,r,2,(121.76378772032349, 121.76378772032349),22,3,1,yes,x,5,x,0.7963884999990114,1,2,test1,2,0.7966918000020087,-42.0
2,lsh,f,20,r,2,(-172.20000000000002, 2.1088417881317425e-14),25,-7,13,yes,x,5,x,0.43031519999931334,1,3,test1,2,0.43041980000270996,-52.0
2,lsh,f,20,r,2,(-172.20000000000002, 2.1088417881317425e-14),25,-25,14,yes,x,5,x,0.3941266999972868,1,4,test1,2,0.39439970000239555,-70.0
2,lsh,f,20,r,2,(172.20000000000002, 0.0),21,3,1,no,m,6,m,0.587051499998779,1,5,test1,2,0.5873483000032138,-70.0
2,lsh,f,20,r,2,(-121.76378772032348, 121.76378772032349),24,-25,14,yes,x,5,x,0.4014741999999387,1,6,test1,2,0.40183170000091195,-70.0
2,lsh,f,20,r,2,(-172.20000000000002, 2.1088417881317425e-14),25,-7,13,no,m,6,m,0.6479623999985051,1,7,test1,2,0.6484964000046602,-70.0
2,lsh,f,20,r,2,(172.20000000000002, 0.0),21,3,1,yes,x,5,m,0.8392045000000508,0,8,test1,2,0.8394263000009232,-42.0
2,lsh,f,20,r,2,(-121.76378772032348, 121.76378772032349),24,-3,11,yes,x,5,x,0.5028574999960256,1,9,test1,2,0.5030799000014667,-48.0
2,lsh,f,20,r,2,(1.0544208940658713e-14, 172.20000000000002),23,5,2,yes,x,5,x,0.6777175000024727,1,10,test1,2,0.6781203999998979,-40.0
2,lsh,f,20,r,2,(-121.76378772032348, 121.76378772032349),24,5,2,yes,x,5,x,0.45371690000320086,1,11,test1,2,0.4539565000013681,-40.0
2,lsh,f,20,r,2,(-121.76378772032348, 121.76378772032349),24,-5,12,no,m,6,m,0.8240578000040841,1,12,test1,2,0.824379300000146,-40.0
2,lsh,f,20,r,2,(172.20000000000002, 0.0),21,7,3,yes,x,5,x,0.5669330000018817,1,13,test1,2,0.5673324000017601,-38.0
2,lsh,f,20,r,2,(-172.20000000000002, 2.1088417881317425e-14),25,3,1,yes,x,5,x,0.5204438000000664,1,14,test1,2,0.5206753999955254,-42.0
2,lsh,f,20,r,2,(-3.163262682197613e-14, -172.20000000000002),27,-3,11,no,m,6,m,0.8412821000019903,1,15,test1,2,0.8416033999965293,-42.0
2,lsh,f,20,r,2,(172.20000000000002, 0.0),21,-3,11,yes,x,5,x,0.5836917999986326,1,16,test1,2,0.5838263999976334,-48.0
2,lsh,f,20,r,2,(121.76378772032346, -121.76378772032352),28,3,1,yes,x,5,x,0.7729392999972333,1,17,test1,2,0.7730321999988519,-42.0
2,lsh,f,20,r,2,(121.76378772032346, -121.76378772032352),28,7,3,no,m,6,x,0.4530520000043907,0,18,test1,2,0.45333170000230893,-42.0
2,lsh,f,20,r,2,(1.0544208940658713e-14, 172.20000000000002),23,-3,11,yes,x,5,x,0.8867113999949652,1,19,test1,2,0.8869336999996449,-48.0
2,lsh,f,20,r,2,(-3.163262682197613e-14, -172.20000000000002),27,-5,12,yes,x,5,x,0.5856036000041058,1,20,test1,2,0.5857631999970181,-50.0
2,lsh,f,20,r,2,(-121.76378772032352, -121.76378772032348),26,7,3,no,m,6,x,1.0461188000044785,0,21,test1,2,1.046353800003999,-50.0
2,lsh,f,20,r,2,(121.76378772032346, -121.76378772032352),28,5,2,yes,x,5,x,0.5910950000034063,1,22,test1,2,0.5912257000018144,-40.0
2,lsh,f,20,r,2,(1.0544208940658713e-14, 172.20000000000002),23,25,4,yes,x,5,x,0.47958980000112206,1,23,test1,2,0.4799033999952371,-20.0
2,lsh,f,20,r,2,(-121.76378772032348, 121.76378772032349),24,-25,14,yes,x,5,x,0.49228040000161855,1,24,test1,2,0.4925870000006398,-70.0
2,lsh,f,20,r,2,(-3.163262682197613e-14, -172.20000000000002),27,-3,11,yes,x,5,x,0.7299096999995527,1,25,test1,2,0.7302992000040831,-48.0
2,lsh,f,20,r,2,(-172.20000000000002, 2.1088417881317425e-14),25,25,4,no,m,6,m,0.8170124999960535,1,26,test1,2,0.8172560000020894,-48.0
2,lsh,f,20,r,2,(-172.20000000000002, 2.1088417881317425e-14),25,3,1,no,m,6,m,0.7875454999957583,1,27,test1,2,0.78769860000466,-48.0
2,lsh,f,20,r,2,(-121.76378772032348, 121.76378772032349),24,-7,13,no,m,6,m,0.6183611000014935,1,28,test1,2,0.6185645000005024,-48.0
2,lsh,f,20,r,2,(-3.163262682197613e-14, -172.20000000000002),27,-3,11,yes,x,5,x,0.520831999994698,1,29,test1,2,0.5209925000017392,-48.0
2,lsh,f,20,r,2,(1.0544208940658713e-14, 172.20000000000002),23,-3,11,yes,x,5,x,0.536701400000311,1,30,test1,2,0.5368043999988004,-48.0
2,lsh,f,20,r,2,(172.20000000000002, 0.0),21,-7,13,yes,x,5,x,0.4484586999969906,1,31,test1,2,0.4485874000019976,-52.0
2,lsh,f,20,r,2,(-3.163262682197613e-14, -172.20000000000002),27,25,4,no,m,6,m,0.8101241000040318,1,32,test1,2,0.8104195999985677,-52.0
2,lsh,f,20,r,2,(-121.76378772032352, -121.76378772032348),26,7,3,yes,x,5,x,0.46203130000503734,1,33,test1,2,0.46213320000242675,-38.0
2,lsh,f,20,r,2,(172.20000000000002, 0.0),21,7,3,no,m,6,m,0.7144629999966128,1,34,test1,2,0.7148388999994495,-38.0
2,lsh,f,20,r,2,(121.76378772032349, 121.76378772032349),22,7,3,no,m,6,m,0.6899559000012232,1,35,test1,2,0.6900811999948928,-38.0
2,lsh,f,20,r,2,(1.0544208940658713e-14, 172.20000000000002),23,-7,13,yes,x,5,x,0.49730039999849396,1,36,test1,2,0.49742930000502383,-52.0
2,lsh,f,20,r,2,(172.20000000000002, 0.0),21,-5,12,yes,x,5,x,0.5078035999977146,1,37,test1,2,0.5079003999999259,-50.0
2,lsh,f,20,r,2,(1.0544208940658713e-14, 172.20000000000002),23,-25,14,yes,x,5,x,0.45656310000049416,1,38,test1,2,0.45666309999796795,-70.0
2,lsh,f,20,r,2,(172.20000000000002, 0.0),21,-5,12,no,m,6,m,0.6167695999974967,1,39,test1,2,0.6170017999975244,-70.0
2,lsh,f,20,r,2,(1.0544208940658713e-14, 172.20000000000002),23,-5,12,yes,x,5,x,0.46391469999798574,1,40,test1,2,0.4640117000017199,-50.0
2,lsh,f,20,r,2,(-172.20000000000002, 2.1088417881317425e-14),25,-5,12,yes,x,5,x,0.5967698999957065,1,41,test1,2,0.5969094999964,-50.0
2,lsh,f,20,r,2,(1.0544208940658713e-14, 172.20000000000002),23,-25,14,no,m,6,m,0.7367191000012099,1,42,test1,2,0.7368166999949608,-50.0
2,lsh,f,20,r,2,(-121.76378772032352, -121.76378772032348),26,-25,14,no,m,6,m,0.6726061000008485,1,43,test1,2,0.672826999994868,-50.0
2,lsh,f,20,r,2,(172.20000000000002, 0.0),21,-3,11,no,m,6,m,0.6092587000021012,1,44,test1,2,0.6094187999988208,-50.0
2,lsh,f,20,r,2,(121.76378772032346, -121.76378772032352),28,-7,13,yes,x,5,x,0.5462928000051761,1,45,test1,2,0.5464248999996926,-52.0
2,lsh,f,20,r,2,(-172.20000000000002, 2.1088417881317425e-14),25,7,3,yes,x,5,x,0.44156529999600025,1,46,test1,2,0.4417274000006728,-38.0
2,lsh,f,20,r,2,(-172.20000000000002, 2.1088417881317425e-14),25,3,1,yes,x,5,x,0.550570899999002,1,47,test1,2,0.5506730999986758,-42.0
2,lsh,f,20,r,2,(121.76378772032349, 121.76378772032349),22,7,3,yes,x,5,x,0.689594000003126,1,48,test1,2,0.689824499997485,-38.0
2,lsh,f,20,r,2,(-121.76378772032348, 121.76378772032349),24,25,4,yes,x,5,x,0.49680699999589706,1,49,test1,2,0.4970151000015903,-20.0
2,lsh,f,20,r,2,(1.0544208940658713e-14, 172.20000000000002),23,7,3,yes,x,5,x,0.45621509999909904,1,50,test1,2,0.4565647000054014,-38.0
2,lsh,f,20,r,2,(-121.76378772032352, -121.76378772032348),26,-5,12,yes,x,5,x,0.5647164999973029,1,51,test1,2,0.5648759000032442,-50.0
2,lsh,f,20,r,2,(121.76378772032346, -121.76378772032352),28,-3,11,yes,x,5,x,0.7711573999986285,1,52,test1,2,0.7715972000005422,-48.0
2,lsh,f,20,r,2,(121.76378772032346, -121.76378772032352),28,7,3,yes,x,5,x,0.542869700002484,1,53,test1,2,0.5430303000030108,-38.0
2,lsh,f,20,r,2,(172.20000000000002, 0.0),21,7,3,yes,x,5,x,0.5426182000010158,1,54,test1,2,0.5429438000064692,-38.0
2,lsh,f,20,r,2,(-3.163262682197613e-14, -172.20000000000002),27,5,2,yes,x,5,x,0.8433826000036788,1,55,test1,2,0.8438190000015311,-40.0
2,lsh,f,20,r,2,(1.0544208940658713e-14, 172.20000000000002),23,-25,14,yes,x,5,x,0.4184367999987444,1,56,test1,2,0.4190600000001723,-70.0
2,lsh,f,20,r,2,(-121.76378772032352, -121.76378772032348),26,3,1,yes,x,5,x,1.148465700003726,1,57,test1,2,1.1486717000007047,-42.0
2,lsh,f,20,r,2,(1.0544208940658713e-14, 172.20000000000002),23,3,1,yes,x,5,x,0.636172099999385,1,58,test1,2,0.6363107000070158,-42.0
2,lsh,f,20,r,2,(121.76378772032349, 121.76378772032349),22,25,4,yes,x,5,x,0.5273214999979245,1,59,test1,2,0.5274261000013212,-20.0
2,lsh,f,20,r,2,(1.0544208940658713e-14, 172.20000000000002),23,-7,13,no,m,6,m,0.8377286000031745,1,60,test1,2,0.8380084000018542,-20.0
2,lsh,f,20,r,2,(1.0544208940658713e-14, 172.20000000000002),23,3,1,yes,x,5,x,0.8113013000038336,1,61,test1,2,0.8115365999983624,-42.0
2,lsh,f,20,r,2,(1.0544208940658713e-14, 172.20000000000002),23,7,3,no,m,6,m,0.7184854999941308,1,62,test1,2,0.7186251000021002,-42.0
2,lsh,f,20,r,2,(121.76378772032349, 121.76378772032349),22,-7,13,yes,x,5,x,0.5109216999990167,1,63,test1,2,0.5111506999965059,-52.0
2,lsh,f,20,r,2,(1.0544208940658713e-14, 172.20000000000002),23,-3,11,no,m,6,m,1.1591963000028045,1,64,test1,2,1.159309700000449,-52.0
2,lsh,f,20,r,2,(121.76378772032349, 121.76378772032349),22,-5,12,yes,x,5,x,0.49490970000624657,1,65,test1,2,0.49519140000484185,-50.0
2,lsh,f,20,r,2,(-3.163262682197613e-14, -172.20000000000002),27,-25,14,yes,x,5,x,0.5698544999977457,1,66,test1,2,0.5702345999961835,-70.0
2,lsh,f,20,r,2,(1.0544208940658713e-14, 172.20000000000002),23,5,2,no,m,6,m,0.6701465000005555,1,67,test1,2,0.6702837000048021,-70.0
2,lsh,f,20,r,2,(-121.76378772032348, 121.76378772032349),24,7,3,yes,x,5,x,0.49494789999880595,1,68,test1,2,0.49504480000177864,-38.0
2,lsh,f,20,r,2,(172.20000000000002, 0.0),21,5,2,yes,x,5,x,0.8579801000014413,1,69,test1,2,0.8581807000009576,-40.0
2,lsh,f,20,r,2,(-172.20000000000002, 2.1088417881317425e-14),25,7,3,yes,x,5,x,0.46974169999884907,1,70,test1,2,0.470196100002795,-38.0
2,lsh,f,20,r,2,(-121.76378772032352, -121.76378772032348),26,-3,11,no,m,6,m,0.6914532000009785,1,71,test1,2,0.6916572999980417,-38.0
2,lsh,f,20,r,2,(172.20000000000002, 0.0),21,5,2,no,m,6,m,0.6929493999996339,1,72,test1,2,0.693062700003793,-38.0
2,lsh,f,20,r,2,(-121.76378772032348, 121.76378772032349),24,-5,12,yes,x,5,x,0.5050558000002638,1,73,test1,2,0.5052832000001217,-50.0
2,lsh,f,20,r,2,(1.0544208940658713e-14, 172.20000000000002),23,25,4,no,m,6,m,0.6495985000001383,1,74,test1,2,0.649825199994666,-50.0
2,lsh,f,20,r,2,(1.0544208940658713e-14, 172.20000000000002),23,-5,12,no,m,6,m,0.5649960000009742,1,75,test1,2,0.5651977999950759,-50.0
2,lsh,f,20,r,2,(-172.20000000000002, 2.1088417881317425e-14),25,-5,12,yes,x,5,x,0.47192949999589473,1,76,test1,2,0.4720491999978549,-50.0
2,lsh,f,20,r,2,(-121.76378772032352, -121.76378772032348),26,-3,11,yes,x,5,x,0.6357294999979786,1,77,test1,2,0.6360733999972581,-48.0
2,lsh,f,20,r,2,(-172.20000000000002, 2.1088417881317425e-14),25,-3,11,yes,x,5,x,0.49016539999865927,1,78,test1,2,0.49051640000107,-48.0
2,lsh,f,20,r,2,(-172.20000000000002, 2.1088417881317425e-14),25,5,2,no,m,6,x,0.6193900999933248,0,79,test1,2,0.6195602000007057,-48.0
2,lsh,f,20,r,2,(-121.76378772032352, -121.76378772032348),26,5,2,yes,x,5,x,0.6650999999983469,1,80,test1,2,0.6652153999966686,-40.0
2,lsh,f,20,r,2,(-172.20000000000002, 2.1088417881317425e-14),25,-7,13,yes,x,5,x,0.4748886000015773,1,81,test1,2,0.4752024000044912,-52.0
2,lsh,f,20,r,2,(121.76378772032346, -121.76378772032352),28,-25,14,no,m,6,m,0.6650449000007939,1,82,test1,2,0.6651831999988644,-52.0
2,lsh,f,20,r,2,(121.76378772032346, -121.76378772032352),28,3,1,no,m,6,m,0.6147840000048745,1,83,test1,2,0.6150637000027928,-52.0
2,lsh,f,20,r,2,(121.76378772032346, -121.76378772032352),28,-7,13,yes,x,5,x,0.5128588000006857,1,84,test1,2,0.513493099999323,-52.0
2,lsh,f,20,r,2,(-121.76378772032348, 121.76378772032349),24,-3,11,yes,x,5,x,0.4968847999989521,1,85,test1,2,0.4972358000013628,-48.0
2,lsh,f,20,r,2,(-121.76378772032352, -121.76378772032348),26,-25,14,yes,x,5,x,0.5533002000011038,1,86,test1,2,0.553558300001896,-70.0
2,lsh,f,20,r,2,(121.76378772032346, -121.76378772032352),28,5,2,yes,x,5,x,0.5777610000004643,1,87,test1,2,0.5779899000044679,-40.0
2,lsh,f,20,r,2,(-121.76378772032348, 121.76378772032349),24,3,1,yes,x,5,x,0.5872244999991381,1,88,test1,2,0.5874569000006886,-42.0
2,lsh,f,20,r,2,(-121.76378772032348, 121.76378772032349),24,-7,13,yes,x,5,x,0.551107499995851,1,89,test1,2,0.5515781999929459,-52.0
2,lsh,f,20,r,2,(-121.76378772032352, -121.76378772032348),26,25,4,yes,x,5,x,0.7569035999986227,1,90,test1,2,0.7570033999945736,-20.0
2,lsh,f,20,r,2,(-121.76378772032352, -121.76378772032348),26,25,4,yes,x,5,x,0.6464282000015373,1,91,test1,2,0.647126500000013,-20.0
2,lsh,f,20,r,2,(1.0544208940658713e-14, 172.20000000000002),23,5,2,yes,x,5,x,0.6146783000003779,1,92,test1,2,0.6147741999957361,-40.0
2,lsh,f,20,r,2,(-3.163262682197613e-14, -172.20000000000002),27,7,3,yes,x,5,x,0.5260923999958322,1,93,test1,2,0.5261897000018507,-38.0
2,lsh,f,20,r,2,(-3.163262682197613e-14, -172.20000000000002),27,-7,13,no,m,6,m,0.7430659999954514,1,94,test1,2,0.7434851999933016,-38.0
2,lsh,f,20,r,2,(-121.76378772032348, 121.76378772032349),24,5,2,yes,x,5,x,0.4557331999967573,1,95,test1,2,0.4558480000050622,-40.0
2,lsh,f,20,r,2,(121.76378772032346, -121.76378772032352),28,-25,14,yes,x,5,x,0.5141551999986405,1,96,test1,2,0.5144975000002887,-70.0
2,lsh,f,20,r,2,(-121.76378772032348, 121.76378772032349),24,-5,12,yes,x,5,x,0.6972585999974399,1,1,test2,2,0.6974187999949208,-50.0
2,lsh,f,20,r,2,(-172.20000000000002, 2.1088417881317425e-14),25,25,4,yes,x,5,x,0.6071956000014325,1,2,test2,2,0.6075052000014693,-20.0
2,lsh,f,20,r,2,(121.76378772032349, 121.76378772032349),22,-5,12,no,m,6,m,0.6985904999964987,1,3,test2,2,0.6988802999985637,-20.0
2,lsh,f,20,r,2,(172.20000000000002, 0.0),21,-5,12,yes,x,5,x,0.5326945999986492,1,4,test2,2,0.5329271000009612,-50.0
2,lsh,f,20,r,2,(121.76378772032349, 121.76378772032349),22,25,4,yes,x,5,x,0.5701748999999836,1,5,test2,2,0.570414299996628,-20.0
2,lsh,f,20,r,2,(1.0544208940658713e-14, 172.20000000000002),23,-7,13,yes,x,5,x,0.5290238999950816,1,6,test2,2,0.5291814000011072,-52.0
2,lsh,f,20,r,2,(121.76378772032349, 121.76378772032349),22,-7,13,no,m,6,m,0.608885100002226,1,7,test2,2,0.6090148000002955,-52.0
2,lsh,f,20,r,2,(1.0544208940658713e-14, 172.20000000000002),23,-5,12,yes,x,5,x,0.5387002999996184,1,8,test2,2,0.5391955000013695,-50.0
2,lsh,f,20,r,2,(-3.163262682197613e-14, -172.20000000000002),27,3,1,yes,x,5,x,0.7797761999972863,1,9,test2,2,0.7806215999953565,-42.0
2,lsh,f,20,r,2,(121.76378772032349, 121.76378772032349),22,-25,14,no,m,6,m,0.6507987000004505,1,10,test2,2,0.6510396000012406,-42.0
2,lsh,f,20,r,2,(172.20000000000002, 0.0),21,25,4,yes,x,5,x,0.44274429999495624,1,11,test2,2,0.4429541999998037,-20.0
2,lsh,f,20,r,2,(172.20000000000002, 0.0),21,25,4,yes,x,5,x,0.45645660000445787,1,12,test2,2,0.4567895000000135,-20.0
2,lsh,f,20,r,2,(-172.20000000000002, 2.1088417881317425e-14),25,5,2,yes,x,5,x,0.4498563000015565,1,13,test2,2,0.45006950000242796,-40.0
2,lsh,f,20,r,2,(-172.20000000000002, 2.1088417881317425e-14),25,25,4,yes,x,5,x,0.504834799998207,1,14,test2,2,0.5051556999969762,-20.0
2,lsh,f,20,r,2,(-121.76378772032352, -121.76378772032348),26,25,4,no,m,6,m,0.5980258999989019,1,15,test2,2,0.598158599997987,-20.0
2,lsh,f,20,r,2,(121.76378772032346, -121.76378772032352),28,3,1,yes,x,5,x,0.6835454999963986,1,16,test2,2,0.6836719999992056,-42.0
2,lsh,f,20,r,2,(-172.20000000000002, 2.1088417881317425e-14),25,7,3,no,m,6,m,0.7409993999972357,1,17,test2,2,0.7411252000019886,-42.0
2,lsh,f,20,r,2,(-121.76378772032352, -121.76378772032348),26,5,2,no,m,6,m,0.607782799997949,1,18,test2,2,0.6081210999982432,-42.0
2,lsh,f,20,r,2,(-172.20000000000002, 2.1088417881317425e-14),25,-3,11,no,m,6,m,0.5784997000009753,1,19,test2,2,0.5786028000002261,-42.0
2,lsh,f,20,r,2,(-3.163262682197613e-14, -172.20000000000002),27,3,1,yes,x,5,x,0.654606000003696,1,20,test2,2,0.6548381000029622,-42.0
2,lsh,f,20,r,2,(121.76378772032349, 121.76378772032349),22,-3,11,no,m,6,m,0.7067110999996657,1,21,test2,2,0.706883699996979,-42.0
2,lsh,f,20,r,2,(-121.76378772032352, -121.76378772032348),26,-7,13,yes,x,5,x,0.5228399999978137,1,22,test2,2,0.5229850000032457,-52.0
2,lsh,f,20,r,2,(-172.20000000000002, 2.1088417881317425e-14),25,-25,14,no,m,6,m,0.7629006999995909,1,23,test2,2,0.7632708000019193,-52.0
2,lsh,f,20,r,2,(121.76378772032349, 121.76378772032349),22,-3,11,yes,x,5,x,0.546342800000275,1,24,test2,2,0.5464733999979217,-48.0
2,lsh,f,20,r,2,(-121.76378772032352, -121.76378772032348),26,-7,13,no,m,6,m,0.6201378999976441,1,25,test2,2,0.6204666000048746,-48.0
2,lsh,f,20,r,2,(-121.76378772032352, -121.76378772032348),26,7,3,yes,x,5,x,0.5096171999975923,1,26,test2,2,0.5097307000032743,-38.0
2,lsh,f,20,r,2,(-121.76378772032352, -121.76378772032348),26,3,1,yes,x,5,x,0.8815375999984099,1,27,test2,2,0.8816503999987617,-42.0
2,lsh,f,20,r,2,(-121.76378772032352, -121.76378772032348),26,-25,14,yes,x,5,x,0.5837126999977045,1,28,test2,2,0.5838120000044,-70.0
2,lsh,f,20,r,2,(-3.163262682197613e-14, -172.20000000000002),27,25,4,yes,x,5,x,0.46934639999381034,1,29,test2,2,0.46968619999825023,-20.0
2,lsh,f,20,r,2,(121.76378772032346, -121.76378772032352),28,-5,12,yes,x,5,x,0.5882533999974839,1,30,test2,2,0.588487900000473,-50.0
2,lsh,f,20,r,2,(-172.20000000000002, 2.1088417881317425e-14),25,-5,12,no,m,6,m,0.6864595000006375,1,31,test2,2,0.6865975999971852,-50.0
2,lsh,f,20,r,2,(172.20000000000002, 0.0),21,-3,11,yes,x,5,x,0.5374624999967637,1,32,test2,2,0.5376965999967069,-48.0
2,lsh,f,20,r,2,(-121.76378772032348, 121.76378772032349),24,25,4,no,m,6,m,0.6097502000047825,1,33,test2,2,0.6098787000009906,-48.0
2,lsh,f,20,r,2,(-3.163262682197613e-14, -172.20000000000002),27,5,2,yes,x,5,x,0.5416643999997177,1,34,test2,2,0.5417610000004061,-40.0
2,lsh,f,20,r,2,(-3.163262682197613e-14, -172.20000000000002),27,5,2,no,m,6,m,0.7026608000014676,1,35,test2,2,0.7029305999967619,-40.0
2,lsh,f,20,r,2,(121.76378772032346, -121.76378772032352),28,-5,12,yes,x,5,x,0.47042160000273725,1,36,test2,2,0.47053279999818187,-50.0
2,lsh,f,20,r,2,(-3.163262682197613e-14, -172.20000000000002),27,-5,12,no,m,6,x,0.553222000002279,0,37,test2,2,0.5533569999970496,-50.0
2,lsh,f,20,r,2,(-121.76378772032352, -121.76378772032348),26,3,1,no,m,6,m,0.6583003999985522,1,38,test2,2,0.6583968999984791,-50.0
2,lsh,f,20,r,2,(-121.76378772032348, 121.76378772032349),24,7,3,no,m,6,m,0.6609803999963333,1,39,test2,2,0.6610995000010007,-50.0
2,lsh,f,20,r,2,(121.76378772032346, -121.76378772032352),28,5,2,no,m,6,m,0.6134478999956627,1,40,test2,2,0.6137843999968027,-50.0
2,lsh,f,20,r,2,(121.76378772032349, 121.76378772032349),22,5,2,no,m,6,m,0.5428251999983331,1,41,test2,2,0.5430526999989524,-50.0
2,lsh,f,20,r,2,(121.76378772032346, -121.76378772032352),28,7,3,yes,x,5,x,0.7821832000045106,1,42,test2,2,0.7822852999961469,-38.0
2,lsh,f,20,r,2,(-121.76378772032348, 121.76378772032349),24,5,2,no,m,6,m,0.6403654999958235,1,43,test2,2,0.640641300000425,-38.0
2,lsh,f,20,r,2,(172.20000000000002, 0.0),21,-25,14,no,m,6,m,0.5582588999968721,1,44,test2,2,0.5583613999988302,-38.0
2,lsh,f,20,r,2,(121.76378772032346, -121.76378772032352),28,-25,14,yes,x,5,x,0.52416429999721,1,45,test2,2,0.5242790000047535,-70.0
2,lsh,f,20,r,2,(-3.163262682197613e-14, -172.20000000000002),27,-7,13,yes,x,5,x,0.4695666000043275,1,46,test2,2,0.47007379999558907,-52.0
2,lsh,f,20,r,2,(121.76378772032349, 121.76378772032349),22,-5,12,yes,x,5,m,0.5706541000035941,0,47,test2,2,0.5709024000025238,-50.0
2,lsh,f,20,r,2,(-3.163262682197613e-14, -172.20000000000002),27,-7,13,yes,x,5,x,0.4301571000032709,1,48,test2,2,0.4303924999985611,-52.0
2,lsh,f,20,r,2,(-172.20000000000002, 2.1088417881317425e-14),25,-25,14,yes,x,5,x,0.3931086000011419,1,49,test2,2,0.3932675000032759,-70.0
2,lsh,f,20,r,2,(-172.20000000000002, 2.1088417881317425e-14),25,5,2,yes,x,5,x,0.41079529999842634,1,50,test2,2,0.4109011000036844,-40.0
2,lsh,f,20,r,2,(-3.163262682197613e-14, -172.20000000000002),27,3,1,no,m,6,m,0.7141961000015726,1,51,test2,2,0.714382400001341,-40.0
2,lsh,f,20,r,2,(-3.163262682197613e-14, -172.20000000000002),27,-25,14,yes,x,5,x,0.3885387000045739,1,52,test2,2,0.3888137000030838,-70.0
2,lsh,f,20,r,2,(121.76378772032346, -121.76378772032352),28,25,4,yes,x,5,x,0.4186217999958899,1,53,test2,2,0.41923680000036256,-20.0
2,lsh,f,20,r,2,(-121.76378772032348, 121.76378772032349),24,3,1,yes,x,5,x,0.600707900004636,1,54,test2,2,0.600942800003395,-42.0
2,lsh,f,20,r,2,(121.76378772032349, 121.76378772032349),22,3,1,no,m,6,m,0.5628917000067304,1,55,test2,2,0.5631192000000738,-42.0
2,lsh,f,20,r,2,(-3.163262682197613e-14, -172.20000000000002),27,-25,14,no,m,6,m,0.6875845000031404,1,56,test2,2,0.687842700004694,-42.0
2,lsh,f,20,r,2,(121.76378772032349, 121.76378772032349),22,5,2,yes,x,5,x,0.4755431999947177,1,57,test2,2,0.47570059999998193,-40.0
2,lsh,f,20,r,2,(1.0544208940658713e-14, 172.20000000000002),23,25,4,yes,x,5,x,0.44621270000061486,1,58,test2,2,0.4463151000018115,-20.0
2,lsh,f,20,r,2,(-121.76378772032348, 121.76378772032349),24,7,3,yes,x,5,x,0.5640400999982376,1,59,test2,2,0.5642014000040945,-38.0
2,lsh,f,20,r,2,(172.20000000000002, 0.0),21,3,1,yes,x,5,x,0.4908066999996663,1,60,test2,2,0.4909205000003567,-42.0
2,lsh,f,20,r,2,(121.76378772032346, -121.76378772032352),28,-7,13,no,m,6,m,0.8884685000011814,1,61,test2,2,0.8888464000046952,-42.0
2,lsh,f,20,r,2,(121.76378772032349, 121.76378772032349),22,5,2,yes,x,5,x,0.4851139999955194,1,62,test2,2,0.48570610000024317,-40.0
2,lsh,f,20,r,2,(-121.76378772032352, -121.76378772032348),26,-5,12,no,m,6,m,0.6541474999976344,1,63,test2,2,0.6544160999983433,-40.0
2,lsh,f,20,r,2,(-121.76378772032348, 121.76378772032349),24,-7,13,yes,x,5,x,0.36172430000442546,1,64,test2,2,0.36182360000384506,-52.0
2,lsh,f,20,r,2,(121.76378772032349, 121.76378772032349),22,-3,11,yes,x,5,x,0.7170390000028419,1,65,test2,2,0.7174258000013651,-48.0
2,lsh,f,20,r,2,(172.20000000000002, 0.0),21,-7,13,yes,x,5,x,0.6931291000000783,1,66,test2,2,0.6932549000048311,-52.0
2,lsh,f,20,r,2,(121.76378772032346, -121.76378772032352),28,25,4,no,m,6,m,0.7498755999986315,1,67,test2,2,0.7501966999989236,-52.0
2,lsh,f,20,r,2,(-121.76378772032348, 121.76378772032349),24,-25,14,no,m,6,m,0.6510082999957376,1,68,test2,2,0.6515875000040978,-52.0
2,lsh,f,20,r,2,(121.76378772032349, 121.76378772032349),22,25,4,no,m,6,x,0.8537261000019498,0,69,test2,2,0.8538535999978194,-52.0
2,lsh,f,20,r,2,(172.20000000000002, 0.0),21,-7,13,no,m,6,m,0.676185299998906,1,70,test2,2,0.6763090000022203,-52.0
2,lsh,f,20,r,2,(172.20000000000002, 0.0),21,-25,14,yes,x,5,x,0.46459869999671355,1,71,test2,2,0.46469950000027893,-70.0
2,lsh,f,20,r,2,(121.76378772032346, -121.76378772032352),28,-3,11,yes,x,5,x,0.9603036000044085,1,72,test2,2,0.9606051000009757,-48.0
2,lsh,f,20,r,2,(-3.163262682197613e-14, -172.20000000000002),27,7,3,yes,x,5,x,0.6045548000038252,1,73,test2,2,0.6047125999975833,-38.0
2,lsh,f,20,r,2,(-3.163262682197613e-14, -172.20000000000002),27,25,4,yes,x,5,x,0.4967525999963982,1,74,test2,2,0.49707719999423716,-20.0
2,lsh,f,20,r,2,(1.0544208940658713e-14, 172.20000000000002),23,3,1,no,m,6,m,0.6457750999979908,1,75,test2,2,0.6458869999987655,-20.0
2,lsh,f,20,r,2,(-121.76378772032348, 121.76378772032349),24,3,1,no,m,6,m,0.7838554999980261,1,76,test2,2,0.7839552000004915,-20.0
2,lsh,f,20,r,2,(121.76378772032349, 121.76378772032349),22,-7,13,yes,x,5,x,0.49076700000296114,1,77,test2,2,0.490864600003988,-52.0
2,lsh,f,20,r,2,(121.76378772032349, 121.76378772032349),22,3,1,yes,x,5,x,0.6294107000067015,1,78,test2,2,0.6296438999997918,-42.0
2,lsh,f,20,r,2,(-121.76378772032352, -121.76378772032348),26,5,2,yes,x,5,x,0.5909520999994129,1,79,test2,2,0.5911441999996896,-40.0
2,lsh,f,20,r,2,(121.76378772032346, -121.76378772032352),28,25,4,yes,x,5,x,0.4479540000029374,1,80,test2,2,0.4481902000043192,-20.0
2,lsh,f,20,r,2,(172.20000000000002, 0.0),21,5,2,yes,x,5,x,0.5160730000061449,1,81,test2,2,0.516571300002397,-40.0
2,lsh,f,20,r,2,(-121.76378772032352, -121.76378772032348),26,-7,13,yes,x,5,x,0.5007992000028025,1,82,test2,2,0.5009143999996013,-52.0
2,lsh,f,20,r,2,(172.20000000000002, 0.0),21,25,4,no,m,6,m,0.6330997999975807,1,83,test2,2,0.6336722999985795,-52.0
2,lsh,f,20,r,2,(121.76378772032346, -121.76378772032352),28,-3,11,no,m,6,m,0.63156539999909,1,84,test2,2,0.6318093999943812,-52.0
2,lsh,f,20,r,2,(-3.163262682197613e-14, -172.20000000000002),27,7,3,no,m,6,m,0.689742100003059,1,85,test2,2,0.6901001000005635,-52.0
2,lsh,f,20,r,2,(172.20000000000002, 0.0),21,-25,14,yes,x,5,x,0.48775259999820264,1,86,test2,2,0.48790829999779817,-70.0
2,lsh,f,20,r,2,(121.76378772032349, 121.76378772032349),22,-25,14,yes,x,5,x,0.4411152000029688,1,87,test2,2,0.44155180000234395,-70.0
2,lsh,f,20,r,2,(121.76378772032346, -121.76378772032352),28,-5,12,no,m,6,m,0.5830279999936465,1,88,test2,2,0.5832387000045856,-70.0
2,lsh,f,20,r,2,(-121.76378772032352, -121.76378772032348),26,-5,12,yes,x,5,x,0.48290429999906337,1,89,test2,2,0.48305790000449633,-50.0
2,lsh,f,20,r,2,(-121.76378772032352, -121.76378772032348),26,-3,11,yes,x,5,x,0.5014509999964503,1,90,test2,2,0.5016490999987582,-48.0
2,lsh,f,20,r,2,(121.76378772032349, 121.76378772032349),22,-25,14,yes,x,5,x,0.5495652999961749,1,91,test2,2,0.5497343000024557,-70.0
2,lsh,f,20,r,2,(121.76378772032349, 121.76378772032349),22,7,3,yes,x,5,x,0.5552537999974447,1,92,test2,2,0.5554701000000932,-38.0
2,lsh,f,20,r,2,(-121.76378772032348, 121.76378772032349),24,-3,11,no,m,6,m,0.667706599997473,1,93,test2,2,0.668123999996169,-38.0
2,lsh,f,20,r,2,(1.0544208940658713e-14, 172.20000000000002),23,7,3,yes,x,5,x,0.4426249000025564,1,94,test2,2,0.442852899999707,-38.0
2,lsh,f,20,r,2,(-172.20000000000002, 2.1088417881317425e-14),25,-3,11,yes,x,5,m,0.6888127999991411,0,95,test2,2,0.6890276999984053,-48.0
2,lsh,f,20,r,2,(-3.163262682197613e-14, -172.20000000000002),27,-5,12,yes,x,5,x,0.5363116000007722,1,96,test2,2,0.5364358000006177,-50.0
2,lsh,f,20,r,2,(-121.76378772032348, 121.76378772032349),24,25,4,yes,x,5,x,0.5555464999997639,1,1,test1,3,0.5559076999998069,-20.0
2,lsh,f,20,r,2,(121.76378772032349, 121.76378772032349),22,3,1,yes,x,5,x,0.9382228000031319,1,2,test1,3,0.9383215999987442,-42.0
2,lsh,f,20,r,2,(-172.20000000000002, 2.1088417881317425e-14),25,-7,13,yes,x,5,x,0.546450999994704,1,3,test1,3,0.5465655000007246,-52.0
2,lsh,f,20,r,2,(-172.20000000000002, 2.1088417881317425e-14),25,-25,14,yes,x,5,x,0.6100904999984778,1,4,test1,3,0.6104851000054623,-70.0
2,lsh,f,20,r,2,(172.20000000000002, 0.0),21,3,1,no,m,6,m,0.6359181999941939,1,5,test1,3,0.636018500001228,-70.0
2,lsh,f,20,r,2,(-121.76378772032348, 121.76378772032349),24,-25,14,yes,x,5,x,0.42055100000288803,1,6,test1,3,0.4206454999948619,-70.0
2,lsh,f,20,r,2,(-172.20000000000002, 2.1088417881317425e-14),25,-7,13,no,m,6,m,0.6451185999976587,1,7,test1,3,0.6452203000008012,-70.0
2,lsh,f,20,r,2,(172.20000000000002, 0.0),21,3,1,yes,x,5,x,0.5407430999985081,1,8,test1,3,0.5408410999953048,-42.0
2,lsh,f,20,r,2,(-121.76378772032348, 121.76378772032349),24,-3,11,yes,x,5,x,0.488366199999291,1,9,test1,3,0.48846449999837205,-48.0
2,lsh,f,20,r,2,(1.0544208940658713e-14, 172.20000000000002),23,5,2,yes,x,5,x,0.45007900000200607,1,10,test1,3,0.4502427999977954,-40.0
2,lsh,f,20,r,2,(-121.76378772032348, 121.76378772032349),24,5,2,yes,x,5,x,0.3842372999934014,1,11,test1,3,0.38479820000065956,-40.0
2,lsh,f,20,r,2,(-121.76378772032348, 121.76378772032349),24,-5,12,no,m,6,m,0.7903109999970184,1,12,test1,3,0.7905341999939992,-40.0
2,lsh,f,20,r,2,(172.20000000000002, 0.0),21,7,3,yes,x,5,x,0.41992390000086743,1,13,test1,3,0.42060390000551706,-38.0
2,lsh,f,20,r,2,(-172.20000000000002, 2.1088417881317425e-14),25,3,1,yes,x,5,x,0.5626345999990008,1,14,test1,3,0.5632846000007703,-42.0
2,lsh,f,20,r,2,(-3.163262682197613e-14, -172.20000000000002),27,-3,11,no,m,6,m,0.6748407000050065,1,15,test1,3,0.6751202999948873,-42.0
2,lsh,f,20,r,2,(172.20000000000002, 0.0),21,-3,11,yes,x,5,x,0.6163335999954143,1,16,test1,3,0.6166158999985782,-48.0
2,lsh,f,20,r,2,(121.76378772032346, -121.76378772032352),28,3,1,yes,x,5,x,0.7709413999982644,1,17,test1,3,0.7711625000010827,-42.0
2,lsh,f,20,r,2,(121.76378772032346, -121.76378772032352),28,7,3,no,m,6,m,0.6219688999990467,1,18,test1,3,0.6220747999977903,-42.0
2,lsh,f,20,r,2,(1.0544208940658713e-14, 172.20000000000002),23,-3,11,yes,x,5,x,0.4899470000018482,1,19,test1,3,0.49014229999738745,-48.0
2,lsh,f,20,r,2,(-3.163262682197613e-14, -172.20000000000002),27,-5,12,yes,x,5,x,0.5597693000017898,1,20,test1,3,0.5598695000007865,-50.0
2,lsh,f,20,r,2,(-121.76378772032352, -121.76378772032348),26,7,3,no,m,6,m,0.7766804999992019,1,21,test1,3,0.7768518000011682,-50.0
2,lsh,f,20,r,2,(121.76378772032346, -121.76378772032352),28,5,2,yes,x,5,x,0.5208013000010396,1,22,test1,3,0.5211965999988024,-40.0
2,lsh,f,20,r,2,(1.0544208940658713e-14, 172.20000000000002),23,25,4,yes,x,5,x,0.46432750000531087,1,23,test1,3,0.4644546999988961,-20.0
2,lsh,f,20,r,2,(-121.76378772032348, 121.76378772032349),24,-25,14,yes,x,5,x,0.4624976000050083,1,24,test1,3,0.46259660000214353,-70.0
2,lsh,f,20,r,2,(-3.163262682197613e-14, -172.20000000000002),27,-3,11,yes,x,5,x,0.6152205000034883,1,25,test1,3,0.6154598999928567,-48.0
2,lsh,f,20,r,2,(-172.20000000000002, 2.1088417881317425e-14),25,25,4,no,m,6,m,0.6426587000023574,1,26,test1,3,0.642760000002454,-48.0
2,lsh,f,20,r,2,(-172.20000000000002, 2.1088417881317425e-14),25,3,1,no,m,6,m,0.6617733999955817,1,27,test1,3,0.6618846999990637,-48.0
2,lsh,f,20,r,2,(-121.76378772032348, 121.76378772032349),24,-7,13,no,m,6,m,0.5893980999971973,1,28,test1,3,0.5895231000031345,-48.0
2,lsh,f,20,r,2,(-3.163262682197613e-14, -172.20000000000002),27,-3,11,yes,x,5,x,0.5947856999991927,1,29,test1,3,0.5952314000023762,-48.0
2,lsh,f,20,r,2,(1.0544208940658713e-14, 172.20000000000002),23,-3,11,yes,x,5,x,0.5887475999988965,1,30,test1,3,0.5888899999990826,-48.0
2,lsh,f,20,r,2,(172.20000000000002, 0.0),21,-7,13,yes,x,5,x,0.5095860000001267,1,31,test1,3,0.509814600001846,-52.0
2,lsh,f,20,r,2,(-3.163262682197613e-14, -172.20000000000002),27,25,4,no,m,6,m,0.6722736000010627,1,32,test1,3,0.6724041999987094,-52.0
2,lsh,f,20,r,2,(-121.76378772032352, -121.76378772032348),26,7,3,yes,x,5,x,0.46468689999892376,1,33,test1,3,0.4651293999995687,-38.0
2,lsh,f,20,r,2,(172.20000000000002, 0.0),21,7,3,no,m,6,x,1.0423904999988736,0,34,test1,3,1.0426478000008501,-38.0
2,lsh,f,20,r,2,(121.76378772032349, 121.76378772032349),22,7,3,no,m,6,m,0.8534136000016588,1,35,test1,3,0.853694400000677,-38.0
2,lsh,f,20,r,2,(1.0544208940658713e-14, 172.20000000000002),23,-7,13,yes,x,5,x,0.4319169000009424,1,36,test1,3,0.4320115000009537,-52.0
2,lsh,f,20,r,2,(172.20000000000002, 0.0),21,-5,12,yes,x,5,x,0.5387722000014037,1,37,test1,3,0.5391095000013593,-50.0
2,lsh,f,20,r,2,(1.0544208940658713e-14, 172.20000000000002),23,-25,14,yes,x,5,x,0.6727132000014535,1,38,test1,3,0.6728464999978314,-70.0
2,lsh,f,20,r,2,(172.20000000000002, 0.0),21,-5,12,no,m,6,m,0.7315973000004306,1,39,test1,3,0.7318888000008883,-70.0
2,lsh,f,20,r,2,(1.0544208940658713e-14, 172.20000000000002),23,-5,12,yes,x,5,x,0.44758700000238605,1,40,test1,3,0.4478143000014825,-50.0
2,lsh,f,20,r,2,(-172.20000000000002, 2.1088417881317425e-14),25,-5,12,yes,x,5,x,0.44159720000607194,1,41,test1,3,0.44232370000099763,-50.0
2,lsh,f,20,r,2,(1.0544208940658713e-14, 172.20000000000002),23,-25,14,no,m,6,m,0.6964813000013237,1,42,test1,3,0.696753100004571,-50.0
2,lsh,f,20,r,2,(-121.76378772032352, -121.76378772032348),26,-25,14,no,m,6,m,1.47343230000115,1,43,test1,3,1.4735354999938863,-50.0
2,lsh,f,20,r,2,(172.20000000000002, 0.0),21,-3,11,no,m,6,m,0.7057246999975177,1,44,test1,3,0.7060738000000129,-50.0
2,lsh,f,20,r,2,(121.76378772032346, -121.76378772032352),28,-7,13,yes,x,5,x,0.4697178000060376,1,45,test1,3,0.46997410000039963,-52.0
2,lsh,f,20,r,2,(-172.20000000000002, 2.1088417881317425e-14),25,7,3,yes,x,5,x,0.5323059999936959,1,46,test1,3,0.532654900001944,-38.0
2,lsh,f,20,r,2,(-172.20000000000002, 2.1088417881317425e-14),25,3,1,yes,x,5,x,0.5006990000038058,1,47,test1,3,0.5008086000016192,-42.0
2,lsh,f,20,r,2,(121.76378772032349, 121.76378772032349),22,7,3,yes,x,5,x,0.5457505000013043,1,48,test1,3,0.545984700002009,-38.0
2,lsh,f,20,r,2,(-121.76378772032348, 121.76378772032349),24,25,4,yes,x,5,x,0.4816025999971316,1,49,test1,3,0.48223390000202926,-20.0
2,lsh,f,20,r,2,(1.0544208940658713e-14, 172.20000000000002),23,7,3,yes,x,5,x,0.5320272000026307,1,50,test1,3,0.5322248999946169,-38.0
2,lsh,f,20,r,2,(-121.76378772032352, -121.76378772032348),26,-5,12,yes,x,5,x,0.5540412999980617,1,51,test1,3,0.554366200005461,-50.0
2,lsh,f,20,r,2,(121.76378772032346, -121.76378772032352),28,-3,11,yes,x,5,x,0.8221867000029306,1,52,test1,3,0.8227253999939421,-48.0
2,lsh,f,20,r,2,(121.76378772032346, -121.76378772032352),28,7,3,yes,x,5,x,0.5306274000031408,1,53,test1,3,0.5310256000011577,-38.0
2,lsh,f,20,r,2,(172.20000000000002, 0.0),21,7,3,yes,x,5,x,0.48129360000166344,1,54,test1,3,0.4814150000020163,-38.0
2,lsh,f,20,r,2,(-3.163262682197613e-14, -172.20000000000002),27,5,2,yes,x,5,x,0.4628634000036982,1,55,test1,3,0.46309430000110297,-40.0
2,lsh,f,20,r,2,(1.0544208940658713e-14, 172.20000000000002),23,-25,14,yes,x,5,x,0.3792630999960238,1,56,test1,3,0.3794463000012911,-70.0
2,lsh,f,20,r,2,(-121.76378772032352, -121.76378772032348),26,3,1,yes,x,5,x,0.8749238000018522,1,57,test1,3,0.8750593000004301,-42.0
2,lsh,f,20,r,2,(1.0544208940658713e-14, 172.20000000000002),23,3,1,yes,x,5,x,0.5011469999953988,1,58,test1,3,0.5013092000008328,-42.0
2,lsh,f,20,r,2,(121.76378772032349, 121.76378772032349),22,25,4,yes,x,5,x,0.4340105000010226,1,59,test1,3,0.434236700006295,-20.0
2,lsh,f,20,r,2,(1.0544208940658713e-14, 172.20000000000002),23,-7,13,no,m,6,m,0.6085699999966891,1,60,test1,3,0.6087008000031346,-20.0
2,lsh,f,20,r,2,(1.0544208940658713e-14, 172.20000000000002),23,3,1,yes,x,5,x,0.4712887000059709,1,61,test1,3,0.4714133000015863,-42.0
2,lsh,f,20,r,2,(1.0544208940658713e-14, 172.20000000000002),23,7,3,no,m,6,m,0.5793852999995579,1,62,test1,3,0.5797855999990134,-42.0
2,lsh,f,20,r,2,(121.76378772032349, 121.76378772032349),22,-7,13,yes,x,5,x,0.5023441000012099,1,63,test1,3,0.5025608999931137,-52.0
2,lsh,f,20,r,2,(1.0544208940658713e-14, 172.20000000000002),23,-3,11,no,m,6,m,0.6294905999966431,1,64,test1,3,0.6297377000009874,-52.0
2,lsh,f,20,r,2,(121.76378772032349, 121.76378772032349),22,-5,12,yes,x,5,x,0.47256120000383817,1,65,test1,3,0.47273979999590665,-50.0
2,lsh,f,20,r,2,(-3.163262682197613e-14, -172.20000000000002),27,-25,14,yes,x,5,x,0.4262707000016235,1,66,test1,3,0.42665419999684673,-70.0
2,lsh,f,20,r,2,(1.0544208940658713e-14, 172.20000000000002),23,5,2,no,m,6,m,0.6672469000041019,1,67,test1,3,0.667472799999814,-70.0
2,lsh,f,20,r,2,(-121.76378772032348, 121.76378772032349),24,7,3,yes,x,5,x,0.6241162000005716,1,68,test1,3,0.6242300000012619,-38.0
2,lsh,f,20,r,2,(172.20000000000002, 0.0),21,5,2,yes,x,5,x,0.5766412000011769,1,69,test1,3,0.5768669000026421,-40.0
2,lsh,f,20,r,2,(-172.20000000000002, 2.1088417881317425e-14),25,7,3,yes,x,5,x,0.5909784000032232,1,70,test1,3,0.5910743999993429,-38.0
2,lsh,f,20,r,2,(-121.76378772032352, -121.76378772032348),26,-3,11,no,m,6,m,0.7841007999959402,1,71,test1,3,0.7843961999969906,-38.0
2,lsh,f,20,r,2,(172.20000000000002, 0.0),21,5,2,no,m,6,m,0.7478990000017802,1,72,test1,3,0.7482363000017358,-38.0
2,lsh,f,20,r,2,(-121.76378772032348, 121.76378772032349),24,-5,12,yes,x,5,x,0.5363429999997607,1,73,test1,3,0.5368683999986388,-50.0
2,lsh,f,20,r,2,(1.0544208940658713e-14, 172.20000000000002),23,25,4,no,m,6,m,0.6472696999990148,1,74,test1,3,0.64749540000048,-50.0
2,lsh,f,20,r,2,(1.0544208940658713e-14, 172.20000000000002),23,-5,12,no,m,6,x,0.4430614000011701,0,75,test1,3,0.4434365999986767,-50.0
2,lsh,f,20,r,2,(-172.20000000000002, 2.1088417881317425e-14),25,-5,12,yes,x,5,x,0.5458159999980126,1,76,test1,3,0.5461272000029567,-50.0
2,lsh,f,20,r,2,(-121.76378772032352, -121.76378772032348),26,-3,11,yes,x,5,m,0.6228558000002522,0,77,test1,3,0.6231267999974079,-48.0
2,lsh,f,20,r,2,(-172.20000000000002, 2.1088417881317425e-14),25,-3,11,yes,x,5,x,0.49065600000176346,1,78,test1,3,0.4907636999996612,-48.0
2,lsh,f,20,r,2,(-172.20000000000002, 2.1088417881317425e-14),25,5,2,no,m,6,m,0.6826768999962951,1,79,test1,3,0.6834012000035727,-48.0
2,lsh,f,20,r,2,(-121.76378772032352, -121.76378772032348),26,5,2,yes,x,5,x,0.5253862000026857,1,80,test1,3,0.5256903000044986,-40.0
2,lsh,f,20,r,2,(-172.20000000000002, 2.1088417881317425e-14),25,-7,13,yes,x,5,x,0.5407832999990205,1,81,test1,3,0.5408833999972558,-52.0
2,lsh,f,20,r,2,(121.76378772032346, -121.76378772032352),28,-25,14,no,m,6,m,0.6740523999978905,1,82,test1,3,0.6742878000004566,-52.0
2,lsh,f,20,r,2,(121.76378772032346, -121.76378772032352),28,3,1,no,m,6,m,0.6216817000022274,1,83,test1,3,0.6220398000004934,-52.0
2,lsh,f,20,r,2,(121.76378772032346, -121.76378772032352),28,-7,13,yes,x,5,x,0.5061324000052991,1,84,test1,3,0.5064110000021174,-52.0
2,lsh,f,20,r,2,(-121.76378772032348, 121.76378772032349),24,-3,11,yes,x,5,x,0.5859096999993199,1,85,test1,3,0.5863096000030055,-48.0
2,lsh,f,20,r,2,(-121.76378772032352, -121.76378772032348),26,-25,14,yes,x,5,x,0.49259950000123354,1,86,test1,3,0.49280870000075083,-70.0
2,lsh,f,20,r,2,(121.76378772032346, -121.76378772032352),28,5,2,yes,x,5,x,0.7466724999976577,1,87,test1,3,0.7469004999948083,-40.0
2,lsh,f,20,r,2,(-121.76378772032348, 121.76378772032349),24,3,1,yes,x,5,x,0.8579900999975507,1,88,test1,3,0.8583633000016562,-42.0
2,lsh,f,20,r,2,(-121.76378772032348, 121.76378772032349),24,-7,13,yes,x,5,x,0.43008470000495436,1,89,test1,3,0.43029650000244146,-52.0
2,lsh,f,20,r,2,(-121.76378772032352, -121.76378772032348),26,25,4,yes,x,5,x,0.4849714999945718,1,90,test1,3,0.4851836000016192,-20.0
2,lsh,f,20,r,2,(-121.76378772032352, -121.76378772032348),26,25,4,yes,x,5,x,0.5649673999942024,1,91,test1,3,0.5652004000003217,-20.0
2,lsh,f,20,r,2,(1.0544208940658713e-14, 172.20000000000002),23,5,2,yes,x,5,x,0.558026400001836,1,92,test1,3,0.5584780999997747,-40.0
2,lsh,f,20,r,2,(-3.163262682197613e-14, -172.20000000000002),27,7,3,yes,x,5,x,0.5023626999973203,1,93,test1,3,0.5026454999970156,-38.0
2,lsh,f,20,r,2,(-3.163262682197613e-14, -172.20000000000002),27,-7,13,no,m,6,m,0.8123762999966857,1,94,test1,3,0.8125883999964572,-38.0
2,lsh,f,20,r,2,(-121.76378772032348, 121.76378772032349),24,5,2,yes,x,5,x,0.5709404000008362,1,95,test1,3,0.5713642999980948,-40.0
2,lsh,f,20,r,2,(121.76378772032346, -121.76378772032352),28,-25,14,yes,x,5,x,0.4552006000012625,1,96,test1,3,0.45588560000032885,-70.0
2,lsh,f,20,r,2,(-121.76378772032348, 121.76378772032349),24,-5,12,yes,x,5,x,0.6312372000029427,1,1,test2,3,0.6314669999992475,-50.0
2,lsh,f,20,r,2,(-172.20000000000002, 2.1088417881317425e-14),25,25,4,yes,x,5,x,0.658729000002495,1,2,test2,3,0.6589144999961718,-20.0
2,lsh,f,20,r,2,(121.76378772032349, 121.76378772032349),22,-5,12,no,m,6,x,0.9501871999964351,0,3,test2,3,0.9503868000028888,-20.0
2,lsh,f,20,r,2,(172.20000000000002, 0.0),21,-5,12,yes,x,5,x,0.845093399999314,1,4,test2,3,0.8454738000000361,-50.0
2,lsh,f,20,r,2,(121.76378772032349, 121.76378772032349),22,25,4,yes,x,5,x,0.6707778000054532,1,5,test2,3,0.6713200000012876,-20.0
2,lsh,f,20,r,2,(1.0544208940658713e-14, 172.20000000000002),23,-7,13,yes,x,5,x,0.4844655999986571,1,6,test2,3,0.4851490000000922,-52.0
2,lsh,f,20,r,2,(121.76378772032349, 121.76378772032349),22,-7,13,no,m,6,m,0.9305406000057701,1,7,test2,3,0.9306410999997752,-52.0
2,lsh,f,20,r,2,(1.0544208940658713e-14, 172.20000000000002),23,-5,12,yes,x,5,x,0.46617690000130096,1,8,test2,3,0.46657430000050226,-50.0
2,lsh,f,20,r,2,(-3.163262682197613e-14, -172.20000000000002),27,3,1,yes,x,5,m,0.7322244000024511,0,9,test2,3,0.732354400002805,-42.0
2,lsh,f,20,r,2,(121.76378772032349, 121.76378772032349),22,-25,14,no,m,6,m,0.7467284000013024,1,10,test2,3,0.7468582000001334,-42.0
2,lsh,f,20,r,2,(172.20000000000002, 0.0),21,25,4,yes,x,5,x,0.47133649999886984,1,11,test2,3,0.47143449999566656,-20.0
2,lsh,f,20,r,2,(172.20000000000002, 0.0),21,25,4,yes,x,5,x,0.38710639999771956,1,12,test2,3,0.3872253999943496,-20.0
2,lsh,f,20,r,2,(-172.20000000000002, 2.1088417881317425e-14),25,5,2,yes,x,5,x,0.518065199998091,1,13,test2,3,0.5184005999981309,-40.0
2,lsh,f,20,r,2,(-172.20000000000002, 2.1088417881317425e-14),25,25,4,yes,x,5,x,0.43615390000195475,1,14,test2,3,0.4363106000018888,-20.0
2,lsh,f,20,r,2,(-121.76378772032352, -121.76378772032348),26,25,4,no,m,6,m,0.626385499999742,1,15,test2,3,0.6269080999991274,-20.0
2,lsh,f,20,r,2,(121.76378772032346, -121.76378772032352),28,3,1,yes,x,5,m,0.6181849999993574,0,16,test2,3,0.6184585000009974,-42.0
2,lsh,f,20,r,2,(-172.20000000000002, 2.1088417881317425e-14),25,7,3,no,m,6,m,0.7551182999959565,1,17,test2,3,0.7552566999947885,-42.0
2,lsh,f,20,r,2,(-121.76378772032352, -121.76378772032348),26,5,2,no,m,6,m,0.6619543000051635,1,18,test2,3,0.6621887000001152,-42.0
2,lsh,f,20,r,2,(-172.20000000000002, 2.1088417881317425e-14),25,-3,11,no,m,6,m,1.0927339999980177,1,19,test2,3,1.0928333999981987,-42.0
2,lsh,f,20,r,2,(-3.163262682197613e-14, -172.20000000000002),27,3,1,yes,x,5,m,0.6523875999992015,0,20,test2,3,0.6524882999947295,-42.0
2,lsh,f,20,r,2,(121.76378772032349, 121.76378772032349),22,-3,11,no,m,6,m,0.7657449999969685,1,21,test2,3,0.7662185000008321,-42.0
2,lsh,f,20,r,2,(-121.76378772032352, -121.76378772032348),26,-7,13,yes,x,5,x,0.46157010000024457,1,22,test2,3,0.46281789999920875,-52.0
2,lsh,f,20,r,2,(-172.20000000000002, 2.1088417881317425e-14),25,-25,14,no,m,6,m,0.7159538000050816,1,23,test2,3,0.7160539000033168,-52.0
2,lsh,f,20,r,2,(121.76378772032349, 121.76378772032349),22,-3,11,yes,x,5,x,0.7456527999966056,1,24,test2,3,0.7460308000008808,-48.0
2,lsh,f,20,r,2,(-121.76378772032352, -121.76378772032348),26,-7,13,no,m,6,m,0.7240268000023207,1,25,test2,3,0.7242085000034422,-48.0
2,lsh,f,20,r,2,(-121.76378772032352, -121.76378772032348),26,7,3,yes,x,5,x,0.5386474999977509,1,26,test2,3,0.5387738999997964,-38.0
2,lsh,f,20,r,2,(-121.76378772032352, -121.76378772032348),26,3,1,yes,x,5,x,0.5193871999945259,1,27,test2,3,0.5195447000005515,-42.0
2,lsh,f,20,r,2,(-121.76378772032352, -121.76378772032348),26,-25,14,yes,x,5,x,0.46364339999854565,1,28,test2,3,0.4639480999976513,-70.0
2,lsh,f,20,r,2,(-3.163262682197613e-14, -172.20000000000002),27,25,4,yes,x,5,x,0.5257915999973193,1,29,test2,3,0.5259950999970897,-20.0
2,lsh,f,20,r,2,(121.76378772032346, -121.76378772032352),28,-5,12,yes,x,5,x,0.5546180000019376,1,30,test2,3,0.5547428999998374,-50.0
2,lsh,f,20,r,2,(-172.20000000000002, 2.1088417881317425e-14),25,-5,12,no,m,6,m,1.1727857000005315,1,31,test2,3,1.172898400000122,-50.0
2,lsh,f,20,r,2,(172.20000000000002, 0.0),21,-3,11,yes,x,5,x,0.7817699000006542,1,32,test2,3,0.7822354000018095,-48.0
2,lsh,f,20,r,2,(-121.76378772032348, 121.76378772032349),24,25,4,no,m,6,m,0.8923605999952997,1,33,test2,3,0.892492899998615,-48.0
2,lsh,f,20,r,2,(-3.163262682197613e-14, -172.20000000000002),27,5,2,yes,x,5,x,0.47489479999785544,1,34,test2,3,0.475027600004978,-40.0
2,lsh,f,20,r,2,(-3.163262682197613e-14, -172.20000000000002),27,5,2,no,m,6,m,0.7216296999977203,1,35,test2,3,0.7219371999963187,-40.0
2,lsh,f,20,r,2,(121.76378772032346, -121.76378772032352),28,-5,12,yes,x,5,x,0.5468916000027093,1,36,test2,3,0.5472684999986086,-50.0
2,lsh,f,20,r,2,(-3.163262682197613e-14, -172.20000000000002),27,-5,12,no,m,6,m,0.7007497000013245,1,37,test2,3,0.7009850000031292,-50.0
2,lsh,f,20,r,2,(-121.76378772032352, -121.76378772032348),26,3,1,no,m,6,x,0.6450478999977349,0,38,test2,3,0.6452630999992834,-50.0
2,lsh,f,20,r,2,(-121.76378772032348, 121.76378772032349),24,7,3,no,m,6,m,0.8267368000015267,1,39,test2,3,0.8268622000032337,-50.0
2,lsh,f,20,r,2,(121.76378772032346, -121.76378772032352),28,5,2,no,m,6,m,0.5176437000045553,1,40,test2,3,0.5180267999967327,-50.0
2,lsh,f,20,r,2,(121.76378772032349, 121.76378772032349),22,5,2,no,m,6,m,1.0911496999979136,1,41,test2,3,1.0918050999971456,-50.0
2,lsh,f,20,r,2,(121.76378772032346, -121.76378772032352),28,7,3,yes,x,5,x,0.5801015999968513,1,42,test2,3,0.5802962000016123,-38.0
2,lsh,f,20,r,2,(-121.76378772032348, 121.76378772032349),24,5,2,no,m,6,m,0.6868136999983108,1,43,test2,3,0.6869613000017125,-38.0
2,lsh,f,20,r,2,(172.20000000000002, 0.0),21,-25,14,no,m,6,m,0.658583100004762,1,44,test2,3,0.6588311000014073,-38.0
2,lsh,f,20,r,2,(121.76378772032346, -121.76378772032352),28,-25,14,yes,x,5,x,0.4764861000003293,1,45,test2,3,0.4766077000022051,-70.0
2,lsh,f,20,r,2,(-3.163262682197613e-14, -172.20000000000002),27,-7,13,yes,x,5,x,0.5084637999971164,1,46,test2,3,0.5088200000027427,-52.0
2,lsh,f,20,r,2,(121.76378772032349, 121.76378772032349),22,-5,12,yes,x,5,m,0.6795229999988806,0,47,test2,3,0.6798005000018748,-50.0
2,lsh,f,20,r,2,(-3.163262682197613e-14, -172.20000000000002),27,-7,13,yes,x,5,x,0.4228979999970761,1,48,test2,3,0.423074500002258,-52.0
2,lsh,f,20,r,2,(-172.20000000000002, 2.1088417881317425e-14),25,-25,14,yes,x,5,x,0.43979449999460485,1,49,test2,3,0.44003410000004806,-70.0
2,lsh,f,20,r,2,(-172.20000000000002, 2.1088417881317425e-14),25,5,2,yes,x,5,x,0.5038783999989391,1,50,test2,3,0.5041459999993094,-40.0
2,lsh,f,20,r,2,(-3.163262682197613e-14, -172.20000000000002),27,3,1,no,m,6,m,0.9681112000034773,1,51,test2,3,0.9686378000042168,-40.0
2,lsh,f,20,r,2,(-3.163262682197613e-14, -172.20000000000002),27,-25,14,yes,x,5,x,0.5199987999949371,1,52,test2,3,0.5201669000016409,-70.0
2,lsh,f,20,r,2,(121.76378772032346, -121.76378772032352),28,25,4,yes,x,5,x,0.5614108000008855,1,53,test2,3,0.5615534000025946,-20.0
2,lsh,f,20,r,2,(-121.76378772032348, 121.76378772032349),24,3,1,yes,x,5,m,0.6696679000015138,0,54,test2,3,0.6699189999999362,-42.0
2,lsh,f,20,r,2,(121.76378772032349, 121.76378772032349),22,3,1,no,m,6,m,0.7829007000036654,1,55,test2,3,0.7835947999992641,-42.0
2,lsh,f,20,r,2,(-3.163262682197613e-14, -172.20000000000002),27,-25,14,no,m,6,m,0.6005594000016572,1,56,test2,3,0.6006580999965081,-42.0
2,lsh,f,20,r,2,(121.76378772032349, 121.76378772032349),22,5,2,yes,x,5,x,0.5953145000021323,1,57,test2,3,0.5956836000041221,-40.0
2,lsh,f,20,r,2,(1.0544208940658713e-14, 172.20000000000002),23,25,4,yes,x,5,x,0.45151139999506995,1,58,test2,3,0.4516091999976197,-20.0
2,lsh,f,20,r,2,(-121.76378772032348, 121.76378772032349),24,7,3,yes,x,5,x,0.8270474000019021,1,59,test2,3,0.8271768999984488,-38.0
2,lsh,f,20,r,2,(172.20000000000002, 0.0),21,3,1,yes,x,5,x,0.6036233999984688,1,60,test2,3,0.6039139999993495,-42.0
2,lsh,f,20,r,2,(121.76378772032346, -121.76378772032352),28,-7,13,no,m,6,m,1.1512857999987318,1,61,test2,3,1.1516440999985207,-42.0
2,lsh,f,20,r,2,(121.76378772032349, 121.76378772032349),22,5,2,yes,x,5,x,0.6023765999998432,1,62,test2,3,0.6026147999946261,-40.0
2,lsh,f,20,r,2,(-121.76378772032352, -121.76378772032348),26,-5,12,no,m,6,m,0.5845360000021174,1,63,test2,3,0.5847712999966461,-40.0
2,lsh,f,20,r,2,(-121.76378772032348, 121.76378772032349),24,-7,13,yes,x,5,x,0.6327861000027042,1,64,test2,3,0.6329339000003529,-52.0
2,lsh,f,20,r,2,(121.76378772032349, 121.76378772032349),22,-3,11,yes,x,5,x,0.6999708000003011,1,65,test2,3,0.7002049000002444,-48.0
2,lsh,f,20,r,2,(172.20000000000002, 0.0),21,-7,13,yes,x,5,x,0.45276190000004135,1,66,test2,3,0.45290189999650465,-52.0
2,lsh,f,20,r,2,(121.76378772032346, -121.76378772032352),28,25,4,no,m,6,m,0.5387665999951423,1,67,test2,3,0.5388686000005691,-52.0
2,lsh,f,20,r,2,(-121.76378772032348, 121.76378772032349),24,-25,14,no,m,6,m,0.684912800003076,1,68,test2,3,0.6853601000038907,-52.0
2,lsh,f,20,r,2,(121.76378772032349, 121.76378772032349),22,25,4,no,m,6,m,0.6693312999996124,1,69,test2,3,0.6697688999993261,-52.0
2,lsh,f,20,r,2,(172.20000000000002, 0.0),21,-7,13,no,m,6,m,0.5468117999989772,1,70,test2,3,0.5470122000042466,-52.0
2,lsh,f,20,r,2,(172.20000000000002, 0.0),21,-25,14,yes,x,5,x,0.42258169999695383,1,71,test2,3,0.4227164999974775,-70.0
2,lsh,f,20,r,2,(121.76378772032346, -121.76378772032352),28,-3,11,yes,x,5,x,0.7819473999988986,1,72,test2,3,0.7825901999967755,-48.0
2,lsh,f,20,r,2,(-3.163262682197613e-14, -172.20000000000002),27,7,3,yes,x,5,x,0.5389471000016783,1,73,test2,3,0.5390622999984771,-38.0
2,lsh,f,20,r,2,(-3.163262682197613e-14, -172.20000000000002),27,25,4,yes,x,5,x,0.5285688000003574,1,74,test2,3,0.5287046000012197,-20.0
2,lsh,f,20,r,2,(1.0544208940658713e-14, 172.20000000000002),23,3,1,no,m,6,m,0.6080929000017932,1,75,test2,3,0.6083514000056311,-20.0
2,lsh,f,20,r,2,(-121.76378772032348, 121.76378772032349),24,3,1,no,m,6,m,0.7434060000014142,1,76,test2,3,0.7436170000000857,-20.0
2,lsh,f,20,r,2,(121.76378772032349, 121.76378772032349),22,-7,13,yes,x,5,x,0.5081305999992765,1,77,test2,3,0.508227700003772,-52.0
2,lsh,f,20,r,2,(121.76378772032349, 121.76378772032349),22,3,1,yes,x,5,x,0.5253129999982775,1,78,test2,3,0.5255106000040541,-42.0
2,lsh,f,20,r,2,(-121.76378772032352, -121.76378772032348),26,5,2,yes,x,5,x,0.7748515999992378,1,79,test2,3,0.7752919000049587,-40.0
2,lsh,f,20,r,2,(121.76378772032346, -121.76378772032352),28,25,4,yes,x,5,x,0.43887589999940246,1,80,test2,3,0.43907160000526346,-20.0
2,lsh,f,20,r,2,(172.20000000000002, 0.0),21,5,2,yes,x,5,x,0.4615514000033727,1,81,test2,3,0.461888199999521,-40.0
2,lsh,f,20,r,2,(-121.76378772032352, -121.76378772032348),26,-7,13,yes,x,5,x,0.5472195999973337,1,82,test2,3,0.5474661999978707,-52.0
2,lsh,f,20,r,2,(172.20000000000002, 0.0),21,25,4,no,m,6,m,0.6933988000018871,1,83,test2,3,0.6936313000041991,-52.0
2,lsh,f,20,r,2,(121.76378772032346, -121.76378772032352),28,-3,11,no,m,6,m,0.6572801000002073,1,84,test2,3,0.6575222000028589,-52.0
2,lsh,f,20,r,2,(-3.163262682197613e-14, -172.20000000000002),27,7,3,no,m,6,m,0.6747660000037285,1,85,test2,3,0.6749725000045146,-52.0
2,lsh,f,20,r,2,(172.20000000000002, 0.0),21,-25,14,yes,x,5,x,0.4129994999966584,1,86,test2,3,0.41321090000565164,-70.0
2,lsh,f,20,r,2,(121.76378772032349, 121.76378772032349),22,-25,14,yes,x,5,x,0.5614845000018249,1,87,test2,3,0.5615802999964217,-70.0
2,lsh,f,20,r,2,(121.76378772032346, -121.76378772032352),28,-5,12,no,m,6,m,0.6067652000056114,1,88,test2,3,0.6074493999985862,-70.0
2,lsh,f,20,r,2,(-121.76378772032352, -121.76378772032348),26,-5,12,yes,x,5,x,0.6374259000003804,1,89,test2,3,0.6376608999999007,-50.0
2,lsh,f,20,r,2,(-121.76378772032352, -121.76378772032348),26,-3,11,yes,x,5,x,0.6563001000031363,1,90,test2,3,0.6565316999985953,-48.0
2,lsh,f,20,r,2,(121.76378772032349, 121.76378772032349),22,-25,14,yes,x,5,x,0.5228622000067844,1,91,test2,3,0.5232256999952369,-70.0
2,lsh,f,20,r,2,(121.76378772032349, 121.76378772032349),22,7,3,yes,x,5,x,1.015437900001416,1,92,test2,3,1.0157174999985727,-38.0
2,lsh,f,20,r,2,(-121.76378772032348, 121.76378772032349),24,-3,11,no,m,6,m,0.7064853000047151,1,93,test2,3,0.7066896000033012,-38.0
2,lsh,f,20,r,2,(1.0544208940658713e-14, 172.20000000000002),23,7,3,yes,x,5,x,0.48635220000142,1,94,test2,3,0.4867879000012181,-38.0
2,lsh,f,20,r,2,(-172.20000000000002, 2.1088417881317425e-14),25,-3,11,yes,x,5,x,0.4904281000053743,1,95,test2,3,0.4905557000020053,-48.0
2,lsh,f,20,r,2,(-3.163262682197613e-14, -172.20000000000002),27,-5,12,yes,x,5,x,0.5400678000005428,1,96,test2,3,0.5401918999996269,-50.0
2,lsh,f,20,r,2,(-121.76378772032348, 121.76378772032349),24,25,4,yes,x,5,x,0.7525011999969138,1,1,test1,4,0.7529748999950243,-20.0
2,lsh,f,20,r,2,(121.76378772032349, 121.76378772032349),22,3,1,yes,x,5,x,0.9420329999993555,1,2,test1,4,0.9422632999994676,-42.0
2,lsh,f,20,r,2,(-172.20000000000002, 2.1088417881317425e-14),25,-7,13,yes,x,5,x,0.41975559999991674,1,3,test1,4,0.4198681999987457,-52.0
2,lsh,f,20,r,2,(-172.20000000000002, 2.1088417881317425e-14),25,-25,14,yes,x,5,x,0.4643156000020099,1,4,test1,4,0.46491339999920456,-70.0
2,lsh,f,20,r,2,(172.20000000000002, 0.0),21,3,1,no,m,6,m,0.7508565000025555,1,5,test1,4,0.7511531999989529,-70.0
2,lsh,f,20,r,2,(-121.76378772032348, 121.76378772032349),24,-25,14,yes,x,5,x,0.3849657999962801,1,6,test1,4,0.3857362999988254,-70.0
2,lsh,f,20,r,2,(-172.20000000000002, 2.1088417881317425e-14),25,-7,13,no,m,6,m,0.7296815000008792,1,7,test1,4,0.729790099998354,-70.0
2,lsh,f,20,r,2,(172.20000000000002, 0.0),21,3,1,yes,x,5,x,0.5522144999995362,1,8,test1,4,0.5523453999994672,-42.0
2,lsh,f,20,r,2,(-121.76378772032348, 121.76378772032349),24,-3,11,yes,x,5,x,0.5412204999956884,1,9,test1,4,0.541315599999507,-48.0
2,lsh,f,20,r,2,(1.0544208940658713e-14, 172.20000000000002),23,5,2,yes,x,5,x,0.45063500000105705,1,10,test1,4,0.45073210000555264,-40.0
2,lsh,f,20,r,2,(-121.76378772032348, 121.76378772032349),24,5,2,yes,x,5,x,0.3944799000018975,1,11,test1,4,0.3946037999994587,-40.0
2,lsh,f,20,r,2,(-121.76378772032348, 121.76378772032349),24,-5,12,no,m,6,m,0.7013805999959004,1,12,test1,4,0.7017881000065245,-40.0
2,lsh,f,20,r,2,(172.20000000000002, 0.0),21,7,3,yes,x,5,x,0.5028288999965298,1,13,test1,4,0.5031579999995301,-38.0
2,lsh,f,20,r,2,(-172.20000000000002, 2.1088417881317425e-14),25,3,1,yes,x,5,x,0.5093563000045833,1,14,test1,4,0.5094712000063737,-42.0
2,lsh,f,20,r,2,(-3.163262682197613e-14, -172.20000000000002),27,-3,11,no,m,6,m,0.7744951999993646,1,15,test1,4,0.7747397999992245,-42.0
2,lsh,f,20,r,2,(172.20000000000002, 0.0),21,-3,11,yes,x,5,x,0.4955638000028557,1,16,test1,4,0.49566259999846807,-48.0
2,lsh,f,20,r,2,(121.76378772032346, -121.76378772032352),28,3,1,yes,x,5,x,0.8608250999968732,1,17,test1,4,0.8611519000041881,-42.0
2,lsh,f,20,r,2,(121.76378772032346, -121.76378772032352),28,7,3,no,m,6,m,0.8873729999977513,1,18,test1,4,0.8874758000019938,-42.0
2,lsh,f,20,r,2,(1.0544208940658713e-14, 172.20000000000002),23,-3,11,yes,x,5,m,1.3117857000033837,0,19,test1,4,1.3121265999943716,-48.0
2,lsh,f,20,r,2,(-3.163262682197613e-14, -172.20000000000002),27,-5,12,yes,x,5,x,0.4519220000001951,1,20,test1,4,0.45219989999895915,-50.0
2,lsh,f,20,r,2,(-121.76378772032352, -121.76378772032348),26,7,3,no,m,6,m,0.6675670000040554,1,21,test1,4,0.6678032999989227,-50.0
2,lsh,f,20,r,2,(121.76378772032346, -121.76378772032352),28,5,2,yes,x,5,x,0.43411550000018906,1,22,test1,4,0.43434229999547824,-40.0
2,lsh,f,20,r,2,(1.0544208940658713e-14, 172.20000000000002),23,25,4,yes,x,5,x,0.4682877000013832,1,23,test1,4,0.4684112999966601,-20.0
2,lsh,f,20,r,2,(-121.76378772032348, 121.76378772032349),24,-25,14,yes,x,5,x,0.41671669999777805,1,24,test1,4,0.41685389999474864,-70.0
2,lsh,f,20,r,2,(-3.163262682197613e-14, -172.20000000000002),27,-3,11,yes,x,5,m,0.6478053000028012,0,25,test1,4,0.648614899997483,-48.0
2,lsh,f,20,r,2,(-172.20000000000002, 2.1088417881317425e-14),25,25,4,no,m,6,m,0.6421076000042376,1,26,test1,4,0.6423539999959758,-48.0
2,lsh,f,20,r,2,(-172.20000000000002, 2.1088417881317425e-14),25,3,1,no,m,6,m,0.5422191999969073,1,27,test1,4,0.54231609999988,-48.0
2,lsh,f,20,r,2,(-121.76378772032348, 121.76378772032349),24,-7,13,no,m,6,m,0.7354617999953916,1,28,test1,4,0.7359130999975605,-48.0
2,lsh,f,20,r,2,(-3.163262682197613e-14, -172.20000000000002),27,-3,11,yes,x,5,m,0.46324989999993704,0,29,test1,4,0.46353369999997085,-48.0
2,lsh,f,20,r,2,(1.0544208940658713e-14, 172.20000000000002),23,-3,11,yes,x,5,x,0.701529699996172,1,30,test1,4,0.7021659999954863,-48.0
2,lsh,f,20,r,2,(172.20000000000002, 0.0),21,-7,13,yes,x,5,x,0.6424611999973422,1,31,test1,4,0.6430866000009701,-52.0
2,lsh,f,20,r,2,(-3.163262682197613e-14, -172.20000000000002),27,25,4,no,m,6,m,0.9283130999974674,1,32,test1,4,0.9285245999999461,-52.0
2,lsh,f,20,r,2,(-121.76378772032352, -121.76378772032348),26,7,3,yes,x,5,x,0.8097400999977253,1,33,test1,4,0.8100148000012268,-38.0
2,lsh,f,20,r,2,(172.20000000000002, 0.0),21,7,3,no,m,6,m,1.2549187000040547,1,34,test1,4,1.2551477000015439,-38.0
2,lsh,f,20,r,2,(121.76378772032349, 121.76378772032349),22,7,3,no,m,6,m,0.7552442000014707,1,35,test1,4,0.7554651999962516,-38.0
2,lsh,f,20,r,2,(1.0544208940658713e-14, 172.20000000000002),23,-7,13,yes,x,5,x,0.6940938999978243,1,36,test1,4,0.6945741000017733,-52.0
2,lsh,f,20,r,2,(172.20000000000002, 0.0),21,-5,12,yes,x,5,x,0.6647643000032986,1,37,test1,4,0.6649360999945202,-50.0
2,lsh,f,20,r,2,(1.0544208940658713e-14, 172.20000000000002),23,-25,14,yes,x,5,x,0.6125880999970832,1,38,test1,4,0.6128142999950796,-70.0
2,lsh,f,20,r,2,(172.20000000000002, 0.0),21,-5,12,no,m,6,m,0.6584287000005133,1,39,test1,4,0.6588749000002281,-70.0
2,lsh,f,20,r,2,(1.0544208940658713e-14, 172.20000000000002),23,-5,12,yes,x,5,x,0.6401496000034967,1,40,test1,4,0.6402498000024934,-50.0
2,lsh,f,20,r,2,(-172.20000000000002, 2.1088417881317425e-14),25,-5,12,yes,x,5,x,0.7880317000017385,1,41,test1,4,0.7884659999981523,-50.0
2,lsh,f,20,r,2,(1.0544208940658713e-14, 172.20000000000002),23,-25,14,no,m,6,m,0.7136231000040425,1,42,test1,4,0.7140414000023156,-50.0
2,lsh,f,20,r,2,(-121.76378772032352, -121.76378772032348),26,-25,14,no,m,6,m,0.6700234999952954,1,43,test1,4,0.670315399998799,-50.0
2,lsh,f,20,r,2,(172.20000000000002, 0.0),21,-3,11,no,m,6,m,0.7764910999976564,1,44,test1,4,0.7767251999975997,-50.0
2,lsh,f,20,r,2,(121.76378772032346, -121.76378772032352),28,-7,13,yes,x,5,x,0.7498856999955024,1,45,test1,4,0.7509612000067136,-52.0
2,lsh,f,20,r,2,(-172.20000000000002, 2.1088417881317425e-14),25,7,3,yes,x,5,x,0.9146261999994749,1,46,test1,4,0.9147692999977153,-38.0
2,lsh,f,20,r,2,(-172.20000000000002, 2.1088417881317425e-14),25,3,1,yes,x,5,x,0.7327278999946429,1,47,test1,4,0.7329582999955164,-42.0
2,lsh,f,20,r,2,(121.76378772032349, 121.76378772032349),22,7,3,yes,x,5,x,0.6483669000008376,1,48,test1,4,0.6484657000037259,-38.0
2,lsh,f,20,r,2,(-121.76378772032348, 121.76378772032349),24,25,4,yes,x,5,x,0.7121990000014193,1,49,test1,4,0.7124272999935783,-20.0
2,lsh,f,20,r,2,(1.0544208940658713e-14, 172.20000000000002),23,7,3,yes,x,5,x,0.6276064000048791,1,50,test1,4,0.6278402999960235,-38.0
2,lsh,f,20,r,2,(-121.76378772032352, -121.76378772032348),26,-5,12,yes,x,5,x,0.7772297999981674,1,51,test1,4,0.7773289999968256,-50.0
2,lsh,f,20,r,2,(121.76378772032346, -121.76378772032352),28,-3,11,yes,x,5,x,0.7598929000014323,1,52,test1,4,0.7599924999958603,-48.0
2,lsh,f,20,r,2,(121.76378772032346, -121.76378772032352),28,7,3,yes,x,5,x,0.6458171999984188,1,53,test1,4,0.6462227999945753,-38.0
2,lsh,f,20,r,2,(172.20000000000002, 0.0),21,7,3,yes,x,5,x,0.8682198999958928,1,54,test1,4,0.8683323000004748,-38.0
2,lsh,f,20,r,2,(-3.163262682197613e-14, -172.20000000000002),27,5,2,yes,x,5,x,0.7062394000022323,1,55,test1,4,0.7064592000024277,-40.0
2,lsh,f,20,r,2,(1.0544208940658713e-14, 172.20000000000002),23,-25,14,yes,x,5,x,0.6495940000022529,1,56,test1,4,0.6497663999980432,-70.0
2,lsh,f,20,r,2,(-121.76378772032352, -121.76378772032348),26,3,1,yes,x,5,x,0.9779559000016889,1,57,test1,4,0.9781492999973125,-42.0
2,lsh,f,20,r,2,(1.0544208940658713e-14, 172.20000000000002),23,3,1,yes,x,5,x,0.6669536999979755,1,58,test1,4,0.6671856000029948,-42.0
2,lsh,f,20,r,2,(121.76378772032349, 121.76378772032349),22,25,4,yes,x,5,x,0.6049242000008235,1,59,test1,4,0.6051078999953461,-20.0
2,lsh,f,20,r,2,(1.0544208940658713e-14, 172.20000000000002),23,-7,13,no,m,6,m,0.9416712000020198,1,60,test1,4,0.9421779999975115,-20.0
2,lsh,f,20,r,2,(1.0544208940658713e-14, 172.20000000000002),23,3,1,yes,x,5,x,0.7013107000020682,1,61,test1,4,0.7014121000029263,-42.0
2,lsh,f,20,r,2,(1.0544208940658713e-14, 172.20000000000002),23,7,3,no,m,6,m,0.7830436000003829,1,62,test1,4,0.7832773999980418,-42.0
2,lsh,f,20,r,2,(121.76378772032349, 121.76378772032349),22,-7,13,yes,x,5,x,0.5759214999998221,1,63,test1,4,0.5761671000000206,-52.0
2,lsh,f,20,r,2,(1.0544208940658713e-14, 172.20000000000002),23,-3,11,no,m,6,m,0.8364423000020906,1,64,test1,4,0.8366071999989799,-52.0
2,lsh,f,20,r,2,(121.76378772032349, 121.76378772032349),22,-5,12,yes,x,5,x,0.5838008999999147,1,65,test1,4,0.5839030999995884,-50.0
2,lsh,f,20,r,2,(-3.163262682197613e-14, -172.20000000000002),27,-25,14,yes,x,5,x,0.6827241999999387,1,66,test1,4,0.6828229000020656,-70.0
2,lsh,f,20,r,2,(1.0544208940658713e-14, 172.20000000000002),23,5,2,no,m,6,m,0.7079628999999841,1,67,test1,4,0.7081705000018701,-70.0
2,lsh,f,20,r,2,(-121.76378772032348, 121.76378772032349),24,7,3,yes,x,5,x,0.5675667999967118,1,68,test1,4,0.5676813000027323,-38.0
2,lsh,f,20,r,2,(172.20000000000002, 0.0),21,5,2,yes,x,5,x,0.6908479999983683,1,69,test1,4,0.6910104999988107,-40.0
2,lsh,f,20,r,2,(-172.20000000000002, 2.1088417881317425e-14),25,7,3,yes,x,5,x,0.6179049999991548,1,70,test1,4,0.6181235999974888,-38.0
2,lsh,f,20,r,2,(-121.76378772032352, -121.76378772032348),26,-3,11,no,m,6,m,0.6765608999994583,1,71,test1,4,0.6767605999993975,-38.0
2,lsh,f,20,r,2,(172.20000000000002, 0.0),21,5,2,no,m,6,m,0.7109681000001729,1,72,test1,4,0.7110908999966341,-38.0
2,lsh,f,20,r,2,(-121.76378772032348, 121.76378772032349),24,-5,12,yes,x,5,x,0.613313299996662,1,73,test1,4,0.6134196999992128,-50.0
2,lsh,f,20,r,2,(1.0544208940658713e-14, 172.20000000000002),23,25,4,no,m,6,m,0.7462763000003179,1,74,test1,4,0.7465002000026288,-50.0
2,lsh,f,20,r,2,(1.0544208940658713e-14, 172.20000000000002),23,-5,12,no,m,6,m,0.7701280000037514,1,75,test1,4,0.7703595999992103,-50.0
2,lsh,f,20,r,2,(-172.20000000000002, 2.1088417881317425e-14),25,-5,12,yes,x,5,x,0.7120712000032654,1,76,test1,4,0.7121694999950705,-50.0
2,lsh,f,20,r,2,(-121.76378772032352, -121.76378772032348),26,-3,11,yes,x,5,x,0.7690641999943182,1,77,test1,4,0.7692839000010281,-48.0
2,lsh,f,20,r,2,(-172.20000000000002, 2.1088417881317425e-14),25,-3,11,yes,x,5,x,0.7623008000009577,1,78,test1,4,0.7629803999952856,-48.0
2,lsh,f,20,r,2,(-172.20000000000002, 2.1088417881317425e-14),25,5,2,no,m,6,m,0.7363215000004857,1,79,test1,4,0.7368118000013055,-48.0
2,lsh,f,20,r,2,(-121.76378772032352, -121.76378772032348),26,5,2,yes,x,5,x,0.660922600000049,1,80,test1,4,0.661454600005527,-40.0
2,lsh,f,20,r,2,(-172.20000000000002, 2.1088417881317425e-14),25,-7,13,yes,x,5,x,0.622807500003546,1,81,test1,4,0.6231735999972443,-52.0
2,lsh,f,20,r,2,(121.76378772032346, -121.76378772032352),28,-25,14,no,m,6,m,0.8114243000018178,1,82,test1,4,0.8119344000006095,-52.0
2,lsh,f,20,r,2,(121.76378772032346, -121.76378772032352),28,3,1,no,m,6,m,0.8180072000031942,1,83,test1,4,0.8181436999948346,-52.0
2,lsh,f,20,r,2,(121.76378772032346, -121.76378772032352),28,-7,13,yes,x,5,x,0.6569899000023725,1,84,test1,4,0.6570942999969702,-52.0
2,lsh,f,20,r,2,(-121.76378772032348, 121.76378772032349),24,-3,11,yes,x,5,m,0.8285544000027585,0,85,test1,4,0.8288014999998268,-48.0
2,lsh,f,20,r,2,(-121.76378772032352, -121.76378772032348),26,-25,14,yes,x,5,x,0.6366800000032526,1,86,test1,4,0.6367964000019128,-70.0
2,lsh,f,20,r,2,(121.76378772032346, -121.76378772032352),28,5,2,yes,x,5,x,0.7032725999961258,1,87,test1,4,0.7034199000045191,-40.0
2,lsh,f,20,r,2,(-121.76378772032348, 121.76378772032349),24,3,1,yes,x,5,x,0.9491887000040151,1,88,test1,4,0.9496500000022934,-42.0
2,lsh,f,20,r,2,(-121.76378772032348, 121.76378772032349),24,-7,13,yes,x,5,x,0.6655037999953493,1,89,test1,4,0.6656025000047521,-52.0
2,lsh,f,20,r,2,(-121.76378772032352, -121.76378772032348),26,25,4,yes,x,5,x,0.6527930000011111,1,90,test1,4,0.6534944000013638,-20.0
2,lsh,f,20,r,2,(-121.76378772032352, -121.76378772032348),26,25,4,yes,x,5,x,0.6036700000040582,1,91,test1,4,0.6041253000003053,-20.0
2,lsh,f,20,r,2,(1.0544208940658713e-14, 172.20000000000002),23,5,2,yes,x,5,x,0.694305600001826,1,92,test1,4,0.694758699995873,-40.0
2,lsh,f,20,r,2,(-3.163262682197613e-14, -172.20000000000002),27,7,3,yes,x,5,x,0.5634962000040105,1,93,test1,4,0.5640311999959522,-38.0
2,lsh,f,20,r,2,(-3.163262682197613e-14, -172.20000000000002),27,-7,13,no,m,6,m,0.9330218999966746,1,94,test1,4,0.9331482000052347,-38.0
2,lsh,f,20,r,2,(-121.76378772032348, 121.76378772032349),24,5,2,yes,x,5,x,0.6650904999987688,1,95,test1,4,0.6654693000018597,-40.0
2,lsh,f,20,r,2,(121.76378772032346, -121.76378772032352),28,-25,14,yes,x,5,x,0.5853432000003522,1,96,test1,4,0.5855851000014809,-70.0
2,lsh,f,20,r,2,(-121.76378772032348, 121.76378772032349),24,-5,12,yes,x,5,x,0.8049643999984255,1,1,test2,4,0.8051283000022522,-50.0
2,lsh,f,20,r,2,(-172.20000000000002, 2.1088417881317425e-14),25,25,4,yes,x,5,x,0.6426093000045512,1,2,test2,4,0.6432300000014948,-20.0
2,lsh,f,20,r,2,(121.76378772032349, 121.76378772032349),22,-5,12,no,m,6,m,0.8204807000001892,1,3,test2,4,0.8206571999980952,-20.0
2,lsh,f,20,r,2,(172.20000000000002, 0.0),21,-5,12,yes,x,5,x,0.5342663999981596,1,4,test2,4,0.5344973000028403,-50.0
2,lsh,f,20,r,2,(121.76378772032349, 121.76378772032349),22,25,4,yes,x,5,x,0.51440829999774,1,5,test2,4,0.5145971000019927,-20.0
2,lsh,f,20,r,2,(1.0544208940658713e-14, 172.20000000000002),23,-7,13,yes,x,5,x,0.5043373000007705,1,6,test2,4,0.5044389000031515,-52.0
2,lsh,f,20,r,2,(121.76378772032349, 121.76378772032349),22,-7,13,no,m,6,m,0.7457843000011053,1,7,test2,4,0.7459957000028226,-52.0
2,lsh,f,20,r,2,(1.0544208940658713e-14, 172.20000000000002),23,-5,12,yes,x,5,x,0.5866323000009288,1,8,test2,4,0.5867615000024671,-50.0
2,lsh,f,20,r,2,(-3.163262682197613e-14, -172.20000000000002),27,3,1,yes,x,5,x,0.5706709000005503,1,9,test2,4,0.5710508999982267,-42.0
2,lsh,f,20,r,2,(121.76378772032349, 121.76378772032349),22,-25,14,no,m,6,m,0.7125925000000279,1,10,test2,4,0.7127608000009786,-42.0
2,lsh,f,20,r,2,(172.20000000000002, 0.0),21,25,4,yes,x,5,x,0.4690298999994411,1,11,test2,4,0.4691704000069876,-20.0
2,lsh,f,20,r,2,(172.20000000000002, 0.0),21,25,4,yes,x,5,x,0.5659269999960088,1,12,test2,4,0.5663690000001225,-20.0
2,lsh,f,20,r,2,(-172.20000000000002, 2.1088417881317425e-14),25,5,2,yes,x,5,x,0.6652802000025986,1,13,test2,4,0.6660964000038803,-40.0
2,lsh,f,20,r,2,(-172.20000000000002, 2.1088417881317425e-14),25,25,4,yes,x,5,x,0.7099511999986134,1,14,test2,4,0.7100834000011673,-20.0
2,lsh,f,20,r,2,(-121.76378772032352, -121.76378772032348),26,25,4,no,m,6,m,0.803769200007082,1,15,test2,4,0.8040164000049117,-20.0
2,lsh,f,20,r,2,(121.76378772032346, -121.76378772032352),28,3,1,yes,x,5,x,0.8285316999972565,1,16,test2,4,0.8286311000047135,-42.0
2,lsh,f,20,r,2,(-172.20000000000002, 2.1088417881317425e-14),25,7,3,no,m,6,m,0.9808632999993279,1,17,test2,4,0.9810249000001932,-42.0
2,lsh,f,20,r,2,(-121.76378772032352, -121.76378772032348),26,5,2,no,m,6,m,0.9052140999992844,1,18,test2,4,0.9058831000002101,-42.0
2,lsh,f,20,r,2,(-172.20000000000002, 2.1088417881317425e-14),25,-3,11,no,m,6,m,0.8683487000016612,1,19,test2,4,0.8685773000033805,-42.0
2,lsh,f,20,r,2,(-3.163262682197613e-14, -172.20000000000002),27,3,1,yes,x,5,x,0.9797633999987738,1,20,test2,4,0.9798927000010735,-42.0
2,lsh,f,20,r,2,(121.76378772032349, 121.76378772032349),22,-3,11,no,m,6,m,0.8063887000025716,1,21,test2,4,0.8066233999998076,-42.0
2,lsh,f,20,r,2,(-121.76378772032352, -121.76378772032348),26,-7,13,yes,x,5,x,0.6004369000002043,1,22,test2,4,0.6005672999963281,-52.0
2,lsh,f,20,r,2,(-172.20000000000002, 2.1088417881317425e-14),25,-25,14,no,m,6,m,1.218567099997017,1,23,test2,4,1.2188784999962081,-52.0
2,lsh,f,20,r,2,(121.76378772032349, 121.76378772032349),22,-3,11,yes,x,5,x,0.744318299999577,1,24,test2,4,0.7444217000011122,-48.0
2,lsh,f,20,r,2,(-121.76378772032352, -121.76378772032348),26,-7,13,no,m,6,m,0.8319842999990215,1,25,test2,4,0.8320991000000504,-48.0
2,lsh,f,20,r,2,(-121.76378772032352, -121.76378772032348),26,7,3,yes,x,5,x,0.6417744999998831,1,26,test2,4,0.6424826000002213,-38.0
2,lsh,f,20,r,2,(-121.76378772032352, -121.76378772032348),26,3,1,yes,x,5,x,0.5904197999989265,1,27,test2,4,0.5905205999952159,-42.0
2,lsh,f,20,r,2,(-121.76378772032352, -121.76378772032348),26,-25,14,yes,x,5,x,0.6341147999992245,1,28,test2,4,0.6342141999994055,-70.0
2,lsh,f,20,r,2,(-3.163262682197613e-14, -172.20000000000002),27,25,4,yes,x,5,x,0.7323964000024716,1,29,test2,4,0.7328329000010854,-20.0
2,lsh,f,20,r,2,(121.76378772032346, -121.76378772032352),28,-5,12,yes,x,5,x,0.5977067999992869,1,30,test2,4,0.5980629999976372,-50.0
2,lsh,f,20,r,2,(-172.20000000000002, 2.1088417881317425e-14),25,-5,12,no,m,6,m,0.6596551000038744,1,31,test2,4,0.6598162000009324,-50.0
2,lsh,f,20,r,2,(172.20000000000002, 0.0),21,-3,11,yes,x,5,x,0.8267628000030527,1,32,test2,4,0.8268596999987494,-48.0
2,lsh,f,20,r,2,(-121.76378772032348, 121.76378772032349),24,25,4,no,m,6,m,0.8051991000029375,1,33,test2,4,0.8059156000017538,-48.0
2,lsh,f,20,r,2,(-3.163262682197613e-14, -172.20000000000002),27,5,2,yes,x,5,x,0.7157866999987164,1,34,test2,4,0.7160507000007783,-40.0
2,lsh,f,20,r,2,(-3.163262682197613e-14, -172.20000000000002),27,5,2,no,m,6,m,1.270124399998167,1,35,test2,4,1.2712402999968617,-40.0
2,lsh,f,20,r,2,(121.76378772032346, -121.76378772032352),28,-5,12,yes,x,5,x,0.6508102999941912,1,36,test2,4,0.6510369999959948,-50.0
2,lsh,f,20,r,2,(-3.163262682197613e-14, -172.20000000000002),27,-5,12,no,m,6,m,1.0122698999985005,1,37,test2,4,1.0127559000029578,-50.0
2,lsh,f,20,r,2,(-121.76378772032352, -121.76378772032348),26,3,1,no,m,6,m,0.6840699999956996,1,38,test2,4,0.6842013000059524,-50.0
2,lsh,f,20,r,2,(-121.76378772032348, 121.76378772032349),24,7,3,no,m,6,m,0.6410367999997106,1,39,test2,4,0.6412573000052362,-50.0
2,lsh,f,20,r,2,(121.76378772032346, -121.76378772032352),28,5,2,no,m,6,m,0.6287882000033278,1,40,test2,4,0.6293562999999267,-50.0
2,lsh,f,20,r,2,(121.76378772032349, 121.76378772032349),22,5,2,no,m,6,m,0.6345606000031694,1,41,test2,4,0.634661900003266,-50.0
2,lsh,f,20,r,2,(121.76378772032346, -121.76378772032352),28,7,3,yes,x,5,x,0.6194551000007777,1,42,test2,4,0.6195514999999432,-38.0
2,lsh,f,20,r,2,(-121.76378772032348, 121.76378772032349),24,5,2,no,m,6,m,0.8287591000043903,1,43,test2,4,0.8288527999975486,-38.0
2,lsh,f,20,r,2,(172.20000000000002, 0.0),21,-25,14,no,m,6,m,0.7726924000016879,1,44,test2,4,0.7728572999985772,-38.0
2,lsh,f,20,r,2,(121.76378772032346, -121.76378772032352),28,-25,14,yes,x,5,x,0.7945006000009016,1,45,test2,4,0.7946800999998231,-70.0
2,lsh,f,20,r,2,(-3.163262682197613e-14, -172.20000000000002),27,-7,13,yes,x,5,x,0.6884228999988409,1,46,test2,4,0.6887423000007402,-52.0
2,lsh,f,20,r,2,(121.76378772032349, 121.76378772032349),22,-5,12,yes,x,5,x,0.7579311000008602,1,47,test2,4,0.7581709000005503,-50.0
2,lsh,f,20,r,2,(-3.163262682197613e-14, -172.20000000000002),27,-7,13,yes,x,5,x,0.6960919999983162,1,48,test2,4,0.6962141000039992,-52.0
2,lsh,f,20,r,2,(-172.20000000000002, 2.1088417881317425e-14),25,-25,14,yes,x,5,x,0.6283272000000579,1,49,test2,4,0.628746800000954,-70.0
2,lsh,f,20,r,2,(-172.20000000000002, 2.1088417881317425e-14),25,5,2,yes,x,5,x,0.6944082000045455,1,50,test2,4,0.6948588000013842,-40.0
2,lsh,f,20,r,2,(-3.163262682197613e-14, -172.20000000000002),27,3,1,no,m,6,x,1.3354113000023062,0,51,test2,4,1.3355348999975831,-40.0
2,lsh,f,20,r,2,(-3.163262682197613e-14, -172.20000000000002),27,-25,14,yes,x,5,x,0.7037686000039685,1,52,test2,4,0.7041287000029115,-70.0
2,lsh,f,20,r,2,(121.76378772032346, -121.76378772032352),28,25,4,yes,x,5,x,0.6993586999960826,1,53,test2,4,0.699672599999758,-20.0
2,lsh,f,20,r,2,(-121.76378772032348, 121.76378772032349),24,3,1,yes,x,5,x,1.0253372000006493,1,54,test2,4,1.0255506000030437,-42.0
2,lsh,f,20,r,2,(121.76378772032349, 121.76378772032349),22,3,1,no,m,6,m,0.7414105999996536,1,55,test2,4,0.7415406000000075,-42.0
2,lsh,f,20,r,2,(-3.163262682197613e-14, -172.20000000000002),27,-25,14,no,m,6,m,0.9604263000001083,1,56,test2,4,0.9606683000019984,-42.0
2,lsh,f,20,r,2,(121.76378772032349, 121.76378772032349),22,5,2,yes,x,5,x,0.7096825999979046,1,57,test2,4,0.7101615999999922,-40.0
2,lsh,f,20,r,2,(1.0544208940658713e-14, 172.20000000000002),23,25,4,yes,x,5,x,0.5599951999975019,1,58,test2,4,0.5601581999944756,-20.0
2,lsh,f,20,r,2,(-121.76378772032348, 121.76378772032349),24,7,3,yes,x,5,x,0.6121248999988893,1,59,test2,4,0.6123571999996784,-38.0
2,lsh,f,20,r,2,(172.20000000000002, 0.0),21,3,1,yes,x,5,m,0.7860749999963446,0,60,test2,4,0.7863805999950273,-42.0
2,lsh,f,20,r,2,(121.76378772032346, -121.76378772032352),28,-7,13,no,m,6,m,0.8643221999955131,1,61,test2,4,0.8645022999990033,-42.0
2,lsh,f,20,r,2,(121.76378772032349, 121.76378772032349),22,5,2,yes,x,5,x,0.8845075999997789,1,62,test2,4,0.8854195000021718,-40.0
2,lsh,f,20,r,2,(-121.76378772032352, -121.76378772032348),26,-5,12,no,m,6,m,0.7978849999999511,1,63,test2,4,0.798058200001833,-40.0
2,lsh,f,20,r,2,(-121.76378772032348, 121.76378772032349),24,-7,13,yes,x,5,x,0.7183185999965644,1,64,test2,4,0.7185110999998869,-52.0
2,lsh,f,20,r,2,(121.76378772032349, 121.76378772032349),22,-3,11,yes,x,5,x,0.8318559000035748,1,65,test2,4,0.8322365000058198,-48.0
2,lsh,f,20,r,2,(172.20000000000002, 0.0),21,-7,13,yes,x,5,x,0.6875230000005104,1,66,test2,4,0.6876252000001841,-52.0
2,lsh,f,20,r,2,(121.76378772032346, -121.76378772032352),28,25,4,no,m,6,m,0.8989768000028562,1,67,test2,4,0.8990712000013446,-52.0
2,lsh,f,20,r,2,(-121.76378772032348, 121.76378772032349),24,-25,14,no,m,6,m,0.7872387999959756,1,68,test2,4,0.7873393000045326,-52.0
2,lsh,f,20,r,2,(121.76378772032349, 121.76378772032349),22,25,4,no,m,6,m,0.6331162999995286,1,69,test2,4,0.6333494999998948,-52.0
2,lsh,f,20,r,2,(172.20000000000002, 0.0),21,-7,13,no,m,6,m,0.7620939999978873,1,70,test2,4,0.7625600000028498,-52.0
2,lsh,f,20,r,2,(172.20000000000002, 0.0),21,-25,14,yes,x,5,x,0.6950976000007358,1,71,test2,4,0.6952678999950876,-70.0
2,lsh,f,20,r,2,(121.76378772032346, -121.76378772032352),28,-3,11,yes,x,5,x,1.2482906000004732,1,72,test2,4,1.2484981000015978,-48.0
2,lsh,f,20,r,2,(-3.163262682197613e-14, -172.20000000000002),27,7,3,yes,x,5,x,0.6965223000006517,1,73,test2,4,0.6967270999957691,-38.0
2,lsh,f,20,r,2,(-3.163262682197613e-14, -172.20000000000002),27,25,4,yes,x,5,x,0.6516367000003811,1,74,test2,4,0.6522173000048497,-20.0
2,lsh,f,20,r,2,(1.0544208940658713e-14, 172.20000000000002),23,3,1,no,m,6,m,0.7141686000031768,1,75,test2,4,0.7144637999954284,-20.0
2,lsh,f,20,r,2,(-121.76378772032348, 121.76378772032349),24,3,1,no,m,6,m,1.19643730000098,1,76,test2,4,1.1965494999967632,-20.0
2,lsh,f,20,r,2,(121.76378772032349, 121.76378772032349),22,-7,13,yes,x,5,x,0.6586200999954599,1,77,test2,4,0.658722599997418,-52.0
2,lsh,f,20,r,2,(121.76378772032349, 121.76378772032349),22,3,1,yes,x,5,x,0.8495813999979873,1,78,test2,4,0.8501744000022882,-42.0
2,lsh,f,20,r,2,(-121.76378772032352, -121.76378772032348),26,5,2,yes,x,5,x,0.5365707999953884,1,79,test2,4,0.5367329000000609,-40.0
2,lsh,f,20,r,2,(121.76378772032346, -121.76378772032352),28,25,4,yes,x,5,x,0.6766738000005716,1,80,test2,4,0.6769506000055117,-20.0
2,lsh,f,20,r,2,(172.20000000000002, 0.0),21,5,2,yes,x,5,x,0.6320527999996557,1,81,test2,4,0.6322215000036522,-40.0
2,lsh,f,20,r,2,(-121.76378772032352, -121.76378772032348),26,-7,13,yes,x,5,x,0.5492459000015515,1,82,test2,4,0.5493652000004658,-52.0
