subj_id,subj_name,subj_gender ,subj_age,subj_handedness,subj_runNum,tar_l_x,tar_l_y,loc_code,tar_ori,tar_code,tar_pre ,cor_response,pre_code,subj_response,RT,correct,trial_num,type,bloc_num,dur, real_tar
3,njx,f,22,r,2,(-121.76378772032348, 121.76378772032349),24,-25,14,no,m,6,m,0.96279350000259,1,1,test1,1,0.9630280999990646,0.0
3,njx,f,22,r,2,(172.20000000000002, 0.0),21,25,4,no,m,6,m,0.8911122999998042,1,2,test1,1,0.8913493000000017,0.0
3,njx,f,22,r,2,(-172.20000000000002, 2.1088417881317425e-14),25,5,2,no,m,6,m,0.6878615000023274,1,3,test1,1,0.6880556000032811,0.0
3,njx,f,22,r,2,(-121.76378772032352, -121.76378772032348),26,-25,14,yes,x,5,x,0.40867839999555144,1,4,test1,1,0.4089135000031092,-70.0
3,njx,f,22,r,2,(-172.20000000000002, 2.1088417881317425e-14),25,5,2,yes,x,5,m,0.8562186999988626,0,5,test1,1,0.8565279000031296,-40.0
3,njx,f,22,r,2,(-121.76378772032348, 121.76378772032349),24,5,2,no,m,6,m,0.6434582000001683,1,6,test1,1,0.6436728000044241,-40.0
3,njx,f,22,r,2,(121.76378772032346, -121.76378772032352),28,-3,11,yes,x,5,m,0.7612995999952545,0,7,test1,1,0.7615226999987499,-48.0
3,njx,f,22,r,2,(-121.76378772032352, -121.76378772032348),26,-5,12,yes,x,5,m,1.271375899996201,0,8,test1,1,1.2716349000038463,-50.0
3,njx,f,22,r,2,(-172.20000000000002, 2.1088417881317425e-14),25,-7,13,yes,x,5,x,0.5311516000001575,1,9,test1,1,0.5316269999966607,-52.0
3,njx,f,22,r,2,(172.20000000000002, 0.0),21,7,3,no,m,6,m,0.7300572999956785,1,10,test1,1,0.7303416000067955,-52.0
3,njx,f,22,r,2,(-3.163262682197613e-14, -172.20000000000002),27,5,2,yes,x,5,x,0.721395600005053,1,11,test1,1,0.7215291000029538,-40.0
3,njx,f,22,r,2,(-121.76378772032348, 121.76378772032349),24,-25,14,yes,x,5,x,0.5503644999989774,1,12,test1,1,0.5506060000043362,-70.0
3,njx,f,22,r,2,(-3.163262682197613e-14, -172.20000000000002),27,3,1,yes,x,5,x,0.9416190999982064,1,13,test1,1,0.941910800000187,-42.0
3,njx,f,22,r,2,(121.76378772032349, 121.76378772032349),22,-25,14,no,m,6,m,0.9548141999985091,1,14,test1,1,0.9550471000038669,-42.0
3,njx,f,22,r,2,(-3.163262682197613e-14, -172.20000000000002),27,-7,13,no,m,6,m,1.0671761999983573,1,15,test1,1,1.0672989999948186,-42.0
3,njx,f,22,r,2,(172.20000000000002, 0.0),21,3,1,yes,x,5,m,0.6854112000000896,0,16,test1,1,0.6856501999936881,-42.0
3,njx,f,22,r,2,(121.76378772032346, -121.76378772032352),28,5,2,yes,x,5,x,0.7295019000011962,1,17,test1,1,0.7301049000016064,-40.0
3,njx,f,22,r,2,(-121.76378772032352, -121.76378772032348),26,-7,13,no,m,6,m,1.460829100004048,1,18,test1,1,1.460959299998649,-40.0
3,njx,f,22,r,2,(-121.76378772032352, -121.76378772032348),26,-25,14,yes,x,5,x,0.5146232000042801,1,19,test1,1,0.5147167999966769,-70.0
3,njx,f,22,r,2,(-172.20000000000002, 2.1088417881317425e-14),25,-25,14,yes,x,5,x,0.4828090000009979,1,20,test1,1,0.48304719999578083,-70.0
3,njx,f,22,r,2,(-3.163262682197613e-14, -172.20000000000002),27,-3,11,yes,x,5,x,1.053810199999134,1,21,test1,1,1.0539148000025307,-48.0
3,njx,f,22,r,2,(-172.20000000000002, 2.1088417881317425e-14),25,25,4,yes,x,5,x,0.5906030000041937,1,22,test1,1,0.5907491000034497,-20.0
3,njx,f,22,r,2,(-121.76378772032348, 121.76378772032349),24,25,4,no,m,6,m,1.1030105000027106,1,23,test1,1,1.1031311000042479,-20.0
3,njx,f,22,r,2,(121.76378772032349, 121.76378772032349),22,3,1,yes,x,5,m,1.2910443000000669,0,24,test1,1,1.2912046999990707,-42.0
3,njx,f,22,r,2,(121.76378772032349, 121.76378772032349),22,-25,14,yes,x,5,x,0.5016026000012062,1,25,test1,1,0.5017160999996122,-70.0
3,njx,f,22,r,2,(1.0544208940658713e-14, 172.20000000000002),23,5,2,yes,x,5,x,1.1894829000011669,1,26,test1,1,1.189695799999754,-40.0
3,njx,f,22,r,2,(-121.76378772032348, 121.76378772032349),24,7,3,yes,x,5,x,0.5719698000029894,1,27,test1,1,0.5721894000016619,-38.0
3,njx,f,22,r,2,(121.76378772032349, 121.76378772032349),22,25,4,yes,x,5,x,0.5341255999956047,1,28,test1,1,0.5343464000034146,-20.0
3,njx,f,22,r,2,(1.0544208940658713e-14, 172.20000000000002),23,-7,13,yes,x,5,x,0.562756300001638,1,29,test1,1,0.5628705999988597,-52.0
3,njx,f,22,r,2,(1.0544208940658713e-14, 172.20000000000002),23,7,3,no,m,6,m,1.3573038000031374,1,30,test1,1,1.357433500001207,-52.0
3,njx,f,22,r,2,(1.0544208940658713e-14, 172.20000000000002),23,5,2,no,m,6,m,0.9136603000006289,1,31,test1,1,0.9140675999951782,-52.0
3,njx,f,22,r,2,(-121.76378772032352, -121.76378772032348),26,3,1,yes,x,5,m,0.6623484000010649,0,32,test1,1,0.6625153999993927,-42.0
3,njx,f,22,r,2,(1.0544208940658713e-14, 172.20000000000002),23,-25,14,no,m,6,m,0.8833337999967625,1,33,test1,1,0.8835679000039818,-42.0
3,njx,f,22,r,2,(-172.20000000000002, 2.1088417881317425e-14),25,-3,11,yes,x,5,m,0.8149794999990263,0,34,test1,1,0.8151106000004802,-48.0
3,njx,f,22,r,2,(-121.76378772032352, -121.76378772032348),26,-3,11,yes,x,5,m,1.3764335000014398,0,35,test1,1,1.3765669999993406,-48.0
3,njx,f,22,r,2,(121.76378772032349, 121.76378772032349),22,-5,12,yes,x,5,x,0.7922890999980154,1,36,test1,1,0.7926612000010209,-50.0
3,njx,f,22,r,2,(121.76378772032349, 121.76378772032349),22,-3,11,no,m,6,m,0.9884509000039543,1,37,test1,1,0.9885802999997395,-50.0
3,njx,f,22,r,2,(1.0544208940658713e-14, 172.20000000000002),23,-7,13,yes,x,5,x,0.7532971000036923,1,38,test1,1,0.7535551999972085,-52.0
3,njx,f,22,r,2,(-121.76378772032352, -121.76378772032348),26,5,2,no,m,6,None,None,0,39,test1,1,1.980089800003043,-52.0
3,njx,f,22,r,2,(172.20000000000002, 0.0),21,-5,12,no,m,6,m,0.8101108999981079,1,40,test1,1,0.8102462999959243,-52.0
3,njx,f,22,r,2,(121.76378772032346, -121.76378772032352),28,-25,14,yes,x,5,x,0.8127763999946183,1,41,test1,1,0.8130046999940532,-70.0
3,njx,f,22,r,2,(-172.20000000000002, 2.1088417881317425e-14),25,7,3,yes,x,5,x,0.9498246000002837,1,42,test1,1,0.9500305999972625,-38.0
3,njx,f,22,r,2,(121.76378772032346, -121.76378772032352),28,-5,12,yes,x,5,x,0.76052090000303,1,43,test1,1,0.7606241999965278,-50.0
3,njx,f,22,r,2,(-121.76378772032348, 121.76378772032349),24,-5,12,yes,x,5,x,0.7422644000034779,1,44,test1,1,0.742485900002066,-50.0
3,njx,f,22,r,2,(121.76378772032346, -121.76378772032352),28,-25,14,no,m,6,m,0.643614600005094,1,45,test1,1,0.6437102999989293,-50.0
3,njx,f,22,r,2,(172.20000000000002, 0.0),21,5,2,yes,x,5,x,0.7393856999988202,1,46,test1,1,0.7397577000010642,-40.0
3,njx,f,22,r,2,(-121.76378772032352, -121.76378772032348),26,7,3,no,m,6,x,1.0559997000018484,0,47,test1,1,1.056128299998818,-40.0
3,njx,f,22,r,2,(-121.76378772032352, -121.76378772032348),26,25,4,yes,x,5,None,None,0,48,test1,1,1.980090900004143,-20.0
3,njx,f,22,r,2,(-3.163262682197613e-14, -172.20000000000002),27,25,4,no,m,6,m,0.864281199996185,1,49,test1,1,0.8645011999979033,-20.0
3,njx,f,22,r,2,(1.0544208940658713e-14, 172.20000000000002),23,3,1,no,m,6,m,0.9514296999986982,1,50,test1,1,0.9515316000033636,-20.0
3,njx,f,22,r,2,(1.0544208940658713e-14, 172.20000000000002),23,-25,14,yes,x,5,x,0.7715891999978339,1,51,test1,1,0.7717044000019087,-70.0
3,njx,f,22,r,2,(-3.163262682197613e-14, -172.20000000000002),27,-7,13,yes,x,5,x,0.7138970999949379,1,52,test1,1,0.7141914000021643,-52.0
3,njx,f,22,r,2,(-172.20000000000002, 2.1088417881317425e-14),25,-3,11,no,m,6,m,0.7685024999955203,1,53,test1,1,0.768715099999099,-52.0
3,njx,f,22,r,2,(1.0544208940658713e-14, 172.20000000000002),23,7,3,yes,x,5,x,0.5279246999998577,1,54,test1,1,0.5280443000010564,-38.0
3,njx,f,22,r,2,(121.76378772032346, -121.76378772032352),28,7,3,yes,x,5,x,0.8447956000018166,1,55,test1,1,0.8450014000045485,-38.0
3,njx,f,22,r,2,(121.76378772032346, -121.76378772032352),28,-7,13,no,m,6,m,0.6652114000025904,1,56,test1,1,0.66531070000201,-38.0
3,njx,f,22,r,2,(-121.76378772032352, -121.76378772032348),26,-7,13,yes,x,5,x,0.4295626999955857,1,57,test1,1,0.429804300001706,-52.0
3,njx,f,22,r,2,(-121.76378772032348, 121.76378772032349),24,25,4,yes,x,5,x,0.45091210000100546,1,58,test1,1,0.45130000000062864,-20.0
3,njx,f,22,r,2,(121.76378772032349, 121.76378772032349),22,-5,12,yes,x,5,x,0.6773972000009962,1,59,test1,1,0.677532900001097,-50.0
3,njx,f,22,r,2,(-3.163262682197613e-14, -172.20000000000002),27,7,3,yes,x,5,x,0.6164090000020224,1,60,test1,1,0.6166979999979958,-38.0
3,njx,f,22,r,2,(1.0544208940658713e-14, 172.20000000000002),23,7,3,yes,x,5,x,0.5887865999975475,1,61,test1,1,0.58888389999629,-38.0
3,njx,f,22,r,2,(-121.76378772032352, -121.76378772032348),26,-25,14,no,m,6,m,0.7030891000031261,1,62,test1,1,0.703211599997303,-38.0
3,njx,f,22,r,2,(121.76378772032349, 121.76378772032349),22,-7,13,yes,x,5,x,0.5890832000004593,1,63,test1,1,0.589288299997861,-52.0
3,njx,f,22,r,2,(121.76378772032346, -121.76378772032352),28,3,1,yes,x,5,m,0.7439264000058756,0,64,test1,1,0.7441975999972783,-42.0
3,njx,f,22,r,2,(-121.76378772032348, 121.76378772032349),24,-5,12,yes,x,5,x,0.5025720999983605,1,65,test1,1,0.5027740000004997,-50.0
3,njx,f,22,r,2,(-172.20000000000002, 2.1088417881317425e-14),25,5,2,yes,x,5,m,0.7098508999988553,0,66,test1,1,0.7099509999970905,-40.0
3,njx,f,22,r,2,(121.76378772032346, -121.76378772032352),28,-3,11,no,m,6,m,0.8328305999966688,1,67,test1,1,0.833013999996183,-40.0
3,njx,f,22,r,2,(121.76378772032349, 121.76378772032349),22,-7,13,yes,x,5,x,0.5010996999990311,1,68,test1,1,0.5012347000010777,-52.0
3,njx,f,22,r,2,(-3.163262682197613e-14, -172.20000000000002),27,25,4,yes,x,5,x,0.684659600003215,1,69,test1,1,0.6847864999945159,-20.0
3,njx,f,22,r,2,(-172.20000000000002, 2.1088417881317425e-14),25,3,1,no,m,6,m,0.6753496000019368,1,70,test1,1,0.6754815999956918,-20.0
3,njx,f,22,r,2,(1.0544208940658713e-14, 172.20000000000002),23,5,2,yes,x,5,x,0.5820467000012286,1,71,test1,1,0.5823037000009208,-40.0
3,njx,f,22,r,2,(172.20000000000002, 0.0),21,-3,11,yes,x,5,x,1.0151673999935156,1,72,test1,1,1.0152948000031756,-48.0
3,njx,f,22,r,2,(-3.163262682197613e-14, -172.20000000000002),27,7,3,yes,x,5,x,0.7123083999977098,1,73,test1,1,0.7125770999991801,-38.0
3,njx,f,22,r,2,(-121.76378772032348, 121.76378772032349),24,-3,11,no,m,6,m,0.6674480000001495,1,74,test1,1,0.6676711999971303,-38.0
3,njx,f,22,r,2,(1.0544208940658713e-14, 172.20000000000002),23,25,4,yes,x,5,x,0.5385536000030697,1,75,test1,1,0.538690300003509,-20.0
3,njx,f,22,r,2,(-3.163262682197613e-14, -172.20000000000002),27,-25,14,no,m,6,m,0.683989000004658,1,76,test1,1,0.6842169000010472,-20.0
3,njx,f,22,r,2,(-121.76378772032348, 121.76378772032349),24,-5,12,no,m,6,m,0.7235147000028519,1,77,test1,1,0.7237099999983911,-20.0
3,njx,f,22,r,2,(121.76378772032346, -121.76378772032352),28,-7,13,yes,x,5,x,0.5073456000027363,1,78,test1,1,0.5080735999945318,-52.0
3,njx,f,22,r,2,(-172.20000000000002, 2.1088417881317425e-14),25,-25,14,yes,x,5,x,0.5006097000004956,1,79,test1,1,0.5007833999989089,-70.0
3,njx,f,22,r,2,(-121.76378772032348, 121.76378772032349),24,7,3,yes,x,5,x,0.4368594999978086,1,80,test1,1,0.4374909999969532,-38.0
3,njx,f,22,r,2,(1.0544208940658713e-14, 172.20000000000002),23,-7,13,no,m,6,m,0.7921403000000282,1,81,test1,1,0.7922675000008894,-38.0
3,njx,f,22,r,2,(-121.76378772032352, -121.76378772032348),26,-3,11,no,m,6,m,0.7606146000034641,1,82,test1,1,0.7608342999956221,-38.0
3,njx,f,22,r,2,(172.20000000000002, 0.0),21,-25,14,no,m,6,m,0.9916693999985,1,83,test1,1,0.9919083999993745,-38.0
3,njx,f,22,r,2,(1.0544208940658713e-14, 172.20000000000002),23,3,1,yes,x,5,x,0.8629575000013574,1,84,test1,1,0.8633688000045368,-42.0
3,njx,f,22,r,2,(-172.20000000000002, 2.1088417881317425e-14),25,-3,11,yes,x,5,m,0.778525499998068,0,85,test1,1,0.7786296999984188,-48.0
3,njx,f,22,r,2,(121.76378772032349, 121.76378772032349),22,3,1,no,m,6,m,0.7712979999996605,1,86,test1,1,0.771754499997769,-48.0
3,njx,f,22,r,2,(1.0544208940658713e-14, 172.20000000000002),23,-5,12,yes,x,5,x,0.709957699997176,1,87,test1,1,0.7101905999952578,-50.0
3,njx,f,22,r,2,(1.0544208940658713e-14, 172.20000000000002),23,-3,11,no,m,6,m,0.7145282000055886,1,88,test1,1,0.7149824999942211,-50.0
3,njx,f,22,r,2,(1.0544208940658713e-14, 172.20000000000002),23,-3,11,yes,x,5,x,0.7384257999947295,1,89,test1,1,0.7388422000003629,-48.0
3,njx,f,22,r,2,(-172.20000000000002, 2.1088417881317425e-14),25,-5,12,no,m,6,m,0.7062273999981699,1,90,test1,1,0.7065282000039588,-48.0
3,njx,f,22,r,2,(-121.76378772032348, 121.76378772032349),24,7,3,no,m,6,m,1.019670000001497,1,91,test1,1,1.019806399999652,-48.0
3,njx,f,22,r,2,(172.20000000000002, 0.0),21,-3,11,no,m,6,m,0.6561243999967701,1,92,test1,1,0.6563097999969614,-48.0
3,njx,f,22,r,2,(-3.163262682197613e-14, -172.20000000000002),27,-25,14,yes,x,5,x,0.4017024999993737,1,93,test1,1,0.40199170000414597,-70.0
3,njx,f,22,r,2,(-172.20000000000002, 2.1088417881317425e-14),25,3,1,yes,x,5,m,0.6817315999942366,0,94,test1,1,0.6824102999962633,-42.0
3,njx,f,22,r,2,(121.76378772032346, -121.76378772032352),28,7,3,yes,x,5,x,0.573189499998989,1,95,test1,1,0.5734980999986874,-38.0
3,njx,f,22,r,2,(-121.76378772032352, -121.76378772032348),26,3,1,yes,x,5,m,0.7261283000043477,0,96,test1,1,0.7262904000017443,-42.0
3,njx,f,22,r,2,(-121.76378772032348, 121.76378772032349),24,5,2,yes,x,5,x,0.6777203000019654,1,1,test2,1,0.6778439999980037,-40.0
3,njx,f,22,r,2,(-121.76378772032348, 121.76378772032349),24,-7,13,no,m,6,m,1.1250750999970478,1,2,test2,1,1.1252730999985943,-40.0
3,njx,f,22,r,2,(121.76378772032346, -121.76378772032352),28,25,4,yes,x,5,x,0.5552685000002384,1,3,test2,1,0.5558041999975103,-20.0
3,njx,f,22,r,2,(-3.163262682197613e-14, -172.20000000000002),27,-3,11,no,m,6,m,0.590280200005509,1,4,test2,1,0.5905146000004606,-20.0
3,njx,f,22,r,2,(-3.163262682197613e-14, -172.20000000000002),27,-7,13,yes,x,5,x,0.5500510000056238,1,5,test2,1,0.550258399998711,-52.0
3,njx,f,22,r,2,(1.0544208940658713e-14, 172.20000000000002),23,-25,14,yes,x,5,x,0.627369900001213,1,6,test2,1,0.6275037999948836,-70.0
3,njx,f,22,r,2,(-172.20000000000002, 2.1088417881317425e-14),25,-7,13,no,m,6,m,0.6909987999970326,1,7,test2,1,0.6911335000040708,-70.0
3,njx,f,22,r,2,(-121.76378772032348, 121.76378772032349),24,3,1,yes,x,5,m,0.8320692999986932,0,8,test2,1,0.8324772999985726,-42.0
3,njx,f,22,r,2,(1.0544208940658713e-14, 172.20000000000002),23,-5,12,no,m,6,m,0.7438641999979154,1,9,test2,1,0.7439671000029193,-42.0
3,njx,f,22,r,2,(-3.163262682197613e-14, -172.20000000000002),27,-3,11,yes,x,5,x,0.9146913999938988,1,10,test2,1,0.9148194000008516,-48.0
3,njx,f,22,r,2,(172.20000000000002, 0.0),21,5,2,no,m,6,m,0.7144361000027857,1,11,test2,1,0.7147383999981685,-48.0
3,njx,f,22,r,2,(-121.76378772032352, -121.76378772032348),26,-5,12,no,m,6,m,0.7041380999944522,1,12,test2,1,0.7043682000003173,-48.0
3,njx,f,22,r,2,(-121.76378772032348, 121.76378772032349),24,5,2,yes,x,5,x,0.4687277999983053,1,13,test2,1,0.4688601000016206,-40.0
3,njx,f,22,r,2,(1.0544208940658713e-14, 172.20000000000002),23,-3,11,yes,x,5,m,1.0755633000007947,0,14,test2,1,1.0757013000038569,-48.0
3,njx,f,22,r,2,(121.76378772032349, 121.76378772032349),22,7,3,no,m,6,m,0.643049999998766,1,15,test2,1,0.6432675999967614,-48.0
3,njx,f,22,r,2,(121.76378772032346, -121.76378772032352),28,-25,14,yes,x,5,x,0.7063230999992811,1,16,test2,1,0.7064264000000549,-70.0
3,njx,f,22,r,2,(1.0544208940658713e-14, 172.20000000000002),23,25,4,yes,x,5,x,0.6658823000034317,1,17,test2,1,0.6660572999971919,-20.0
3,njx,f,22,r,2,(-3.163262682197613e-14, -172.20000000000002),27,5,2,no,m,6,m,0.8615406000026269,1,18,test2,1,0.8617769000047701,-20.0
3,njx,f,22,r,2,(172.20000000000002, 0.0),21,7,3,yes,x,5,x,0.5760336999956053,1,19,test2,1,0.5761293999967165,-38.0
3,njx,f,22,r,2,(-121.76378772032352, -121.76378772032348),26,-5,12,yes,x,5,x,0.789734199999657,1,20,test2,1,0.789937599998666,-50.0
3,njx,f,22,r,2,(172.20000000000002, 0.0),21,-5,12,yes,x,5,x,0.9075173000019277,1,21,test2,1,0.9076186000020243,-50.0
3,njx,f,22,r,2,(172.20000000000002, 0.0),21,25,4,yes,x,5,x,0.6108955000017886,1,22,test2,1,0.6112608000039472,-20.0
3,njx,f,22,r,2,(-172.20000000000002, 2.1088417881317425e-14),25,25,4,no,m,6,m,0.89898489999905,1,23,test2,1,0.8991436999931466,-20.0
3,njx,f,22,r,2,(121.76378772032346, -121.76378772032352),28,-7,13,yes,x,5,x,0.6606411999964621,1,24,test2,1,0.6609926000019186,-52.0
3,njx,f,22,r,2,(1.0544208940658713e-14, 172.20000000000002),23,3,1,yes,x,5,m,0.9760016000000178,0,25,test2,1,0.9761780000044382,-42.0
3,njx,f,22,r,2,(-121.76378772032352, -121.76378772032348),26,7,3,yes,x,5,x,0.9140250999989803,1,26,test2,1,0.9141572000007727,-38.0
3,njx,f,22,r,2,(172.20000000000002, 0.0),21,-7,13,yes,x,5,x,1.000155599998834,1,27,test2,1,1.000258699998085,-52.0
3,njx,f,22,r,2,(172.20000000000002, 0.0),21,-7,13,no,m,6,m,0.7077845000021625,1,28,test2,1,0.708467100004782,-52.0
3,njx,f,22,r,2,(-121.76378772032348, 121.76378772032349),24,-25,14,yes,x,5,x,0.41948340000089956,1,29,test2,1,0.4197180999981356,-70.0
3,njx,f,22,r,2,(121.76378772032349, 121.76378772032349),22,5,2,yes,x,5,x,1.0850607000029413,1,30,test2,1,1.0852883999978076,-40.0
3,njx,f,22,r,2,(-172.20000000000002, 2.1088417881317425e-14),25,-7,13,yes,x,5,x,0.6057967000015196,1,31,test2,1,0.6060366000019712,-52.0
3,njx,f,22,r,2,(-172.20000000000002, 2.1088417881317425e-14),25,7,3,no,m,6,m,0.6040511999963201,1,32,test2,1,0.6041790999952354,-52.0
3,njx,f,22,r,2,(121.76378772032349, 121.76378772032349),22,25,4,no,m,6,m,0.9887453000046662,1,33,test2,1,0.9888470000005327,-52.0
3,njx,f,22,r,2,(-121.76378772032348, 121.76378772032349),24,-7,13,yes,x,5,x,0.6606329000060214,1,34,test2,1,0.6607328000027337,-52.0
3,njx,f,22,r,2,(-3.163262682197613e-14, -172.20000000000002),27,-25,14,yes,x,5,x,0.45856660000572447,1,35,test2,1,0.45903700000053504,-70.0
3,njx,f,22,r,2,(172.20000000000002, 0.0),21,25,4,yes,x,5,x,0.6479666000013822,1,36,test2,1,0.6486272999973153,-20.0
3,njx,f,22,r,2,(121.76378772032349, 121.76378772032349),22,7,3,yes,x,5,x,0.8035732999996981,1,37,test2,1,0.8036734999986948,-38.0
3,njx,f,22,r,2,(121.76378772032349, 121.76378772032349),22,-7,13,no,m,6,m,0.7270726999995532,1,38,test2,1,0.7271954000025289,-38.0
3,njx,f,22,r,2,(172.20000000000002, 0.0),21,5,2,yes,x,5,x,0.8807567000039853,1,39,test2,1,0.8809680999984266,-40.0
3,njx,f,22,r,2,(-3.163262682197613e-14, -172.20000000000002),27,-5,12,yes,x,5,x,0.7096111999999266,1,40,test2,1,0.7097739000018919,-50.0
3,njx,f,22,r,2,(1.0544208940658713e-14, 172.20000000000002),23,25,4,no,m,6,m,1.3336201999991317,1,41,test2,1,1.3340750000061234,-50.0
3,njx,f,22,r,2,(-121.76378772032348, 121.76378772032349),24,-3,11,yes,x,5,m,1.0560552000024472,0,42,test2,1,1.0562212000004365,-48.0
3,njx,f,22,r,2,(121.76378772032349, 121.76378772032349),22,3,1,yes,x,5,None,None,0,43,test2,1,1.9800958999985596,-42.0
3,njx,f,22,r,2,(121.76378772032349, 121.76378772032349),22,25,4,yes,x,5,None,None,0,44,test2,1,1.9801110999978846,-20.0
3,njx,f,22,r,2,(-121.76378772032348, 121.76378772032349),24,-7,13,yes,x,5,x,0.5750894000011613,1,45,test2,1,0.5752833000005921,-52.0
3,njx,f,22,r,2,(-3.163262682197613e-14, -172.20000000000002),27,-5,12,yes,x,5,x,0.7655721000046469,1,46,test2,1,0.7658830000000307,-50.0
3,njx,f,22,r,2,(172.20000000000002, 0.0),21,-25,14,yes,x,5,x,0.5434894999998505,1,47,test2,1,0.543622699995467,-70.0
3,njx,f,22,r,2,(-3.163262682197613e-14, -172.20000000000002),27,3,1,no,m,6,m,0.83855400000175,1,48,test2,1,0.8387905999989016,-70.0
3,njx,f,22,r,2,(-172.20000000000002, 2.1088417881317425e-14),25,3,1,yes,x,5,m,0.5869000000020606,0,49,test2,1,0.5870680999942124,-42.0
3,njx,f,22,r,2,(121.76378772032349, 121.76378772032349),22,5,2,yes,x,5,x,1.099773699999787,1,50,test2,1,1.0999031999963336,-40.0
3,njx,f,22,r,2,(-3.163262682197613e-14, -172.20000000000002),27,7,3,no,m,6,m,0.8406949999989592,1,51,test2,1,0.8410444000037387,-40.0
3,njx,f,22,r,2,(-121.76378772032348, 121.76378772032349),24,-3,11,yes,x,5,x,0.576754699999583,1,52,test2,1,0.5769400999997742,-48.0
3,njx,f,22,r,2,(121.76378772032349, 121.76378772032349),22,-3,11,yes,x,5,x,0.8282824999987497,1,53,test2,1,0.8284468999991077,-48.0
3,njx,f,22,r,2,(172.20000000000002, 0.0),21,3,1,yes,x,5,x,0.6954489999989164,1,54,test2,1,0.6955534000007901,-42.0
3,njx,f,22,r,2,(-172.20000000000002, 2.1088417881317425e-14),25,-25,14,no,m,6,m,0.5869529000046896,1,55,test2,1,0.5871915000025183,-42.0
3,njx,f,22,r,2,(-121.76378772032348, 121.76378772032349),24,25,4,yes,x,5,x,0.6225862999999663,1,56,test2,1,0.6227136000015889,-20.0
3,njx,f,22,r,2,(121.76378772032349, 121.76378772032349),22,-25,14,yes,x,5,x,0.5676849000010407,1,57,test2,1,0.5683866999970633,-70.0
3,njx,f,22,r,2,(121.76378772032346, -121.76378772032352),28,5,2,yes,x,5,x,0.8348624999998719,1,58,test2,1,0.8351387000002433,-40.0
3,njx,f,22,r,2,(-121.76378772032352, -121.76378772032348),26,-7,13,yes,x,5,x,0.5329141000038362,1,59,test2,1,0.5330418000012287,-52.0
3,njx,f,22,r,2,(-172.20000000000002, 2.1088417881317425e-14),25,25,4,yes,x,5,x,0.3844812000024831,1,60,test2,1,0.3847031999976025,-20.0
3,njx,f,22,r,2,(121.76378772032349, 121.76378772032349),22,-5,12,no,m,6,m,0.8057794999986072,1,61,test2,1,0.805979999997362,-20.0
3,njx,f,22,r,2,(121.76378772032346, -121.76378772032352),28,-5,12,no,m,6,m,1.124095799998031,1,62,test2,1,1.1242077000060817,-20.0
3,njx,f,22,r,2,(172.20000000000002, 0.0),21,-5,12,yes,x,5,x,0.5342344000018784,1,63,test2,1,0.5344295999966562,-50.0
3,njx,f,22,r,2,(-121.76378772032352, -121.76378772032348),26,25,4,no,m,6,m,0.8188664999979665,1,64,test2,1,0.8191745000003721,-50.0
3,njx,f,22,r,2,(-121.76378772032352, -121.76378772032348),26,3,1,no,m,6,m,0.6928948000058881,1,65,test2,1,0.6930968999949982,-50.0
3,njx,f,22,r,2,(-121.76378772032352, -121.76378772032348),26,25,4,yes,x,5,x,0.42103060000226833,1,66,test2,1,0.4211367000025348,-20.0
3,njx,f,22,r,2,(-121.76378772032352, -121.76378772032348),26,7,3,yes,x,5,x,0.38238319999800297,1,67,test2,1,0.38276159999804804,-38.0
3,njx,f,22,r,2,(172.20000000000002, 0.0),21,7,3,yes,x,5,x,0.6905505999966408,1,68,test2,1,0.6906687999944552,-38.0
3,njx,f,22,r,2,(-3.163262682197613e-14, -172.20000000000002),27,25,4,yes,x,5,x,0.47273210000275867,1,69,test2,1,0.47292120000201976,-20.0
3,njx,f,22,r,2,(-172.20000000000002, 2.1088417881317425e-14),25,-5,12,yes,x,5,x,0.4328157999989344,1,70,test2,1,0.4329124000068987,-50.0
3,njx,f,22,r,2,(-172.20000000000002, 2.1088417881317425e-14),25,7,3,yes,x,5,x,0.5054982000001473,1,71,test2,1,0.5060102999996161,-38.0
3,njx,f,22,r,2,(121.76378772032346, -121.76378772032352),28,25,4,no,m,6,m,0.6936709000001429,1,72,test2,1,0.6937871000045561,-38.0
3,njx,f,22,r,2,(-3.163262682197613e-14, -172.20000000000002),27,-5,12,no,m,6,m,0.7774468999996316,1,73,test2,1,0.7778551999945194,-38.0
3,njx,f,22,r,2,(121.76378772032346, -121.76378772032352),28,3,1,no,m,6,m,0.556372500002908,1,74,test2,1,0.5565111999967485,-38.0
3,njx,f,22,r,2,(-121.76378772032352, -121.76378772032348),26,5,2,yes,x,5,x,0.5802245999948354,1,75,test2,1,0.5804277999995975,-40.0
3,njx,f,22,r,2,(121.76378772032346, -121.76378772032352),28,5,2,no,m,6,m,0.6025957000019844,1,76,test2,1,0.6028120999981184,-40.0
3,njx,f,22,r,2,(121.76378772032346, -121.76378772032352),28,-3,11,yes,x,5,x,0.8623576999962097,1,77,test2,1,0.8625638000012259,-48.0
3,njx,f,22,r,2,(121.76378772032346, -121.76378772032352),28,7,3,no,m,6,m,0.6559956000055536,1,78,test2,1,0.6562249999988126,-48.0
3,njx,f,22,r,2,(121.76378772032349, 121.76378772032349),22,5,2,no,m,6,m,0.6717275000046357,1,79,test2,1,0.6719617999988259,-48.0
3,njx,f,22,r,2,(-121.76378772032348, 121.76378772032349),24,3,1,yes,x,5,m,0.6256320000029518,0,80,test2,1,0.6257675999950152,-42.0
3,njx,f,22,r,2,(121.76378772032349, 121.76378772032349),22,7,3,yes,x,5,x,0.6348374999943189,1,81,test2,1,0.6349352999968687,-38.0
3,njx,f,22,r,2,(121.76378772032346, -121.76378772032352),28,3,1,yes,x,5,m,1.151315800001612,0,82,test2,1,1.1519072000010055,-42.0
3,njx,f,22,r,2,(121.76378772032346, -121.76378772032352),28,-5,12,yes,x,5,x,0.7647387999968487,1,83,test2,1,0.7648893000005046,-50.0
3,njx,f,22,r,2,(-172.20000000000002, 2.1088417881317425e-14),25,-5,12,yes,x,5,x,0.6895884999976261,1,84,test2,1,0.689837300000363,-50.0
3,njx,f,22,r,2,(172.20000000000002, 0.0),21,-25,14,yes,x,5,x,0.4585856999983662,1,85,test2,1,0.4587370000008377,-70.0
3,njx,f,22,r,2,(-3.163262682197613e-14, -172.20000000000002),27,5,2,yes,x,5,x,0.5367897999967681,1,86,test2,1,0.5369147000019439,-40.0
3,njx,f,22,r,2,(121.76378772032349, 121.76378772032349),22,-3,11,yes,x,5,x,0.5963868000035291,1,87,test2,1,0.5968779000031645,-48.0
3,njx,f,22,r,2,(172.20000000000002, 0.0),21,-3,11,yes,x,5,m,0.955638799998269,0,88,test2,1,0.9558015000002342,-48.0
3,njx,f,22,r,2,(-121.76378772032352, -121.76378772032348),26,5,2,yes,x,5,x,0.6749219999983325,1,89,test2,1,0.6750410999957239,-40.0
3,njx,f,22,r,2,(1.0544208940658713e-14, 172.20000000000002),23,-5,12,yes,x,5,x,0.541722200003278,1,90,test2,1,0.5419832999978098,-50.0
3,njx,f,22,r,2,(121.76378772032346, -121.76378772032352),28,25,4,yes,x,5,x,0.6421746999985771,1,91,test2,1,0.6425097999963327,-20.0
3,njx,f,22,r,2,(172.20000000000002, 0.0),21,3,1,no,m,6,m,0.9603830999985803,1,92,test2,1,0.960737399997015,-20.0
3,njx,f,22,r,2,(-3.163262682197613e-14, -172.20000000000002),27,3,1,yes,x,5,x,0.7647039000003133,1,93,test2,1,0.7648071000003256,-42.0
3,njx,f,22,r,2,(-121.76378772032348, 121.76378772032349),24,3,1,no,m,6,m,0.6309857000014745,1,94,test2,1,0.6312307999978657,-42.0
3,njx,f,22,r,2,(-121.76378772032352, -121.76378772032348),26,-3,11,yes,x,5,m,0.8408726999987266,0,95,test2,1,0.8410445000045002,-48.0
3,njx,f,22,r,2,(172.20000000000002, 0.0),21,-7,13,yes,x,5,x,0.536451499996474,1,96,test2,1,0.5365854999981821,-52.0
3,njx,f,22,r,2,(-121.76378772032348, 121.76378772032349),24,-25,14,no,m,6,m,0.7270149999967543,1,1,test1,2,0.7272490999966976,-52.0
3,njx,f,22,r,2,(172.20000000000002, 0.0),21,25,4,no,m,6,m,1.0182781999974395,1,2,test1,2,1.0185179999971297,-52.0
3,njx,f,22,r,2,(-172.20000000000002, 2.1088417881317425e-14),25,5,2,no,m,6,m,0.9869144000040251,1,3,test1,2,0.9871328000008361,-52.0
3,njx,f,22,r,2,(-121.76378772032352, -121.76378772032348),26,-25,14,yes,x,5,x,0.5131380000020727,1,4,test1,2,0.5135940000036499,-70.0
3,njx,f,22,r,2,(-172.20000000000002, 2.1088417881317425e-14),25,5,2,yes,x,5,x,0.796717000004719,1,5,test1,2,0.7969461999964551,-40.0
3,njx,f,22,r,2,(-121.76378772032348, 121.76378772032349),24,5,2,no,m,6,m,0.5783827999985078,1,6,test1,2,0.5784891999937827,-40.0
3,njx,f,22,r,2,(121.76378772032346, -121.76378772032352),28,-3,11,yes,x,5,m,0.6811362000007648,0,7,test1,2,0.681755499994324,-48.0
3,njx,f,22,r,2,(-121.76378772032352, -121.76378772032348),26,-5,12,yes,x,5,m,0.6031957999948645,0,8,test1,2,0.6033110999997007,-50.0
3,njx,f,22,r,2,(-172.20000000000002, 2.1088417881317425e-14),25,-7,13,yes,x,5,x,0.44194160000188276,1,9,test1,2,0.4420724000010523,-52.0
3,njx,f,22,r,2,(172.20000000000002, 0.0),21,7,3,no,m,6,m,0.6917828000005102,1,10,test1,2,0.6920570000002044,-52.0
3,njx,f,22,r,2,(-3.163262682197613e-14, -172.20000000000002),27,5,2,yes,x,5,x,0.9220843000002787,1,11,test1,2,0.9221928999977536,-40.0
3,njx,f,22,r,2,(-121.76378772032348, 121.76378772032349),24,-25,14,yes,x,5,x,0.5523694000003161,1,12,test1,2,0.5525813999993261,-70.0
3,njx,f,22,r,2,(-3.163262682197613e-14, -172.20000000000002),27,3,1,yes,x,5,x,0.7654324999966775,1,13,test1,2,0.7655365999962669,-42.0
3,njx,f,22,r,2,(121.76378772032349, 121.76378772032349),22,-25,14,no,m,6,m,0.7939866000015172,1,14,test1,2,0.794348399998853,-42.0
3,njx,f,22,r,2,(-3.163262682197613e-14, -172.20000000000002),27,-7,13,no,m,6,m,1.0768152000018745,1,15,test1,2,1.0769167999969795,-42.0
3,njx,f,22,r,2,(172.20000000000002, 0.0),21,3,1,yes,x,5,m,0.6370153999960166,0,16,test1,2,0.6371400999996695,-42.0
3,njx,f,22,r,2,(121.76378772032346, -121.76378772032352),28,5,2,yes,x,5,x,0.8668096000037622,1,17,test1,2,0.8670373999993899,-40.0
3,njx,f,22,r,2,(-121.76378772032352, -121.76378772032348),26,-7,13,no,m,6,m,0.6315023999995901,1,18,test1,2,0.6321506000022055,-40.0
3,njx,f,22,r,2,(-121.76378772032352, -121.76378772032348),26,-25,14,yes,x,5,x,0.7191648000007262,1,19,test1,2,0.7192775000003166,-70.0
3,njx,f,22,r,2,(-172.20000000000002, 2.1088417881317425e-14),25,-25,14,yes,x,5,x,0.6573773999989498,1,20,test1,2,0.657667900006345,-70.0
3,njx,f,22,r,2,(-3.163262682197613e-14, -172.20000000000002),27,-3,11,yes,x,5,m,0.5301595999990241,0,21,test1,2,0.5302546000020811,-48.0
3,njx,f,22,r,2,(-172.20000000000002, 2.1088417881317425e-14),25,25,4,yes,x,5,x,0.4976094000012381,1,22,test1,2,0.4977292000039597,-20.0
3,njx,f,22,r,2,(-121.76378772032348, 121.76378772032349),24,25,4,no,m,6,m,0.6580599000008078,1,23,test1,2,0.6581901999961701,-20.0
3,njx,f,22,r,2,(121.76378772032349, 121.76378772032349),22,3,1,yes,x,5,m,0.5619965000005323,0,24,test1,2,0.5620983000044362,-42.0
3,njx,f,22,r,2,(121.76378772032349, 121.76378772032349),22,-25,14,yes,x,5,x,0.5780844000037177,1,25,test1,2,0.5782932999936747,-70.0
3,njx,f,22,r,2,(1.0544208940658713e-14, 172.20000000000002),23,5,2,yes,x,5,x,0.796501900003932,1,26,test1,2,0.7967153999998118,-40.0
3,njx,f,22,r,2,(-121.76378772032348, 121.76378772032349),24,7,3,yes,x,5,x,0.6760089000017615,1,27,test1,2,0.6769208000041544,-38.0
3,njx,f,22,r,2,(121.76378772032349, 121.76378772032349),22,25,4,yes,x,5,x,0.6483500999966054,1,28,test1,2,0.6484511999951792,-20.0
3,njx,f,22,r,2,(1.0544208940658713e-14, 172.20000000000002),23,-7,13,yes,x,5,x,0.7100926999992225,1,29,test1,2,0.7103139000028023,-52.0
3,njx,f,22,r,2,(1.0544208940658713e-14, 172.20000000000002),23,7,3,no,m,6,m,0.6001518000048236,1,30,test1,2,0.6002500000031432,-52.0
3,njx,f,22,r,2,(1.0544208940658713e-14, 172.20000000000002),23,5,2,no,m,6,m,0.718282800000452,1,31,test1,2,0.7184661999999662,-52.0
3,njx,f,22,r,2,(-121.76378772032352, -121.76378772032348),26,3,1,yes,x,5,m,0.6716935000004014,0,32,test1,2,0.6717964999988908,-42.0
3,njx,f,22,r,2,(1.0544208940658713e-14, 172.20000000000002),23,-25,14,no,m,6,m,0.6537750999996206,1,33,test1,2,0.6541672999956063,-42.0
3,njx,f,22,r,2,(-172.20000000000002, 2.1088417881317425e-14),25,-3,11,yes,x,5,m,0.5955944000015734,0,34,test1,2,0.5958298000041395,-48.0
3,njx,f,22,r,2,(-121.76378772032352, -121.76378772032348),26,-3,11,yes,x,5,m,0.7846284000042942,0,35,test1,2,0.7848004999978002,-48.0
3,njx,f,22,r,2,(121.76378772032349, 121.76378772032349),22,-5,12,yes,x,5,x,0.7318681999968248,1,36,test1,2,0.7319663999951445,-50.0
3,njx,f,22,r,2,(121.76378772032349, 121.76378772032349),22,-3,11,no,m,6,m,1.0298108999995748,1,37,test1,2,1.0303671000001486,-50.0
3,njx,f,22,r,2,(1.0544208940658713e-14, 172.20000000000002),23,-7,13,yes,x,5,x,0.5500172999963979,1,38,test1,2,0.5504708999942522,-52.0
3,njx,f,22,r,2,(-121.76378772032352, -121.76378772032348),26,5,2,no,m,6,m,0.8781761999998707,1,39,test1,2,0.8784124000012525,-52.0
3,njx,f,22,r,2,(172.20000000000002, 0.0),21,-5,12,no,m,6,m,0.5986738999999943,1,40,test1,2,0.5988078000009409,-52.0
3,njx,f,22,r,2,(121.76378772032346, -121.76378772032352),28,-25,14,yes,x,5,x,0.539760200001183,1,41,test1,2,0.5400931000040146,-70.0
3,njx,f,22,r,2,(-172.20000000000002, 2.1088417881317425e-14),25,7,3,yes,x,5,x,0.6005584000013187,1,42,test1,2,0.6009055000031367,-38.0
3,njx,f,22,r,2,(121.76378772032346, -121.76378772032352),28,-5,12,yes,x,5,x,0.7596528000067337,1,43,test1,2,0.7599440999983926,-50.0
3,njx,f,22,r,2,(-121.76378772032348, 121.76378772032349),24,-5,12,yes,x,5,x,0.7224854000014602,1,44,test1,2,0.7226053999984288,-50.0
3,njx,f,22,r,2,(121.76378772032346, -121.76378772032352),28,-25,14,no,m,6,m,0.8298810999986017,1,45,test1,2,0.8300920999972732,-50.0
3,njx,f,22,r,2,(172.20000000000002, 0.0),21,5,2,yes,x,5,x,1.002304699999513,1,46,test1,2,1.0029762999984086,-40.0
3,njx,f,22,r,2,(-121.76378772032352, -121.76378772032348),26,7,3,no,m,6,m,0.9034881000043242,1,47,test1,2,0.9038633999953163,-40.0
3,njx,f,22,r,2,(-121.76378772032352, -121.76378772032348),26,25,4,yes,x,5,x,0.43964109999797074,1,48,test1,2,0.440170499998203,-20.0
3,njx,f,22,r,2,(-3.163262682197613e-14, -172.20000000000002),27,25,4,no,m,6,m,0.5791029999963939,1,49,test1,2,0.5793888000043808,-20.0
3,njx,f,22,r,2,(1.0544208940658713e-14, 172.20000000000002),23,3,1,no,m,6,m,0.6313350000054925,1,50,test1,2,0.6319260000018403,-20.0
3,njx,f,22,r,2,(1.0544208940658713e-14, 172.20000000000002),23,-25,14,yes,x,5,x,0.5538660000020172,1,51,test1,2,0.5542314999984228,-70.0
3,njx,f,22,r,2,(-3.163262682197613e-14, -172.20000000000002),27,-7,13,yes,x,5,x,0.6371016999983112,1,52,test1,2,0.6373801000008825,-52.0
3,njx,f,22,r,2,(-172.20000000000002, 2.1088417881317425e-14),25,-3,11,no,m,6,m,0.6704936999958591,1,53,test1,2,0.6709489000058966,-52.0
3,njx,f,22,r,2,(1.0544208940658713e-14, 172.20000000000002),23,7,3,yes,x,5,x,0.4442284999968251,1,54,test1,2,0.444840900003328,-38.0
3,njx,f,22,r,2,(121.76378772032346, -121.76378772032352),28,7,3,yes,x,5,x,1.2405356999952346,1,55,test1,2,1.2407949000044027,-38.0
3,njx,f,22,r,2,(121.76378772032346, -121.76378772032352),28,-7,13,no,m,6,m,0.6999834999951418,1,56,test1,2,0.700159200001508,-38.0
3,njx,f,22,r,2,(-121.76378772032352, -121.76378772032348),26,-7,13,yes,x,5,x,0.6503895000059856,1,57,test1,2,0.6504913999960991,-52.0
3,njx,f,22,r,2,(-121.76378772032348, 121.76378772032349),24,25,4,yes,x,5,x,0.5218741999997292,1,58,test1,2,0.5219928000005893,-20.0
3,njx,f,22,r,2,(121.76378772032349, 121.76378772032349),22,-5,12,yes,x,5,m,0.602113199995074,0,59,test1,2,0.6026048999992781,-50.0
3,njx,f,22,r,2,(-3.163262682197613e-14, -172.20000000000002),27,7,3,yes,x,5,x,0.6335089999993215,1,60,test1,2,0.6337932999958866,-38.0
3,njx,f,22,r,2,(1.0544208940658713e-14, 172.20000000000002),23,7,3,yes,x,5,x,0.4734937000030186,1,61,test1,2,0.4736866999955964,-38.0
3,njx,f,22,r,2,(-121.76378772032352, -121.76378772032348),26,-25,14,no,m,6,m,0.6276097000009031,1,62,test1,2,0.6278786000038963,-38.0
3,njx,f,22,r,2,(121.76378772032349, 121.76378772032349),22,-7,13,yes,x,5,x,0.6169241999959922,1,63,test1,2,0.6171696999954293,-52.0
3,njx,f,22,r,2,(121.76378772032346, -121.76378772032352),28,3,1,yes,x,5,m,1.0674342999991495,0,64,test1,2,1.067817200004356,-42.0
3,njx,f,22,r,2,(-121.76378772032348, 121.76378772032349),24,-5,12,yes,x,5,m,0.8580614999955287,0,65,test1,2,0.8583207999981823,-50.0
3,njx,f,22,r,2,(-172.20000000000002, 2.1088417881317425e-14),25,5,2,yes,x,5,x,1.016607199999271,1,66,test1,2,1.0169027000010828,-40.0
3,njx,f,22,r,2,(121.76378772032346, -121.76378772032352),28,-3,11,no,m,6,m,0.6507462000008672,1,67,test1,2,0.6508700999984285,-40.0
3,njx,f,22,r,2,(121.76378772032349, 121.76378772032349),22,-7,13,yes,x,5,x,0.6723436999964179,1,68,test1,2,0.6725132000065059,-52.0
3,njx,f,22,r,2,(-3.163262682197613e-14, -172.20000000000002),27,25,4,yes,x,5,x,1.0595943000007537,1,69,test1,2,1.059698600001866,-20.0
3,njx,f,22,r,2,(-172.20000000000002, 2.1088417881317425e-14),25,3,1,no,m,6,m,1.037821799996891,1,70,test1,2,1.037917900001048,-20.0
3,njx,f,22,r,2,(1.0544208940658713e-14, 172.20000000000002),23,5,2,yes,x,5,x,0.558196300000418,1,71,test1,2,0.558402800001204,-40.0
3,njx,f,22,r,2,(172.20000000000002, 0.0),21,-3,11,yes,x,5,m,0.6778288999994402,0,72,test1,2,0.677930899997591,-48.0
3,njx,f,22,r,2,(-3.163262682197613e-14, -172.20000000000002),27,7,3,yes,x,5,x,0.47155589999601943,1,73,test1,2,0.4717330999992555,-38.0
3,njx,f,22,r,2,(-121.76378772032348, 121.76378772032349),24,-3,11,no,m,6,m,0.6222351000033086,1,74,test1,2,0.6223610000015469,-38.0
3,njx,f,22,r,2,(1.0544208940658713e-14, 172.20000000000002),23,25,4,yes,x,5,x,0.5366756000003079,1,75,test1,2,0.5369003000014345,-20.0
3,njx,f,22,r,2,(-3.163262682197613e-14, -172.20000000000002),27,-25,14,no,m,6,m,0.6805846999995993,1,76,test1,2,0.6808174000034342,-20.0
3,njx,f,22,r,2,(-121.76378772032348, 121.76378772032349),24,-5,12,no,m,6,m,0.674340099998517,1,77,test1,2,0.6745735000004061,-20.0
3,njx,f,22,r,2,(121.76378772032346, -121.76378772032352),28,-7,13,yes,x,5,x,0.6355570999949123,1,78,test1,2,0.6356607999987318,-52.0
3,njx,f,22,r,2,(-172.20000000000002, 2.1088417881317425e-14),25,-25,14,yes,x,5,x,0.5999456999998074,1,79,test1,2,0.6003423999936786,-70.0
3,njx,f,22,r,2,(-121.76378772032348, 121.76378772032349),24,7,3,yes,x,5,x,0.6913411000059568,1,80,test1,2,0.6915735000002314,-38.0
3,njx,f,22,r,2,(1.0544208940658713e-14, 172.20000000000002),23,-7,13,no,m,6,m,0.6860633999967831,1,81,test1,2,0.6861690000005183,-38.0
3,njx,f,22,r,2,(-121.76378772032352, -121.76378772032348),26,-3,11,no,m,6,m,1.0209048000033363,1,82,test1,2,1.0210015999982716,-38.0
3,njx,f,22,r,2,(172.20000000000002, 0.0),21,-25,14,no,m,6,m,0.8197261000022991,1,83,test1,2,0.8199674999996205,-38.0
3,njx,f,22,r,2,(1.0544208940658713e-14, 172.20000000000002),23,3,1,yes,x,5,m,0.7565737999975681,0,84,test1,2,0.7568842999971821,-42.0
3,njx,f,22,r,2,(-172.20000000000002, 2.1088417881317425e-14),25,-3,11,yes,x,5,m,0.6601511000044411,0,85,test1,2,0.660448800001177,-48.0
3,njx,f,22,r,2,(121.76378772032349, 121.76378772032349),22,3,1,no,m,6,m,0.7362057999998797,1,86,test1,2,0.7364349999988917,-48.0
3,njx,f,22,r,2,(1.0544208940658713e-14, 172.20000000000002),23,-5,12,yes,x,5,x,0.5225146000011591,1,87,test1,2,0.5231190000049537,-50.0
3,njx,f,22,r,2,(1.0544208940658713e-14, 172.20000000000002),23,-3,11,no,m,6,m,0.5918414000043413,1,88,test1,2,0.5920628999956534,-50.0
3,njx,f,22,r,2,(1.0544208940658713e-14, 172.20000000000002),23,-3,11,yes,x,5,x,0.6088452999974834,1,89,test1,2,0.6092349000027752,-48.0
3,njx,f,22,r,2,(-172.20000000000002, 2.1088417881317425e-14),25,-5,12,no,m,6,m,0.6878080999958911,1,90,test1,2,0.6880547999971895,-48.0
3,njx,f,22,r,2,(-121.76378772032348, 121.76378772032349),24,7,3,no,m,6,m,0.8234583000012208,1,91,test1,2,0.8236725999959162,-48.0
3,njx,f,22,r,2,(172.20000000000002, 0.0),21,-3,11,no,m,6,m,0.5662756000019726,1,92,test1,2,0.5663746999998693,-48.0
3,njx,f,22,r,2,(-3.163262682197613e-14, -172.20000000000002),27,-25,14,yes,x,5,x,0.49776980000024196,1,93,test1,2,0.4981430999978329,-70.0
3,njx,f,22,r,2,(-172.20000000000002, 2.1088417881317425e-14),25,3,1,yes,x,5,m,0.5792497000002186,0,94,test1,2,0.5793518999998923,-42.0
3,njx,f,22,r,2,(121.76378772032346, -121.76378772032352),28,7,3,yes,x,5,x,0.5791411999962293,1,95,test1,2,0.5793618000025162,-38.0
3,njx,f,22,r,2,(-121.76378772032352, -121.76378772032348),26,3,1,yes,x,5,m,0.7927052000013646,0,96,test1,2,0.7928055999946082,-42.0
3,njx,f,22,r,2,(-121.76378772032348, 121.76378772032349),24,5,2,yes,x,5,x,0.5661873999997624,1,1,test2,2,0.566758299995854,-40.0
3,njx,f,22,r,2,(-121.76378772032348, 121.76378772032349),24,-7,13,no,m,6,m,0.638171999999031,1,2,test2,2,0.6385207999992417,-40.0
3,njx,f,22,r,2,(121.76378772032346, -121.76378772032352),28,25,4,yes,x,5,x,0.6053009999959613,1,3,test2,2,0.6056676999942283,-20.0
3,njx,f,22,r,2,(-3.163262682197613e-14, -172.20000000000002),27,-3,11,no,m,6,m,0.5773626000009244,1,4,test2,2,0.5774638000002597,-20.0
3,njx,f,22,r,2,(-3.163262682197613e-14, -172.20000000000002),27,-7,13,yes,x,5,x,0.5169737999967765,1,5,test2,2,0.5172127000041655,-52.0
3,njx,f,22,r,2,(1.0544208940658713e-14, 172.20000000000002),23,-25,14,yes,x,5,x,0.5844554999930551,1,6,test2,2,0.5845965000044089,-70.0
3,njx,f,22,r,2,(-172.20000000000002, 2.1088417881317425e-14),25,-7,13,no,m,6,x,0.643882799995481,0,7,test2,2,0.6440046000061557,-70.0
3,njx,f,22,r,2,(-121.76378772032348, 121.76378772032349),24,3,1,yes,x,5,x,0.5200762000022223,1,8,test2,2,0.5202202000000398,-42.0
3,njx,f,22,r,2,(1.0544208940658713e-14, 172.20000000000002),23,-5,12,no,m,6,m,0.8701502999974764,1,9,test2,2,0.870271200001298,-42.0
3,njx,f,22,r,2,(-3.163262682197613e-14, -172.20000000000002),27,-3,11,yes,x,5,x,1.2581726999997045,1,10,test2,2,1.2582809000014095,-48.0
3,njx,f,22,r,2,(172.20000000000002, 0.0),21,5,2,no,m,6,m,0.7837372000067262,1,11,test2,2,0.7839561000000685,-48.0
3,njx,f,22,r,2,(-121.76378772032352, -121.76378772032348),26,-5,12,no,m,6,m,0.8265410999956657,1,12,test2,2,0.8266703999979654,-48.0
3,njx,f,22,r,2,(-121.76378772032348, 121.76378772032349),24,5,2,yes,x,5,x,0.7894379999997909,1,13,test2,2,0.7903024999977788,-40.0
3,njx,f,22,r,2,(1.0544208940658713e-14, 172.20000000000002),23,-3,11,yes,x,5,m,0.685975899999903,0,14,test2,2,0.6864394000003813,-48.0
3,njx,f,22,r,2,(121.76378772032349, 121.76378772032349),22,7,3,no,m,6,m,0.9200606999947922,1,15,test2,2,0.9204079999981332,-48.0
3,njx,f,22,r,2,(121.76378772032346, -121.76378772032352),28,-25,14,yes,x,5,x,0.508155399998941,1,16,test2,2,0.5083841999949072,-70.0
3,njx,f,22,r,2,(1.0544208940658713e-14, 172.20000000000002),23,25,4,yes,x,5,x,0.39973460000328487,1,17,test2,2,0.3999742000014521,-20.0
3,njx,f,22,r,2,(-3.163262682197613e-14, -172.20000000000002),27,5,2,no,m,6,m,1.026724600000307,1,18,test2,2,1.0270627000063541,-20.0
3,njx,f,22,r,2,(172.20000000000002, 0.0),21,7,3,yes,x,5,x,0.6161779000030947,1,19,test2,2,0.6162936999971862,-38.0
3,njx,f,22,r,2,(-121.76378772032352, -121.76378772032348),26,-5,12,yes,x,5,x,1.003535900003044,1,20,test2,2,1.0037306000012904,-50.0
3,njx,f,22,r,2,(172.20000000000002, 0.0),21,-5,12,yes,x,5,x,0.7595603999943705,1,21,test2,2,0.760257999994792,-50.0
3,njx,f,22,r,2,(172.20000000000002, 0.0),21,25,4,yes,x,5,x,0.4544199000010849,1,22,test2,2,0.45472419999714475,-20.0
3,njx,f,22,r,2,(-172.20000000000002, 2.1088417881317425e-14),25,25,4,no,m,6,m,0.7217184999972233,1,23,test2,2,0.7219334999972489,-20.0
3,njx,f,22,r,2,(121.76378772032346, -121.76378772032352),28,-7,13,yes,x,5,x,0.5114338999992469,1,24,test2,2,0.5117960999996285,-52.0
3,njx,f,22,r,2,(1.0544208940658713e-14, 172.20000000000002),23,3,1,yes,x,5,m,1.1114611000011791,0,25,test2,2,1.1121245000031195,-42.0
3,njx,f,22,r,2,(-121.76378772032352, -121.76378772032348),26,7,3,yes,x,5,x,0.48463129999436205,1,26,test2,2,0.48486500000581145,-38.0
3,njx,f,22,r,2,(172.20000000000002, 0.0),21,-7,13,yes,x,5,x,0.6519019000043045,1,27,test2,2,0.6520681000038167,-52.0
3,njx,f,22,r,2,(172.20000000000002, 0.0),21,-7,13,no,m,6,m,0.6700984999988577,1,28,test2,2,0.6702149000047939,-52.0
3,njx,f,22,r,2,(-121.76378772032348, 121.76378772032349),24,-25,14,yes,x,5,x,0.48527840000315337,1,29,test2,2,0.4858840000015334,-70.0
3,njx,f,22,r,2,(121.76378772032349, 121.76378772032349),22,5,2,yes,x,5,x,0.9428046999964863,1,30,test2,2,0.9431217999954242,-40.0
3,njx,f,22,r,2,(-172.20000000000002, 2.1088417881317425e-14),25,-7,13,yes,x,5,x,0.5164759999970556,1,31,test2,2,0.5168256999968435,-52.0
3,njx,f,22,r,2,(-172.20000000000002, 2.1088417881317425e-14),25,7,3,no,m,6,m,0.6191642999983742,1,32,test2,2,0.619267400004901,-52.0
3,njx,f,22,r,2,(121.76378772032349, 121.76378772032349),22,25,4,no,m,6,m,0.9024475000042003,1,33,test2,2,0.9027483000027132,-52.0
3,njx,f,22,r,2,(-121.76378772032348, 121.76378772032349),24,-7,13,yes,x,5,x,0.7516329000063706,1,34,test2,2,0.7518744000044535,-52.0
3,njx,f,22,r,2,(-3.163262682197613e-14, -172.20000000000002),27,-25,14,yes,x,5,x,0.5696052999992389,1,35,test2,2,0.5698947999990196,-70.0
3,njx,f,22,r,2,(172.20000000000002, 0.0),21,25,4,yes,x,5,x,0.5687039000040386,1,36,test2,2,0.5690424999993411,-20.0
3,njx,f,22,r,2,(121.76378772032349, 121.76378772032349),22,7,3,yes,x,5,x,0.6246764999959851,1,37,test2,2,0.6250867999988259,-38.0
3,njx,f,22,r,2,(121.76378772032349, 121.76378772032349),22,-7,13,no,m,6,m,0.7684421999947517,1,38,test2,2,0.7685545999993337,-38.0
3,njx,f,22,r,2,(172.20000000000002, 0.0),21,5,2,yes,x,5,x,0.5446326000019326,1,39,test2,2,0.5449252000034903,-40.0
3,njx,f,22,r,2,(-3.163262682197613e-14, -172.20000000000002),27,-5,12,yes,x,5,x,0.5239767000020947,1,40,test2,2,0.524234799995611,-50.0
3,njx,f,22,r,2,(1.0544208940658713e-14, 172.20000000000002),23,25,4,no,m,6,m,0.9062025000021094,1,41,test2,2,0.90634190000128,-50.0
3,njx,f,22,r,2,(-121.76378772032348, 121.76378772032349),24,-3,11,yes,x,5,m,0.7811603999944055,0,42,test2,2,0.7815231999993557,-48.0
3,njx,f,22,r,2,(121.76378772032349, 121.76378772032349),22,3,1,yes,x,5,m,0.6559419999975944,0,43,test2,2,0.6566285000008065,-42.0
3,njx,f,22,r,2,(121.76378772032349, 121.76378772032349),22,25,4,yes,x,5,x,0.47876089999772375,1,44,test2,2,0.4789654000051087,-20.0
3,njx,f,22,r,2,(-121.76378772032348, 121.76378772032349),24,-7,13,yes,x,5,x,0.5017412000015611,1,45,test2,2,0.5018705000038608,-52.0
3,njx,f,22,r,2,(-3.163262682197613e-14, -172.20000000000002),27,-5,12,yes,x,5,x,0.8703481000047759,1,46,test2,2,0.8704491999960737,-50.0
3,njx,f,22,r,2,(172.20000000000002, 0.0),21,-25,14,yes,x,5,x,0.4504311999990023,1,47,test2,2,0.4506111000009696,-70.0
3,njx,f,22,r,2,(-3.163262682197613e-14, -172.20000000000002),27,3,1,no,m,6,m,0.7454930000021704,1,48,test2,2,0.7459092999997665,-70.0
3,njx,f,22,r,2,(-172.20000000000002, 2.1088417881317425e-14),25,3,1,yes,x,5,m,0.7025601999994251,0,49,test2,2,0.7026658999966457,-42.0
3,njx,f,22,r,2,(121.76378772032349, 121.76378772032349),22,5,2,yes,x,5,m,0.9235287999981665,0,50,test2,2,0.9237876999977743,-40.0
3,njx,f,22,r,2,(-3.163262682197613e-14, -172.20000000000002),27,7,3,no,m,6,m,1.2302654999948572,1,51,test2,2,1.230419500003336,-40.0
3,njx,f,22,r,2,(-121.76378772032348, 121.76378772032349),24,-3,11,yes,x,5,m,0.8989137999960803,0,52,test2,2,0.8990186999944854,-48.0
3,njx,f,22,r,2,(121.76378772032349, 121.76378772032349),22,-3,11,yes,x,5,x,0.800985200003197,1,53,test2,2,0.8012063999995007,-48.0
3,njx,f,22,r,2,(172.20000000000002, 0.0),21,3,1,yes,x,5,m,1.0614977000004728,0,54,test2,2,1.0617099000010057,-42.0
3,njx,f,22,r,2,(-172.20000000000002, 2.1088417881317425e-14),25,-25,14,no,m,6,m,1.1745529000036186,1,55,test2,2,1.1746532999968622,-42.0
3,njx,f,22,r,2,(-121.76378772032348, 121.76378772032349),24,25,4,yes,x,5,x,0.42388260000006994,1,56,test2,2,0.42398490000050515,-20.0
3,njx,f,22,r,2,(121.76378772032349, 121.76378772032349),22,-25,14,yes,x,5,x,0.41805659999954514,1,57,test2,2,0.4182234999971115,-70.0
3,njx,f,22,r,2,(121.76378772032346, -121.76378772032352),28,5,2,yes,x,5,x,0.5912932999999612,1,58,test2,2,0.591407200001413,-40.0
3,njx,f,22,r,2,(-121.76378772032352, -121.76378772032348),26,-7,13,yes,x,5,x,0.5075437999985297,1,59,test2,2,0.5077850999950897,-52.0
3,njx,f,22,r,2,(-172.20000000000002, 2.1088417881317425e-14),25,25,4,yes,x,5,x,0.6061138000004576,1,60,test2,2,0.6063280000016675,-20.0
3,njx,f,22,r,2,(121.76378772032349, 121.76378772032349),22,-5,12,no,m,6,m,0.965392600002815,1,61,test2,2,0.9656917000029352,-20.0
3,njx,f,22,r,2,(121.76378772032346, -121.76378772032352),28,-5,12,no,m,6,m,0.7254122999947867,1,62,test2,2,0.7257422999973642,-20.0
3,njx,f,22,r,2,(172.20000000000002, 0.0),21,-5,12,yes,x,5,x,0.7783866999961901,1,63,test2,2,0.7787674999999581,-50.0
3,njx,f,22,r,2,(-121.76378772032352, -121.76378772032348),26,25,4,no,m,6,m,0.68521559999499,1,64,test2,2,0.6854753000006895,-50.0
3,njx,f,22,r,2,(-121.76378772032352, -121.76378772032348),26,3,1,no,m,6,m,0.6770671000049333,1,65,test2,2,0.6773021000044537,-50.0
3,njx,f,22,r,2,(-121.76378772032352, -121.76378772032348),26,25,4,yes,x,5,x,0.46697429999767337,1,66,test2,2,0.4671658000006573,-20.0
3,njx,f,22,r,2,(-121.76378772032352, -121.76378772032348),26,7,3,yes,x,5,x,0.4886476000028779,1,67,test2,2,0.4890233999976772,-38.0
3,njx,f,22,r,2,(172.20000000000002, 0.0),21,7,3,yes,x,5,x,0.607777500001248,1,68,test2,2,0.608025199995609,-38.0
3,njx,f,22,r,2,(-3.163262682197613e-14, -172.20000000000002),27,25,4,yes,x,5,x,0.4592432999997982,1,69,test2,2,0.4593466000005719,-20.0
3,njx,f,22,r,2,(-172.20000000000002, 2.1088417881317425e-14),25,-5,12,yes,x,5,x,0.790843999995559,1,70,test2,2,0.7909755000000587,-50.0
3,njx,f,22,r,2,(-172.20000000000002, 2.1088417881317425e-14),25,7,3,yes,x,5,x,0.43917579999833833,1,71,test2,2,0.4393006000027526,-38.0
3,njx,f,22,r,2,(121.76378772032346, -121.76378772032352),28,25,4,no,m,6,m,1.2327990000048885,1,72,test2,2,1.2329037000017706,-38.0
3,njx,f,22,r,2,(-3.163262682197613e-14, -172.20000000000002),27,-5,12,no,m,6,m,1.386699700000463,1,73,test2,2,1.387016599997878,-38.0
3,njx,f,22,r,2,(121.76378772032346, -121.76378772032352),28,3,1,no,m,6,m,0.8525607000046875,1,74,test2,2,0.8526839999976801,-38.0
3,njx,f,22,r,2,(-121.76378772032352, -121.76378772032348),26,5,2,yes,x,5,x,0.7882156999985455,1,75,test2,2,0.7885206999999355,-40.0
3,njx,f,22,r,2,(121.76378772032346, -121.76378772032352),28,5,2,no,m,6,m,1.2162104999952135,1,76,test2,2,1.2164571000030264,-40.0
3,njx,f,22,r,2,(121.76378772032346, -121.76378772032352),28,-3,11,yes,x,5,m,0.8781330999991042,0,77,test2,2,0.8782331000038539,-48.0
3,njx,f,22,r,2,(121.76378772032346, -121.76378772032352),28,7,3,no,m,6,m,0.6060335000001942,1,78,test2,2,0.6066385000012815,-48.0
3,njx,f,22,r,2,(121.76378772032349, 121.76378772032349),22,5,2,no,m,6,m,0.6894556999977794,1,79,test2,2,0.6898407999979099,-48.0
3,njx,f,22,r,2,(-121.76378772032348, 121.76378772032349),24,3,1,yes,x,5,x,0.5021236000029603,1,80,test2,2,0.5022623999975622,-42.0
3,njx,f,22,r,2,(121.76378772032349, 121.76378772032349),22,7,3,yes,x,5,x,0.7676224999959231,1,81,test2,2,0.7678572999939206,-38.0
3,njx,f,22,r,2,(121.76378772032346, -121.76378772032352),28,3,1,yes,x,5,m,0.7931327999976929,0,82,test2,2,0.7932343000065885,-42.0
3,njx,f,22,r,2,(121.76378772032346, -121.76378772032352),28,-5,12,yes,x,5,x,0.6175504999991972,1,83,test2,2,0.6176532000026782,-50.0
3,njx,f,22,r,2,(-172.20000000000002, 2.1088417881317425e-14),25,-5,12,yes,x,5,x,0.7545644999991055,1,84,test2,2,0.7546963000058895,-50.0
3,njx,f,22,r,2,(172.20000000000002, 0.0),21,-25,14,yes,x,5,x,0.45067659999767784,1,85,test2,2,0.4507748999967589,-70.0
3,njx,f,22,r,2,(-3.163262682197613e-14, -172.20000000000002),27,5,2,yes,x,5,x,0.5068787999989581,1,86,test2,2,0.5071412999968743,-40.0
3,njx,f,22,r,2,(121.76378772032349, 121.76378772032349),22,-3,11,yes,x,5,x,0.623217400003341,1,87,test2,2,0.6234551999950781,-48.0
3,njx,f,22,r,2,(172.20000000000002, 0.0),21,-3,11,yes,x,5,x,0.5533230000000913,1,88,test2,2,0.5545545999993919,-48.0
3,njx,f,22,r,2,(-121.76378772032352, -121.76378772032348),26,5,2,yes,x,5,m,0.8492635000002338,0,89,test2,2,0.8493870000020252,-40.0
3,njx,f,22,r,2,(1.0544208940658713e-14, 172.20000000000002),23,-5,12,yes,x,5,x,0.692932899997686,1,90,test2,2,0.6932143000012729,-50.0
3,njx,f,22,r,2,(121.76378772032346, -121.76378772032352),28,25,4,yes,x,5,x,0.5780044999992242,1,91,test2,2,0.5781672000011895,-20.0
3,njx,f,22,r,2,(172.20000000000002, 0.0),21,3,1,no,m,6,m,0.7047985000026529,1,92,test2,2,0.7050220999954036,-20.0
3,njx,f,22,r,2,(-3.163262682197613e-14, -172.20000000000002),27,3,1,yes,x,5,x,0.645181899999443,1,93,test2,2,0.6453120000005583,-42.0
3,njx,f,22,r,2,(-121.76378772032348, 121.76378772032349),24,3,1,no,m,6,m,0.718743599994923,1,94,test2,2,0.7188619000007748,-42.0
3,njx,f,22,r,2,(-121.76378772032352, -121.76378772032348),26,-3,11,yes,x,5,x,0.6310364000019035,1,95,test2,2,0.6312019000033615,-48.0
3,njx,f,22,r,2,(172.20000000000002, 0.0),21,-7,13,yes,x,5,x,0.6062669000020833,1,96,test2,2,0.6064442000060808,-52.0
3,njx,f,22,r,2,(-121.76378772032348, 121.76378772032349),24,-25,14,no,m,6,m,0.7132905999969807,1,1,test1,3,0.7133903000067221,-52.0
3,njx,f,22,r,2,(172.20000000000002, 0.0),21,25,4,no,m,6,m,0.6530017000040971,1,2,test1,3,0.6533341000031214,-52.0
3,njx,f,22,r,2,(-172.20000000000002, 2.1088417881317425e-14),25,5,2,no,m,6,x,0.7674473000006401,0,3,test1,3,0.7677110000004177,-52.0
3,njx,f,22,r,2,(-121.76378772032352, -121.76378772032348),26,-25,14,yes,x,5,x,0.4547907000014675,1,4,test1,3,0.45493420000275364,-70.0
3,njx,f,22,r,2,(-172.20000000000002, 2.1088417881317425e-14),25,5,2,yes,x,5,x,0.6027965000030235,1,5,test1,3,0.6030113000015263,-40.0
3,njx,f,22,r,2,(-121.76378772032348, 121.76378772032349),24,5,2,no,m,6,m,0.9136856999975862,1,6,test1,3,0.9138227000003099,-40.0
3,njx,f,22,r,2,(121.76378772032346, -121.76378772032352),28,-3,11,yes,x,5,m,0.7276308000000427,0,7,test1,3,0.7282721999945352,-48.0
3,njx,f,22,r,2,(-121.76378772032352, -121.76378772032348),26,-5,12,yes,x,5,x,0.56018849999964,1,8,test1,3,0.5602893000032054,-50.0
3,njx,f,22,r,2,(-172.20000000000002, 2.1088417881317425e-14),25,-7,13,yes,x,5,x,0.4887916000006953,1,9,test1,3,0.4888943999976618,-52.0
3,njx,f,22,r,2,(172.20000000000002, 0.0),21,7,3,no,m,6,m,0.5437489999967511,1,10,test1,3,0.5440536000023712,-52.0
3,njx,f,22,r,2,(-3.163262682197613e-14, -172.20000000000002),27,5,2,yes,x,5,x,0.7071512999973493,1,11,test1,3,0.7073296000016853,-40.0
3,njx,f,22,r,2,(-121.76378772032348, 121.76378772032349),24,-25,14,yes,x,5,x,0.4849934999947436,1,12,test1,3,0.4854507999989437,-70.0
3,njx,f,22,r,2,(-3.163262682197613e-14, -172.20000000000002),27,3,1,yes,x,5,x,0.811647799993807,1,13,test1,3,0.8118111999938264,-42.0
3,njx,f,22,r,2,(121.76378772032349, 121.76378772032349),22,-25,14,no,m,6,m,0.7890016000019386,1,14,test1,3,0.7892186999961268,-42.0
3,njx,f,22,r,2,(-3.163262682197613e-14, -172.20000000000002),27,-7,13,no,m,6,m,0.7479154000029666,1,15,test1,3,0.7480753999989247,-42.0
3,njx,f,22,r,2,(172.20000000000002, 0.0),21,3,1,yes,x,5,x,0.7394199999980628,1,16,test1,3,0.7395316999973147,-42.0
3,njx,f,22,r,2,(121.76378772032346, -121.76378772032352),28,5,2,yes,x,5,x,0.7030101999989711,1,17,test1,3,0.7034869000053732,-40.0
3,njx,f,22,r,2,(-121.76378772032352, -121.76378772032348),26,-7,13,no,m,6,m,0.5796801000033156,1,18,test1,3,0.5798139999969862,-40.0
3,njx,f,22,r,2,(-121.76378772032352, -121.76378772032348),26,-25,14,yes,x,5,x,0.3966098999953829,1,19,test1,3,0.39677020000090124,-70.0
3,njx,f,22,r,2,(-172.20000000000002, 2.1088417881317425e-14),25,-25,14,yes,x,5,x,0.492739100001927,1,20,test1,3,0.4929952000020421,-70.0
3,njx,f,22,r,2,(-3.163262682197613e-14, -172.20000000000002),27,-3,11,yes,x,5,x,0.8745296999986749,1,21,test1,3,0.8748754000043846,-48.0
3,njx,f,22,r,2,(-172.20000000000002, 2.1088417881317425e-14),25,25,4,yes,x,5,x,0.4429024000055506,1,22,test1,3,0.4430385000014212,-20.0
3,njx,f,22,r,2,(-121.76378772032348, 121.76378772032349),24,25,4,no,m,6,m,0.6590116000006674,1,23,test1,3,0.659113100002287,-20.0
3,njx,f,22,r,2,(121.76378772032349, 121.76378772032349),22,3,1,yes,x,5,m,0.7340135999984341,0,24,test1,3,0.7343936000033864,-42.0
3,njx,f,22,r,2,(121.76378772032349, 121.76378772032349),22,-25,14,yes,x,5,x,0.5448296000031405,1,25,test1,3,0.5450726999988547,-70.0
3,njx,f,22,r,2,(1.0544208940658713e-14, 172.20000000000002),23,5,2,yes,x,5,x,0.6387534000023152,1,26,test1,3,0.6390369000000646,-40.0
3,njx,f,22,r,2,(-121.76378772032348, 121.76378772032349),24,7,3,yes,x,5,x,0.4010515000045416,1,27,test1,3,0.40115630000218516,-38.0
3,njx,f,22,r,2,(121.76378772032349, 121.76378772032349),22,25,4,yes,x,5,x,1.0001850000044215,1,28,test1,3,1.0004776999994647,-20.0
3,njx,f,22,r,2,(1.0544208940658713e-14, 172.20000000000002),23,-7,13,yes,x,5,x,0.46225240000057966,1,29,test1,3,0.4627600999956485,-52.0
3,njx,f,22,r,2,(1.0544208940658713e-14, 172.20000000000002),23,7,3,no,m,6,m,0.7122850000014296,1,30,test1,3,0.7124187999943388,-52.0
3,njx,f,22,r,2,(1.0544208940658713e-14, 172.20000000000002),23,5,2,no,m,6,x,0.5242087000005995,0,31,test1,3,0.5246287000045413,-52.0
3,njx,f,22,r,2,(-121.76378772032352, -121.76378772032348),26,3,1,yes,x,5,m,0.8302253000001656,0,32,test1,3,0.830330500000855,-42.0
3,njx,f,22,r,2,(1.0544208940658713e-14, 172.20000000000002),23,-25,14,no,m,6,m,0.7969460999956937,1,33,test1,3,0.7971095999964746,-42.0
3,njx,f,22,r,2,(-172.20000000000002, 2.1088417881317425e-14),25,-3,11,yes,x,5,m,0.7240046000006259,0,34,test1,3,0.7242148999939673,-48.0
3,njx,f,22,r,2,(-121.76378772032352, -121.76378772032348),26,-3,11,yes,x,5,m,0.801466300006723,0,35,test1,3,0.8017688999971142,-48.0
3,njx,f,22,r,2,(121.76378772032349, 121.76378772032349),22,-5,12,yes,x,5,x,0.6752861999993911,1,36,test1,3,0.6754208999991533,-50.0
3,njx,f,22,r,2,(121.76378772032349, 121.76378772032349),22,-3,11,no,m,6,m,0.8420753999962471,1,37,test1,3,0.8424093000066932,-50.0
3,njx,f,22,r,2,(1.0544208940658713e-14, 172.20000000000002),23,-7,13,yes,x,5,x,0.6577528000052553,1,38,test1,3,0.6580380000013974,-52.0
3,njx,f,22,r,2,(-121.76378772032352, -121.76378772032348),26,5,2,no,m,6,m,0.7387850999948569,1,39,test1,3,0.7391742999971029,-52.0
3,njx,f,22,r,2,(172.20000000000002, 0.0),21,-5,12,no,m,6,m,0.7681693999984418,1,40,test1,3,0.7682851999998093,-52.0
3,njx,f,22,r,2,(121.76378772032346, -121.76378772032352),28,-25,14,yes,x,5,x,0.4726511000044411,1,41,test1,3,0.47279140000318876,-70.0
3,njx,f,22,r,2,(-172.20000000000002, 2.1088417881317425e-14),25,7,3,yes,x,5,x,0.46189199999935227,1,42,test1,3,0.4621127999998862,-38.0
3,njx,f,22,r,2,(121.76378772032346, -121.76378772032352),28,-5,12,yes,x,5,x,0.600710299993807,1,43,test1,3,0.6009374000059324,-50.0
3,njx,f,22,r,2,(-121.76378772032348, 121.76378772032349),24,-5,12,yes,x,5,x,0.6009644999940065,1,44,test1,3,0.6010845999990124,-50.0
3,njx,f,22,r,2,(121.76378772032346, -121.76378772032352),28,-25,14,no,m,6,m,0.9034571000011056,1,45,test1,3,0.903862899998785,-50.0
3,njx,f,22,r,2,(172.20000000000002, 0.0),21,5,2,yes,x,5,x,0.5078369999973802,1,46,test1,3,0.5082292000006419,-40.0
3,njx,f,22,r,2,(-121.76378772032352, -121.76378772032348),26,7,3,no,m,6,m,0.6406318000008469,1,47,test1,3,0.6407330000001821,-40.0
3,njx,f,22,r,2,(-121.76378772032352, -121.76378772032348),26,25,4,yes,x,5,x,0.39766660000168486,1,48,test1,3,0.39781370000127936,-20.0
3,njx,f,22,r,2,(-3.163262682197613e-14, -172.20000000000002),27,25,4,no,m,6,m,0.7377848999967682,1,49,test1,3,0.7381339000057778,-20.0
3,njx,f,22,r,2,(1.0544208940658713e-14, 172.20000000000002),23,3,1,no,m,6,m,0.7014581999974325,1,50,test1,3,0.7020661999995355,-20.0
3,njx,f,22,r,2,(1.0544208940658713e-14, 172.20000000000002),23,-25,14,yes,x,5,x,0.44582729999820003,1,51,test1,3,0.4459860999995726,-70.0
3,njx,f,22,r,2,(-3.163262682197613e-14, -172.20000000000002),27,-7,13,yes,x,5,x,0.8781386999980896,1,52,test1,3,0.8785991999975522,-52.0
3,njx,f,22,r,2,(-172.20000000000002, 2.1088417881317425e-14),25,-3,11,no,m,6,m,1.2075081000002683,1,53,test1,3,1.2076248999946984,-52.0
3,njx,f,22,r,2,(1.0544208940658713e-14, 172.20000000000002),23,7,3,yes,x,5,x,0.5580906999966828,1,54,test1,3,0.5581902999983868,-38.0
3,njx,f,22,r,2,(121.76378772032346, -121.76378772032352),28,7,3,yes,x,5,x,0.6643011000051047,1,55,test1,3,0.6644925000000512,-38.0
3,njx,f,22,r,2,(121.76378772032346, -121.76378772032352),28,-7,13,no,m,6,m,0.6005060999959824,1,56,test1,3,0.6007400000016787,-38.0
3,njx,f,22,r,2,(-121.76378772032352, -121.76378772032348),26,-7,13,yes,x,5,x,0.4024159000036889,1,57,test1,3,0.40294210000138264,-52.0
3,njx,f,22,r,2,(-121.76378772032348, 121.76378772032349),24,25,4,yes,x,5,x,0.42227380000258563,1,58,test1,3,0.42246399999567075,-20.0
3,njx,f,22,r,2,(121.76378772032349, 121.76378772032349),22,-5,12,yes,x,5,x,0.4677584000019124,1,59,test1,3,0.46820819999993546,-50.0
3,njx,f,22,r,2,(-3.163262682197613e-14, -172.20000000000002),27,7,3,yes,x,5,x,0.46767739999631885,1,60,test1,3,0.46797679999872344,-38.0
3,njx,f,22,r,2,(1.0544208940658713e-14, 172.20000000000002),23,7,3,yes,x,5,x,0.5054592000014964,1,61,test1,3,0.5059323000023142,-38.0
3,njx,f,22,r,2,(-121.76378772032352, -121.76378772032348),26,-25,14,no,m,6,m,0.7425255999987712,1,62,test1,3,0.7427539999989676,-38.0
3,njx,f,22,r,2,(121.76378772032349, 121.76378772032349),22,-7,13,yes,x,5,x,0.5084299000009196,1,63,test1,3,0.5085273000004236,-52.0
3,njx,f,22,r,2,(121.76378772032346, -121.76378772032352),28,3,1,yes,x,5,x,0.6278628999934881,1,64,test1,3,0.6283545000042068,-42.0
3,njx,f,22,r,2,(-121.76378772032348, 121.76378772032349),24,-5,12,yes,x,5,x,0.5430543000038597,1,65,test1,3,0.5434926000016276,-50.0
3,njx,f,22,r,2,(-172.20000000000002, 2.1088417881317425e-14),25,5,2,yes,x,5,x,0.5100758999979007,1,66,test1,3,0.5103135999961523,-40.0
3,njx,f,22,r,2,(121.76378772032346, -121.76378772032352),28,-3,11,no,m,6,m,0.8872224000006099,1,67,test1,3,0.8873846999995294,-40.0
3,njx,f,22,r,2,(121.76378772032349, 121.76378772032349),22,-7,13,yes,x,5,x,0.5898505000004661,1,68,test1,3,0.5899629999985336,-52.0
3,njx,f,22,r,2,(-3.163262682197613e-14, -172.20000000000002),27,25,4,yes,x,5,x,0.47133600000233855,1,69,test1,3,0.4714661000034539,-20.0
3,njx,f,22,r,2,(-172.20000000000002, 2.1088417881317425e-14),25,3,1,no,m,6,x,0.9830647999988287,0,70,test1,3,0.9833158999972511,-20.0
3,njx,f,22,r,2,(1.0544208940658713e-14, 172.20000000000002),23,5,2,yes,x,5,x,0.6242596000010963,1,71,test1,3,0.6244315000003553,-40.0
3,njx,f,22,r,2,(172.20000000000002, 0.0),21,-3,11,yes,x,5,m,1.1102507999967202,0,72,test1,3,1.1103856999980053,-48.0
3,njx,f,22,r,2,(-3.163262682197613e-14, -172.20000000000002),27,7,3,yes,x,5,x,0.4427434000026551,1,73,test1,3,0.44335960000171326,-38.0
3,njx,f,22,r,2,(-121.76378772032348, 121.76378772032349),24,-3,11,no,m,6,m,0.7763598000019556,1,74,test1,3,0.7767410000014934,-38.0
3,njx,f,22,r,2,(1.0544208940658713e-14, 172.20000000000002),23,25,4,yes,x,5,x,0.5804747000001953,1,75,test1,3,0.580625599999621,-20.0
3,njx,f,22,r,2,(-3.163262682197613e-14, -172.20000000000002),27,-25,14,no,m,6,m,0.6407846000001882,1,76,test1,3,0.6410726000030991,-20.0
3,njx,f,22,r,2,(-121.76378772032348, 121.76378772032349),24,-5,12,no,m,6,m,0.5825712000005296,1,77,test1,3,0.5829607999985456,-20.0
3,njx,f,22,r,2,(121.76378772032346, -121.76378772032352),28,-7,13,yes,x,5,x,0.5940044000017224,1,78,test1,3,0.5943092000015895,-52.0
3,njx,f,22,r,2,(-172.20000000000002, 2.1088417881317425e-14),25,-25,14,yes,x,5,x,0.5628840999997919,1,79,test1,3,0.5635039999979199,-70.0
3,njx,f,22,r,2,(-121.76378772032348, 121.76378772032349),24,7,3,yes,x,5,x,0.798792699999467,1,80,test1,3,0.7989102999999886,-38.0
3,njx,f,22,r,2,(1.0544208940658713e-14, 172.20000000000002),23,-7,13,no,m,6,m,0.5977563000051305,1,81,test1,3,0.5979832999946666,-38.0
3,njx,f,22,r,2,(-121.76378772032352, -121.76378772032348),26,-3,11,no,m,6,m,0.8596371000021463,1,82,test1,3,0.859736200000043,-38.0
3,njx,f,22,r,2,(172.20000000000002, 0.0),21,-25,14,no,m,6,m,0.4954909999942174,1,83,test1,3,0.49579090000042925,-38.0
3,njx,f,22,r,2,(1.0544208940658713e-14, 172.20000000000002),23,3,1,yes,x,5,x,0.5737847999989754,1,84,test1,3,0.5741630000047735,-42.0
3,njx,f,22,r,2,(-172.20000000000002, 2.1088417881317425e-14),25,-3,11,yes,x,5,m,0.6458941999953822,0,85,test1,3,0.6465454999997746,-48.0
3,njx,f,22,r,2,(121.76378772032349, 121.76378772032349),22,3,1,no,m,6,m,0.612803799995163,1,86,test1,3,0.6129970000038156,-48.0
3,njx,f,22,r,2,(1.0544208940658713e-14, 172.20000000000002),23,-5,12,yes,x,5,m,0.5947598999991897,0,87,test1,3,0.5949560000008205,-50.0
3,njx,f,22,r,2,(1.0544208940658713e-14, 172.20000000000002),23,-3,11,no,m,6,m,0.6908164999986184,1,88,test1,3,0.6909461000032024,-50.0
3,njx,f,22,r,2,(1.0544208940658713e-14, 172.20000000000002),23,-3,11,yes,x,5,m,0.7547005000014906,0,89,test1,3,0.7552461000013864,-48.0
3,njx,f,22,r,2,(-172.20000000000002, 2.1088417881317425e-14),25,-5,12,no,m,6,m,0.5294689000002109,1,90,test1,3,0.5295955999972648,-48.0
3,njx,f,22,r,2,(-121.76378772032348, 121.76378772032349),24,7,3,no,m,6,m,0.6598244999986491,1,91,test1,3,0.6600596000062069,-48.0
3,njx,f,22,r,2,(172.20000000000002, 0.0),21,-3,11,no,m,6,m,0.8201334999976098,1,92,test1,3,0.8204220999978133,-48.0
3,njx,f,22,r,2,(-3.163262682197613e-14, -172.20000000000002),27,-25,14,yes,x,5,x,0.4996132999949623,1,93,test1,3,0.49974339999607764,-70.0
3,njx,f,22,r,2,(-172.20000000000002, 2.1088417881317425e-14),25,3,1,yes,x,5,m,0.6804139999949257,0,94,test1,3,0.6805132999943453,-42.0
3,njx,f,22,r,2,(121.76378772032346, -121.76378772032352),28,7,3,yes,x,5,x,0.6435026000035577,1,95,test1,3,0.6436297000036575,-38.0
3,njx,f,22,r,2,(-121.76378772032352, -121.76378772032348),26,3,1,yes,x,5,m,0.6026609999971697,0,96,test1,3,0.6034798000036972,-42.0
3,njx,f,22,r,2,(-121.76378772032348, 121.76378772032349),24,5,2,yes,x,5,x,0.4388013999996474,1,1,test2,3,0.4389318999965326,-40.0
3,njx,f,22,r,2,(-121.76378772032348, 121.76378772032349),24,-7,13,no,m,6,m,0.5438738000011654,1,2,test2,3,0.5445357999997213,-40.0
3,njx,f,22,r,2,(121.76378772032346, -121.76378772032352),28,25,4,yes,x,5,x,0.39775039999949513,1,3,test2,3,0.3980615999971633,-20.0
3,njx,f,22,r,2,(-3.163262682197613e-14, -172.20000000000002),27,-3,11,no,m,6,m,0.5283577000009245,1,4,test2,3,0.5286602999985917,-20.0
3,njx,f,22,r,2,(-3.163262682197613e-14, -172.20000000000002),27,-7,13,yes,x,5,x,0.5284207000004244,1,5,test2,3,0.5287748999980977,-52.0
3,njx,f,22,r,2,(1.0544208940658713e-14, 172.20000000000002),23,-25,14,yes,x,5,x,0.4205273000043235,1,6,test2,3,0.4208424000025843,-70.0
3,njx,f,22,r,2,(-172.20000000000002, 2.1088417881317425e-14),25,-7,13,no,m,6,m,0.6082900000037625,1,7,test2,3,0.6084732000017539,-70.0
3,njx,f,22,r,2,(-121.76378772032348, 121.76378772032349),24,3,1,yes,x,5,m,0.8452939000053448,0,8,test2,3,0.8455667000016547,-42.0
3,njx,f,22,r,2,(1.0544208940658713e-14, 172.20000000000002),23,-5,12,no,m,6,m,0.8709625999981654,1,9,test2,3,0.8710656000039307,-42.0
3,njx,f,22,r,2,(-3.163262682197613e-14, -172.20000000000002),27,-3,11,yes,x,5,m,0.5601169000001391,0,10,test2,3,0.5602119999966817,-48.0
3,njx,f,22,r,2,(172.20000000000002, 0.0),21,5,2,no,m,6,m,0.5494756000043708,1,11,test2,3,0.5497606999997515,-48.0
3,njx,f,22,r,2,(-121.76378772032352, -121.76378772032348),26,-5,12,no,m,6,m,0.6321613999971305,1,12,test2,3,0.63226510000095,-48.0
3,njx,f,22,r,2,(-121.76378772032348, 121.76378772032349),24,5,2,yes,x,5,x,0.6117688000013004,1,13,test2,3,0.6118771999972523,-40.0
3,njx,f,22,r,2,(1.0544208940658713e-14, 172.20000000000002),23,-3,11,yes,x,5,m,0.8079616999966674,0,14,test2,3,0.8081256999939797,-48.0
3,njx,f,22,r,2,(121.76378772032349, 121.76378772032349),22,7,3,no,m,6,m,0.6007824000043911,1,15,test2,3,0.6009197000021231,-48.0
3,njx,f,22,r,2,(121.76378772032346, -121.76378772032352),28,-25,14,yes,x,5,x,0.7279551000028732,1,16,test2,3,0.7280826999995043,-70.0
3,njx,f,22,r,2,(1.0544208940658713e-14, 172.20000000000002),23,25,4,yes,x,5,x,0.5186069999981555,1,17,test2,3,0.5187885999985156,-20.0
3,njx,f,22,r,2,(-3.163262682197613e-14, -172.20000000000002),27,5,2,no,m,6,m,0.6562717999986489,1,18,test2,3,0.6566452000042773,-20.0
3,njx,f,22,r,2,(172.20000000000002, 0.0),21,7,3,yes,x,5,x,0.6200054000000819,1,19,test2,3,0.6203582000016468,-38.0
3,njx,f,22,r,2,(-121.76378772032352, -121.76378772032348),26,-5,12,yes,x,5,m,0.6104726999983541,0,20,test2,3,0.610718399999314,-50.0
3,njx,f,22,r,2,(172.20000000000002, 0.0),21,-5,12,yes,x,5,m,1.0243996000062907,0,21,test2,3,1.0245034999970812,-50.0
3,njx,f,22,r,2,(172.20000000000002, 0.0),21,25,4,yes,x,5,x,0.44636760000139475,1,22,test2,3,0.4466037000020151,-20.0
3,njx,f,22,r,2,(-172.20000000000002, 2.1088417881317425e-14),25,25,4,no,m,6,m,0.8068408999970416,1,23,test2,3,0.8072721999997157,-20.0
3,njx,f,22,r,2,(121.76378772032346, -121.76378772032352),28,-7,13,yes,x,5,x,0.6490945999976248,1,24,test2,3,0.6493897999971523,-52.0
3,njx,f,22,r,2,(1.0544208940658713e-14, 172.20000000000002),23,3,1,yes,x,5,m,0.625768900004914,0,25,test2,3,0.6259793999997783,-42.0
3,njx,f,22,r,2,(-121.76378772032352, -121.76378772032348),26,7,3,yes,x,5,x,0.5448864999998477,1,26,test2,3,0.545093500004441,-38.0
3,njx,f,22,r,2,(172.20000000000002, 0.0),21,-7,13,yes,x,5,x,0.7766885000019101,1,27,test2,3,0.776791600001161,-52.0
3,njx,f,22,r,2,(172.20000000000002, 0.0),21,-7,13,no,m,6,m,0.7213007000027574,1,28,test2,3,0.7214918000026955,-52.0
3,njx,f,22,r,2,(-121.76378772032348, 121.76378772032349),24,-25,14,yes,x,5,x,0.4178461000046809,1,29,test2,3,0.418048200001067,-70.0
3,njx,f,22,r,2,(121.76378772032349, 121.76378772032349),22,5,2,yes,x,5,m,0.7171409000002313,0,30,test2,3,0.7173878999965382,-40.0
3,njx,f,22,r,2,(-172.20000000000002, 2.1088417881317425e-14),25,-7,13,yes,x,5,x,0.512368100004096,1,31,test2,3,0.5128699000051711,-52.0
3,njx,f,22,r,2,(-172.20000000000002, 2.1088417881317425e-14),25,7,3,no,m,6,m,0.7517570999989402,1,32,test2,3,0.7519219999958295,-52.0
3,njx,f,22,r,2,(121.76378772032349, 121.76378772032349),22,25,4,no,m,6,m,0.5888965000049211,1,33,test2,3,0.5892058999961591,-52.0
3,njx,f,22,r,2,(-121.76378772032348, 121.76378772032349),24,-7,13,yes,x,5,m,0.5638859999962733,0,34,test2,3,0.5640472999948543,-52.0
3,njx,f,22,r,2,(-3.163262682197613e-14, -172.20000000000002),27,-25,14,yes,x,5,x,0.5031002999967313,1,35,test2,3,0.5032022000013967,-70.0
3,njx,f,22,r,2,(172.20000000000002, 0.0),21,25,4,yes,x,5,x,0.6376935000007506,1,36,test2,3,0.6378610999963712,-20.0
3,njx,f,22,r,2,(121.76378772032349, 121.76378772032349),22,7,3,yes,x,5,m,0.6625837000028696,0,37,test2,3,0.6627109999972163,-38.0
3,njx,f,22,r,2,(121.76378772032349, 121.76378772032349),22,-7,13,no,m,6,m,0.721231199997419,1,38,test2,3,0.7213465000022552,-38.0
3,njx,f,22,r,2,(172.20000000000002, 0.0),21,5,2,yes,x,5,x,0.7996187999960966,1,39,test2,3,0.7999032000006991,-40.0
3,njx,f,22,r,2,(-3.163262682197613e-14, -172.20000000000002),27,-5,12,yes,x,5,x,0.6681400000015856,1,40,test2,3,0.6683676999964518,-50.0
3,njx,f,22,r,2,(1.0544208940658713e-14, 172.20000000000002),23,25,4,no,m,6,m,0.6048539000039455,1,41,test2,3,0.6049545999994734,-50.0
3,njx,f,22,r,2,(-121.76378772032348, 121.76378772032349),24,-3,11,yes,x,5,x,0.8462202000009711,1,42,test2,3,0.846351300002425,-48.0
3,njx,f,22,r,2,(121.76378772032349, 121.76378772032349),22,3,1,yes,x,5,m,0.8465483000036329,0,43,test2,3,0.8468551000041771,-42.0
3,njx,f,22,r,2,(121.76378772032349, 121.76378772032349),22,25,4,yes,x,5,x,0.6192927000010968,1,44,test2,3,0.6195525000002817,-20.0
3,njx,f,22,r,2,(-121.76378772032348, 121.76378772032349),24,-7,13,yes,x,5,x,0.9314584000021568,1,45,test2,3,0.931567300001916,-52.0
3,njx,f,22,r,2,(-3.163262682197613e-14, -172.20000000000002),27,-5,12,yes,x,5,x,0.5482571000029566,1,46,test2,3,0.5483628000001772,-50.0
3,njx,f,22,r,2,(172.20000000000002, 0.0),21,-25,14,yes,x,5,x,0.5903389999948558,1,47,test2,3,0.5904817999980878,-70.0
3,njx,f,22,r,2,(-3.163262682197613e-14, -172.20000000000002),27,3,1,no,m,6,m,0.6621973000001162,1,48,test2,3,0.6623126999984379,-70.0
3,njx,f,22,r,2,(-172.20000000000002, 2.1088417881317425e-14),25,3,1,yes,x,5,m,0.9201318000050378,0,49,test2,3,0.9202652000021772,-42.0
3,njx,f,22,r,2,(121.76378772032349, 121.76378772032349),22,5,2,yes,x,5,m,0.6052857000031509,0,50,test2,3,0.6058182999986457,-40.0
3,njx,f,22,r,2,(-3.163262682197613e-14, -172.20000000000002),27,7,3,no,m,6,m,0.9228663000030792,1,51,test2,3,0.9229864000008092,-40.0
3,njx,f,22,r,2,(-121.76378772032348, 121.76378772032349),24,-3,11,yes,x,5,m,0.8202246000000741,0,52,test2,3,0.8203370000046561,-48.0
3,njx,f,22,r,2,(121.76378772032349, 121.76378772032349),22,-3,11,yes,x,5,m,1.0909433999986504,0,53,test2,3,1.0911695000031614,-48.0
3,njx,f,22,r,2,(172.20000000000002, 0.0),21,3,1,yes,x,5,m,1.0318357000069227,0,54,test2,3,1.0321117000057711,-42.0
3,njx,f,22,r,2,(-172.20000000000002, 2.1088417881317425e-14),25,-25,14,no,m,6,m,1.234431199998653,1,55,test2,3,1.2346266999957152,-42.0
3,njx,f,22,r,2,(-121.76378772032348, 121.76378772032349),24,25,4,yes,x,5,x,0.47469730000011623,1,56,test2,3,0.47503970000252593,-20.0
3,njx,f,22,r,2,(121.76378772032349, 121.76378772032349),22,-25,14,yes,x,5,x,0.6021051999996416,1,57,test2,3,0.6022679000016069,-70.0
3,njx,f,22,r,2,(121.76378772032346, -121.76378772032352),28,5,2,yes,x,5,x,0.9497358000007807,1,58,test2,3,0.9498678000018117,-40.0
3,njx,f,22,r,2,(-121.76378772032352, -121.76378772032348),26,-7,13,yes,x,5,x,0.5935725000017555,1,59,test2,3,0.5938177999996697,-52.0
3,njx,f,22,r,2,(-172.20000000000002, 2.1088417881317425e-14),25,25,4,yes,x,5,x,0.5433558000004268,1,60,test2,3,0.543580400000792,-20.0
3,njx,f,22,r,2,(121.76378772032349, 121.76378772032349),22,-5,12,no,m,6,x,0.679138100000273,0,61,test2,3,0.6792638999977498,-20.0
3,njx,f,22,r,2,(121.76378772032346, -121.76378772032352),28,-5,12,no,m,6,m,1.3375703999990947,1,62,test2,3,1.3376957000000402,-20.0
3,njx,f,22,r,2,(172.20000000000002, 0.0),21,-5,12,yes,x,5,m,0.5643994000056409,0,63,test2,3,0.5645740999971167,-50.0
3,njx,f,22,r,2,(-121.76378772032352, -121.76378772032348),26,25,4,no,m,6,m,1.0733443000062834,1,64,test2,3,1.0736375999986194,-50.0
3,njx,f,22,r,2,(-121.76378772032352, -121.76378772032348),26,3,1,no,m,6,m,1.1596328000014182,1,65,test2,3,1.160418599996774,-50.0
3,njx,f,22,r,2,(-121.76378772032352, -121.76378772032348),26,25,4,yes,x,5,x,0.5151284000021406,1,66,test2,3,0.5153645000027609,-20.0
3,njx,f,22,r,2,(-121.76378772032352, -121.76378772032348),26,7,3,yes,x,5,x,0.5474121000006562,1,67,test2,3,0.5475165999960154,-38.0
3,njx,f,22,r,2,(172.20000000000002, 0.0),21,7,3,yes,x,5,x,0.518355000000156,1,68,test2,3,0.5184689999950933,-38.0
3,njx,f,22,r,2,(-3.163262682197613e-14, -172.20000000000002),27,25,4,yes,x,5,x,0.5613315000009607,1,69,test2,3,0.5614596999948844,-20.0
3,njx,f,22,r,2,(-172.20000000000002, 2.1088417881317425e-14),25,-5,12,yes,x,5,x,0.6471894999995129,1,70,test2,3,0.6473056999966502,-50.0
3,njx,f,22,r,2,(-172.20000000000002, 2.1088417881317425e-14),25,7,3,yes,x,5,x,0.5390269999988959,1,71,test2,3,0.5392589000039152,-38.0
3,njx,f,22,r,2,(121.76378772032346, -121.76378772032352),28,25,4,no,m,6,m,0.8616798000002746,1,72,test2,3,0.8620219000003999,-38.0
3,njx,f,22,r,2,(-3.163262682197613e-14, -172.20000000000002),27,-5,12,no,m,6,m,1.0844993999999133,1,73,test2,3,1.0846273999995901,-38.0
3,njx,f,22,r,2,(121.76378772032346, -121.76378772032352),28,3,1,no,m,6,m,0.8468686999985948,1,74,test2,3,0.84699809999438,-38.0
3,njx,f,22,r,2,(-121.76378772032352, -121.76378772032348),26,5,2,yes,x,5,x,0.8633472999936203,1,75,test2,3,0.863704700001108,-40.0
3,njx,f,22,r,2,(121.76378772032346, -121.76378772032352),28,5,2,no,m,6,m,0.8426249000040116,1,76,test2,3,0.843171299995447,-40.0
3,njx,f,22,r,2,(121.76378772032346, -121.76378772032352),28,-3,11,yes,x,5,x,0.9857480999999098,1,77,test2,3,0.9862055999983568,-48.0
3,njx,f,22,r,2,(121.76378772032346, -121.76378772032352),28,7,3,no,m,6,m,0.8697046999950544,1,78,test2,3,0.8698394000020926,-48.0
3,njx,f,22,r,2,(121.76378772032349, 121.76378772032349),22,5,2,no,m,6,m,1.0801752000043052,1,79,test2,3,1.080397699995956,-48.0
3,njx,f,22,r,2,(-121.76378772032348, 121.76378772032349),24,3,1,yes,x,5,m,0.6949444999991101,0,80,test2,3,0.6954881999990903,-42.0
3,njx,f,22,r,2,(121.76378772032349, 121.76378772032349),22,7,3,yes,x,5,m,1.1010989999995218,0,81,test2,3,1.1012364999987767,-38.0
3,njx,f,22,r,2,(121.76378772032346, -121.76378772032352),28,3,1,yes,x,5,x,0.875468300000648,1,82,test2,3,0.8755703999995603,-42.0
3,njx,f,22,r,2,(121.76378772032346, -121.76378772032352),28,-5,12,yes,x,5,x,0.7882771000004141,1,83,test2,3,0.7884793999983231,-50.0
3,njx,f,22,r,2,(-172.20000000000002, 2.1088417881317425e-14),25,-5,12,yes,x,5,x,0.6071735000004992,1,84,test2,3,0.6078755999988061,-50.0
3,njx,f,22,r,2,(172.20000000000002, 0.0),21,-25,14,yes,x,5,x,0.5617696999979671,1,85,test2,3,0.5620722000021487,-70.0
3,njx,f,22,r,2,(-3.163262682197613e-14, -172.20000000000002),27,5,2,yes,x,5,x,0.5281572000021697,1,86,test2,3,0.5285864999968908,-40.0
3,njx,f,22,r,2,(121.76378772032349, 121.76378772032349),22,-3,11,yes,x,5,x,0.8654682999986107,1,87,test2,3,0.8656008999969345,-48.0
3,njx,f,22,r,2,(172.20000000000002, 0.0),21,-3,11,yes,x,5,x,1.2748028999994858,1,88,test2,3,1.2751305999991018,-48.0
3,njx,f,22,r,2,(-121.76378772032352, -121.76378772032348),26,5,2,yes,x,5,x,0.4695794999934151,1,89,test2,3,0.46967920000315644,-40.0
3,njx,f,22,r,2,(1.0544208940658713e-14, 172.20000000000002),23,-5,12,yes,x,5,x,0.7227332000038587,1,90,test2,3,0.7229604000021936,-50.0
3,njx,f,22,r,2,(121.76378772032346, -121.76378772032352),28,25,4,yes,x,5,x,0.5179263000027277,1,91,test2,3,0.5180462000062107,-20.0
3,njx,f,22,r,2,(172.20000000000002, 0.0),21,3,1,no,m,6,m,0.7962841999978991,1,92,test2,3,0.796633899997687,-20.0
3,njx,f,22,r,2,(-3.163262682197613e-14, -172.20000000000002),27,3,1,yes,x,5,m,1.141058900000644,0,93,test2,3,1.1413383000035537,-42.0
3,njx,f,22,r,2,(-121.76378772032348, 121.76378772032349),24,3,1,no,m,6,m,0.9496746999939205,1,94,test2,3,0.9502886000045692,-42.0
3,njx,f,22,r,2,(-121.76378772032352, -121.76378772032348),26,-3,11,yes,x,5,m,1.741471500004991,0,95,test2,3,1.7415890000047511,-48.0
3,njx,f,22,r,2,(172.20000000000002, 0.0),21,-7,13,yes,x,5,x,0.5204413999963435,1,96,test2,3,0.5205418999976246,-52.0
3,njx,f,22,r,2,(-121.76378772032348, 121.76378772032349),24,-25,14,no,m,6,m,0.7630343000055291,1,1,test1,4,0.7633541000031983,-52.0
3,njx,f,22,r,2,(172.20000000000002, 0.0),21,25,4,no,m,6,m,0.7435178000014275,1,2,test1,4,0.7438446000014665,-52.0
3,njx,f,22,r,2,(-172.20000000000002, 2.1088417881317425e-14),25,5,2,no,m,6,m,1.0176922000027844,1,3,test1,4,1.018035900000541,-52.0
3,njx,f,22,r,2,(-121.76378772032352, -121.76378772032348),26,-25,14,yes,x,5,x,0.40980639999907,1,4,test1,4,0.40990810000221245,-70.0
3,njx,f,22,r,2,(-172.20000000000002, 2.1088417881317425e-14),25,5,2,yes,x,5,x,0.4690379999956349,1,5,test1,4,0.46933220000209985,-40.0
3,njx,f,22,r,2,(-121.76378772032348, 121.76378772032349),24,5,2,no,m,6,m,0.6551690999986022,1,6,test1,4,0.6553983999983757,-40.0
3,njx,f,22,r,2,(121.76378772032346, -121.76378772032352),28,-3,11,yes,x,5,x,0.5657014999960666,1,7,test1,4,0.5658020000046236,-48.0
3,njx,f,22,r,2,(-121.76378772032352, -121.76378772032348),26,-5,12,yes,x,5,x,0.4005953000014415,1,8,test1,4,0.4007655000023078,-50.0
3,njx,f,22,r,2,(-172.20000000000002, 2.1088417881317425e-14),25,-7,13,yes,x,5,x,0.3565630000011879,1,9,test1,4,0.3567706999965594,-52.0
3,njx,f,22,r,2,(172.20000000000002, 0.0),21,7,3,no,m,6,m,0.9562734000064665,1,10,test1,4,0.9566722000017762,-52.0
3,njx,f,22,r,2,(-3.163262682197613e-14, -172.20000000000002),27,5,2,yes,x,5,x,0.4609070000005886,1,11,test1,4,0.4610809000005247,-40.0
3,njx,f,22,r,2,(-121.76378772032348, 121.76378772032349),24,-25,14,yes,x,5,x,0.3937785999951302,1,12,test1,4,0.39390740000089863,-70.0
3,njx,f,22,r,2,(-3.163262682197613e-14, -172.20000000000002),27,3,1,yes,x,5,x,0.5744979000010062,1,13,test1,4,0.5750643999999738,-42.0
3,njx,f,22,r,2,(121.76378772032349, 121.76378772032349),22,-25,14,no,m,6,m,0.9725644999998622,1,14,test1,4,0.972748699998192,-42.0
3,njx,f,22,r,2,(-3.163262682197613e-14, -172.20000000000002),27,-7,13,no,m,6,m,0.8842166999966139,1,15,test1,4,0.8844594999973197,-42.0
3,njx,f,22,r,2,(172.20000000000002, 0.0),21,3,1,yes,x,5,m,1.3000337999983458,0,16,test1,4,1.3001374999948894,-42.0
3,njx,f,22,r,2,(121.76378772032346, -121.76378772032352),28,5,2,yes,x,5,x,0.663389699999243,1,17,test1,4,0.6634944999968866,-40.0
3,njx,f,22,r,2,(-121.76378772032352, -121.76378772032348),26,-7,13,no,m,6,m,0.7949726000006194,1,18,test1,4,0.7952365000019199,-40.0
3,njx,f,22,r,2,(-121.76378772032352, -121.76378772032348),26,-25,14,yes,x,5,x,0.5705003000039142,1,19,test1,4,0.5707384999986971,-70.0
3,njx,f,22,r,2,(-172.20000000000002, 2.1088417881317425e-14),25,-25,14,yes,x,5,x,0.6183825000043726,1,20,test1,4,0.6184947000001557,-70.0
3,njx,f,22,r,2,(-3.163262682197613e-14, -172.20000000000002),27,-3,11,yes,x,5,x,0.9200685999967391,1,21,test1,4,0.9201926999958232,-48.0
3,njx,f,22,r,2,(-172.20000000000002, 2.1088417881317425e-14),25,25,4,yes,x,5,x,0.5568161999981385,1,22,test1,4,0.5572633000047063,-20.0
3,njx,f,22,r,2,(-121.76378772032348, 121.76378772032349),24,25,4,no,m,6,m,1.0482360999958473,1,23,test1,4,1.0483594999968773,-20.0
3,njx,f,22,r,2,(121.76378772032349, 121.76378772032349),22,3,1,yes,x,5,m,1.0438642000008258,0,24,test1,4,1.0444633000006434,-42.0
3,njx,f,22,r,2,(121.76378772032349, 121.76378772032349),22,-25,14,yes,x,5,x,0.43294800000148825,1,25,test1,4,0.4334534000008716,-70.0
3,njx,f,22,r,2,(1.0544208940658713e-14, 172.20000000000002),23,5,2,yes,x,5,m,1.2130375999986427,0,26,test1,4,1.213182700004836,-40.0
3,njx,f,22,r,2,(-121.76378772032348, 121.76378772032349),24,7,3,yes,x,5,x,0.5705935000005411,1,27,test1,4,0.5706951999964076,-38.0
3,njx,f,22,r,2,(121.76378772032349, 121.76378772032349),22,25,4,yes,x,5,x,0.6863009000007878,1,28,test1,4,0.6864040000000386,-20.0
3,njx,f,22,r,2,(1.0544208940658713e-14, 172.20000000000002),23,-7,13,yes,x,5,x,0.4472015999999712,1,29,test1,4,0.4474956999983988,-52.0
3,njx,f,22,r,2,(1.0544208940658713e-14, 172.20000000000002),23,7,3,no,m,6,m,0.82939699999406,1,30,test1,4,0.8297833000033279,-52.0
3,njx,f,22,r,2,(1.0544208940658713e-14, 172.20000000000002),23,5,2,no,m,6,m,1.0619892999966396,1,31,test1,4,1.0622021000017412,-52.0
3,njx,f,22,r,2,(-121.76378772032352, -121.76378772032348),26,3,1,yes,x,5,m,0.802197699995304,0,32,test1,4,0.8025941000014427,-42.0
3,njx,f,22,r,2,(1.0544208940658713e-14, 172.20000000000002),23,-25,14,no,m,6,m,0.8506430000052205,1,33,test1,4,0.8508588999975473,-42.0
3,njx,f,22,r,2,(-172.20000000000002, 2.1088417881317425e-14),25,-3,11,yes,x,5,m,0.9168309000015142,0,34,test1,4,0.9171463000020594,-48.0
3,njx,f,22,r,2,(-121.76378772032352, -121.76378772032348),26,-3,11,yes,x,5,m,0.8887875000000349,0,35,test1,4,0.8889177999953972,-48.0
3,njx,f,22,r,2,(121.76378772032349, 121.76378772032349),22,-5,12,yes,x,5,x,0.8841899000035482,1,36,test1,4,0.8842901000025449,-50.0
3,njx,f,22,r,2,(121.76378772032349, 121.76378772032349),22,-3,11,no,m,6,m,0.7616513000029954,1,37,test1,4,0.7618082000044524,-50.0
3,njx,f,22,r,2,(1.0544208940658713e-14, 172.20000000000002),23,-7,13,yes,x,5,x,0.474372200005746,1,38,test1,4,0.47473549999995157,-52.0
3,njx,f,22,r,2,(-121.76378772032352, -121.76378772032348),26,5,2,no,m,6,m,1.1948367999939364,1,39,test1,4,1.194941400004609,-52.0
3,njx,f,22,r,2,(172.20000000000002, 0.0),21,-5,12,no,m,6,m,0.8686705000000075,1,40,test1,4,0.8690997999947285,-52.0
3,njx,f,22,r,2,(121.76378772032346, -121.76378772032352),28,-25,14,yes,x,5,x,0.48563149999972666,1,41,test1,4,0.4859615999957896,-70.0
3,njx,f,22,r,2,(-172.20000000000002, 2.1088417881317425e-14),25,7,3,yes,x,5,x,0.5759562000021106,1,42,test1,4,0.5760697000005166,-38.0
3,njx,f,22,r,2,(121.76378772032346, -121.76378772032352),28,-5,12,yes,x,5,m,0.8964531999954488,0,43,test1,4,0.8966118000025745,-50.0
3,njx,f,22,r,2,(-121.76378772032348, 121.76378772032349),24,-5,12,yes,x,5,x,1.2581561000042711,1,44,test1,4,1.2585517999978038,-50.0
3,njx,f,22,r,2,(121.76378772032346, -121.76378772032352),28,-25,14,no,m,6,m,0.9385015000007115,1,45,test1,4,0.9389088000025367,-50.0
3,njx,f,22,r,2,(172.20000000000002, 0.0),21,5,2,yes,x,5,x,0.9711248999956297,1,46,test1,4,0.9712989999970887,-40.0
3,njx,f,22,r,2,(-121.76378772032352, -121.76378772032348),26,7,3,no,m,6,m,1.1581283999985317,1,47,test1,4,1.1582902000009199,-40.0
3,njx,f,22,r,2,(-121.76378772032352, -121.76378772032348),26,25,4,yes,x,5,x,0.8162255999995978,1,48,test1,4,0.8166230999995605,-20.0
3,njx,f,22,r,2,(-3.163262682197613e-14, -172.20000000000002),27,25,4,no,m,6,m,1.0742322000005515,1,49,test1,4,1.074344899992866,-20.0
3,njx,f,22,r,2,(1.0544208940658713e-14, 172.20000000000002),23,3,1,no,m,6,m,0.869030500005465,1,50,test1,4,0.8695321999985026,-20.0
3,njx,f,22,r,2,(1.0544208940658713e-14, 172.20000000000002),23,-25,14,yes,x,5,x,0.4298955999984173,1,51,test1,4,0.43002330000308575,-70.0
3,njx,f,22,r,2,(-3.163262682197613e-14, -172.20000000000002),27,-7,13,yes,x,5,x,0.5128655000007711,1,52,test1,4,0.5129937999954564,-52.0
3,njx,f,22,r,2,(-172.20000000000002, 2.1088417881317425e-14),25,-3,11,no,m,6,m,1.168971800005238,1,53,test1,4,1.169199000003573,-52.0
3,njx,f,22,r,2,(1.0544208940658713e-14, 172.20000000000002),23,7,3,yes,x,5,x,0.5420487000010326,1,54,test1,4,0.5422074000016437,-38.0
3,njx,f,22,r,2,(121.76378772032346, -121.76378772032352),28,7,3,yes,x,5,m,1.2156495000017458,0,55,test1,4,1.215902999996615,-38.0
3,njx,f,22,r,2,(121.76378772032346, -121.76378772032352),28,-7,13,no,m,6,m,0.7712530000062543,1,56,test1,4,0.7715909000035026,-38.0
3,njx,f,22,r,2,(-121.76378772032352, -121.76378772032348),26,-7,13,yes,x,5,x,0.7697177000009106,1,57,test1,4,0.7700077000044985,-52.0
3,njx,f,22,r,2,(-121.76378772032348, 121.76378772032349),24,25,4,yes,x,5,x,0.5221053999994183,1,58,test1,4,0.5222301999965566,-20.0
3,njx,f,22,r,2,(121.76378772032349, 121.76378772032349),22,-5,12,yes,x,5,x,0.574777499998163,1,59,test1,4,0.5748808999996982,-50.0
3,njx,f,22,r,2,(-3.163262682197613e-14, -172.20000000000002),27,7,3,yes,x,5,x,0.43592190000345,1,60,test1,4,0.43602929999906337,-38.0
3,njx,f,22,r,2,(1.0544208940658713e-14, 172.20000000000002),23,7,3,yes,x,5,x,0.44357030000537634,1,61,test1,4,0.44376520000514574,-38.0
3,njx,f,22,r,2,(-121.76378772032352, -121.76378772032348),26,-25,14,no,m,6,m,0.7377456999965943,1,62,test1,4,0.7378764000022784,-38.0
3,njx,f,22,r,2,(121.76378772032349, 121.76378772032349),22,-7,13,yes,x,5,x,0.7227582999985316,1,63,test1,4,0.7231629000016255,-52.0
3,njx,f,22,r,2,(121.76378772032346, -121.76378772032352),28,3,1,yes,x,5,m,0.7042013999962364,0,64,test1,4,0.704334200003359,-42.0
3,njx,f,22,r,2,(-121.76378772032348, 121.76378772032349),24,-5,12,yes,x,5,x,0.45960850000119535,1,65,test1,4,0.4598033000002033,-50.0
3,njx,f,22,r,2,(-172.20000000000002, 2.1088417881317425e-14),25,5,2,yes,x,5,x,0.5264306999961264,1,66,test1,4,0.5267024000058882,-40.0
3,njx,f,22,r,2,(121.76378772032346, -121.76378772032352),28,-3,11,no,m,6,m,0.7388925999985076,1,67,test1,4,0.7391066999989562,-40.0
3,njx,f,22,r,2,(121.76378772032349, 121.76378772032349),22,-7,13,yes,x,5,x,0.7467906000019866,1,68,test1,4,0.7470757000046433,-52.0
3,njx,f,22,r,2,(-3.163262682197613e-14, -172.20000000000002),27,25,4,yes,x,5,x,0.47729480000270996,1,69,test1,4,0.4775106999950367,-20.0
3,njx,f,22,r,2,(-172.20000000000002, 2.1088417881317425e-14),25,3,1,no,m,6,m,0.6483785000018543,1,70,test1,4,0.6485993000023882,-20.0
3,njx,f,22,r,2,(1.0544208940658713e-14, 172.20000000000002),23,5,2,yes,x,5,x,0.9308142000008957,1,71,test1,4,0.9309174999943934,-40.0
3,njx,f,22,r,2,(172.20000000000002, 0.0),21,-3,11,yes,x,5,x,0.941772399994079,1,72,test1,4,0.9420217000006232,-48.0
3,njx,f,22,r,2,(-3.163262682197613e-14, -172.20000000000002),27,7,3,yes,x,5,x,0.5183705000017653,1,73,test1,4,0.5186017000014544,-38.0
3,njx,f,22,r,2,(-121.76378772032348, 121.76378772032349),24,-3,11,no,m,6,m,0.8453274999992573,1,74,test1,4,0.8454591999980039,-38.0
3,njx,f,22,r,2,(1.0544208940658713e-14, 172.20000000000002),23,25,4,yes,x,5,x,0.45347429999674205,1,75,test1,4,0.4536683000042103,-20.0
3,njx,f,22,r,2,(-3.163262682197613e-14, -172.20000000000002),27,-25,14,no,m,6,m,0.6297407999954885,1,76,test1,4,0.6299541999978828,-20.0
3,njx,f,22,r,2,(-121.76378772032348, 121.76378772032349),24,-5,12,no,m,6,m,0.8713280000010855,1,77,test1,4,0.8716341999970609,-20.0
3,njx,f,22,r,2,(121.76378772032346, -121.76378772032352),28,-7,13,yes,x,5,x,0.6341663999992306,1,78,test1,4,0.6344009000022197,-52.0
3,njx,f,22,r,2,(-172.20000000000002, 2.1088417881317425e-14),25,-25,14,yes,x,5,x,0.3640906000000541,1,79,test1,4,0.36421530000370694,-70.0
3,njx,f,22,r,2,(-121.76378772032348, 121.76378772032349),24,7,3,yes,x,5,x,0.4780213000049116,1,80,test1,4,0.4782627999957185,-38.0
3,njx,f,22,r,2,(1.0544208940658713e-14, 172.20000000000002),23,-7,13,no,m,6,m,0.7505977999971947,1,81,test1,4,0.7506921000021975,-38.0
3,njx,f,22,r,2,(-121.76378772032352, -121.76378772032348),26,-3,11,no,m,6,m,1.039346099998511,1,82,test1,4,1.03972999999678,-38.0
3,njx,f,22,r,2,(172.20000000000002, 0.0),21,-25,14,no,m,6,m,0.5936632999946596,1,83,test1,4,0.593944799999008,-38.0
3,njx,f,22,r,2,(1.0544208940658713e-14, 172.20000000000002),23,3,1,yes,x,5,x,1.121759399997245,1,84,test1,4,1.12186429999565,-42.0
3,njx,f,22,r,2,(-172.20000000000002, 2.1088417881317425e-14),25,-3,11,yes,x,5,x,0.6817156999968574,1,85,test1,4,0.6818754000050831,-48.0
3,njx,f,22,r,2,(121.76378772032349, 121.76378772032349),22,3,1,no,m,6,m,0.6693252999975812,1,86,test1,4,0.6694569000028423,-48.0
3,njx,f,22,r,2,(1.0544208940658713e-14, 172.20000000000002),23,-5,12,yes,x,5,x,0.5406819999989239,1,87,test1,4,0.5409558999963338,-50.0
3,njx,f,22,r,2,(1.0544208940658713e-14, 172.20000000000002),23,-3,11,no,m,6,m,0.5498797000036575,1,88,test1,4,0.550115400001232,-50.0
3,njx,f,22,r,2,(1.0544208940658713e-14, 172.20000000000002),23,-3,11,yes,x,5,x,0.8419345000002068,1,89,test1,4,0.8420361999960733,-48.0
3,njx,f,22,r,2,(-172.20000000000002, 2.1088417881317425e-14),25,-5,12,no,m,6,m,0.6821494999967399,1,90,test1,4,0.6827201999985846,-48.0
3,njx,f,22,r,2,(-121.76378772032348, 121.76378772032349),24,7,3,no,m,6,x,0.5410598999951617,0,91,test1,4,0.5411592999953427,-48.0
3,njx,f,22,r,2,(172.20000000000002, 0.0),21,-3,11,no,m,6,m,0.7442039000015939,1,92,test1,4,0.7444281999996747,-48.0
3,njx,f,22,r,2,(-3.163262682197613e-14, -172.20000000000002),27,-25,14,yes,x,5,x,0.4824006000053487,1,93,test1,4,0.48303589999704855,-70.0
3,njx,f,22,r,2,(-172.20000000000002, 2.1088417881317425e-14),25,3,1,yes,x,5,x,0.9230674999998882,1,94,test1,4,0.9234470999945188,-42.0
3,njx,f,22,r,2,(121.76378772032346, -121.76378772032352),28,7,3,yes,x,5,x,0.717519199999515,1,95,test1,4,0.7178050000002258,-38.0
3,njx,f,22,r,2,(-121.76378772032352, -121.76378772032348),26,3,1,yes,x,5,m,0.7095614999998361,0,96,test1,4,0.7098045000020647,-42.0
3,njx,f,22,r,2,(-121.76378772032348, 121.76378772032349),24,5,2,yes,x,5,x,0.5704269999987446,1,1,test2,4,0.5707019999972545,-40.0
3,njx,f,22,r,2,(-121.76378772032348, 121.76378772032349),24,-7,13,no,m,6,m,0.6930022000015015,1,2,test2,4,0.6931043000004138,-40.0
3,njx,f,22,r,2,(121.76378772032346, -121.76378772032352),28,25,4,yes,x,5,x,0.4994051000030595,1,3,test2,4,0.4999184999978752,-20.0
3,njx,f,22,r,2,(-3.163262682197613e-14, -172.20000000000002),27,-3,11,no,m,6,m,0.74221569999645,1,4,test2,4,0.7423890999998548,-20.0
3,njx,f,22,r,2,(-3.163262682197613e-14, -172.20000000000002),27,-7,13,yes,x,5,x,0.5044130999958725,1,5,test2,4,0.5046529000028386,-52.0
3,njx,f,22,r,2,(1.0544208940658713e-14, 172.20000000000002),23,-25,14,yes,x,5,x,0.43478760000289185,1,6,test2,4,0.4350092999957269,-70.0
3,njx,f,22,r,2,(-172.20000000000002, 2.1088417881317425e-14),25,-7,13,no,m,6,m,0.6381758999996237,1,7,test2,4,0.6384030999979586,-70.0
3,njx,f,22,r,2,(-121.76378772032348, 121.76378772032349),24,3,1,yes,x,5,x,0.5444387999959872,1,8,test2,4,0.5445707999970182,-42.0
3,njx,f,22,r,2,(1.0544208940658713e-14, 172.20000000000002),23,-5,12,no,m,6,m,0.8105279000010341,1,9,test2,4,0.8107181999948807,-42.0
3,njx,f,22,r,2,(-3.163262682197613e-14, -172.20000000000002),27,-3,11,yes,x,5,x,0.5969304000027478,1,10,test2,4,0.5970693999988725,-48.0
3,njx,f,22,r,2,(172.20000000000002, 0.0),21,5,2,no,m,6,m,0.6528781000015442,1,11,test2,4,0.6529903000046033,-48.0
3,njx,f,22,r,2,(-121.76378772032352, -121.76378772032348),26,-5,12,no,m,6,m,0.6228450000053272,1,12,test2,4,0.6229635999989114,-48.0
3,njx,f,22,r,2,(-121.76378772032348, 121.76378772032349),24,5,2,yes,x,5,x,0.4932868000032613,1,13,test2,4,0.4935217000020202,-40.0
3,njx,f,22,r,2,(1.0544208940658713e-14, 172.20000000000002),23,-3,11,yes,x,5,m,0.7037251000001561,0,14,test2,4,0.7040038999984972,-48.0
3,njx,f,22,r,2,(121.76378772032349, 121.76378772032349),22,7,3,no,m,6,m,0.7166703999973834,1,15,test2,4,0.7169006000040099,-48.0
3,njx,f,22,r,2,(121.76378772032346, -121.76378772032352),28,-25,14,yes,x,5,x,0.682290800003102,1,16,test2,4,0.6825238000019453,-70.0
3,njx,f,22,r,2,(1.0544208940658713e-14, 172.20000000000002),23,25,4,yes,x,5,x,0.4209590000027674,1,17,test2,4,0.4211732000039774,-20.0
3,njx,f,22,r,2,(-3.163262682197613e-14, -172.20000000000002),27,5,2,no,m,6,m,0.9680985000013607,1,18,test2,4,0.9682142000019667,-20.0
3,njx,f,22,r,2,(172.20000000000002, 0.0),21,7,3,yes,x,5,x,0.5821976000006543,1,19,test2,4,0.5823181999949156,-38.0
3,njx,f,22,r,2,(-121.76378772032352, -121.76378772032348),26,-5,12,yes,x,5,x,0.6101512999957777,1,20,test2,4,0.6103383000008762,-50.0
3,njx,f,22,r,2,(172.20000000000002, 0.0),21,-5,12,yes,x,5,x,0.4613727000032668,1,21,test2,4,0.4614870000004885,-50.0
3,njx,f,22,r,2,(172.20000000000002, 0.0),21,25,4,yes,x,5,x,0.4039307999992161,1,22,test2,4,0.40402829999948153,-20.0
3,njx,f,22,r,2,(-172.20000000000002, 2.1088417881317425e-14),25,25,4,no,m,6,m,0.7435336999988067,1,23,test2,4,0.7437702999959583,-20.0
3,njx,f,22,r,2,(121.76378772032346, -121.76378772032352),28,-7,13,yes,x,5,x,0.46586979999847244,1,24,test2,4,0.4661019000050146,-52.0
3,njx,f,22,r,2,(1.0544208940658713e-14, 172.20000000000002),23,3,1,yes,x,5,x,0.995723399995768,1,25,test2,4,0.9961075999963214,-42.0
3,njx,f,22,r,2,(-121.76378772032352, -121.76378772032348),26,7,3,yes,x,5,x,0.5201627999995253,1,26,test2,4,0.5202650999999605,-38.0
3,njx,f,22,r,2,(172.20000000000002, 0.0),21,-7,13,yes,x,5,x,0.5565799999967567,1,27,test2,4,0.5568089000007603,-52.0
3,njx,f,22,r,2,(172.20000000000002, 0.0),21,-7,13,no,m,6,m,0.7147990000012214,1,28,test2,4,0.7150208000020939,-52.0
3,njx,f,22,r,2,(-121.76378772032348, 121.76378772032349),24,-25,14,yes,x,5,x,0.32408469999791123,1,29,test2,4,0.32443729999795323,-70.0
3,njx,f,22,r,2,(121.76378772032349, 121.76378772032349),22,5,2,yes,x,5,m,0.9299136999979964,0,30,test2,4,0.9300654000035138,-40.0
3,njx,f,22,r,2,(-172.20000000000002, 2.1088417881317425e-14),25,-7,13,yes,x,5,x,0.7815287000048556,1,31,test2,4,0.7816290999980993,-52.0
3,njx,f,22,r,2,(-172.20000000000002, 2.1088417881317425e-14),25,7,3,no,m,6,m,0.7466121999968891,1,32,test2,4,0.7467235000003711,-52.0
3,njx,f,22,r,2,(121.76378772032349, 121.76378772032349),22,25,4,no,m,6,m,0.949902900007146,1,33,test2,4,0.9500831000041217,-52.0
3,njx,f,22,r,2,(-121.76378772032348, 121.76378772032349),24,-7,13,yes,x,5,x,0.37779899999441113,1,34,test2,4,0.3780295999968075,-52.0
3,njx,f,22,r,2,(-3.163262682197613e-14, -172.20000000000002),27,-25,14,yes,x,5,x,0.45121759999892674,1,35,test2,4,0.45152979999693343,-70.0
3,njx,f,22,r,2,(172.20000000000002, 0.0),21,25,4,yes,x,5,x,0.4455171000008704,1,36,test2,4,0.4457392999975127,-20.0
3,njx,f,22,r,2,(121.76378772032349, 121.76378772032349),22,7,3,yes,x,5,x,0.4553362000006018,1,37,test2,4,0.4554930999947828,-38.0
3,njx,f,22,r,2,(121.76378772032349, 121.76378772032349),22,-7,13,no,m,6,m,0.7659574000063003,1,38,test2,4,0.7661291000040364,-38.0
3,njx,f,22,r,2,(172.20000000000002, 0.0),21,5,2,yes,x,5,x,0.6445643999977619,1,39,test2,4,0.6447250999990501,-40.0
3,njx,f,22,r,2,(-3.163262682197613e-14, -172.20000000000002),27,-5,12,yes,x,5,x,0.827714900005958,1,40,test2,4,0.8280041999969399,-50.0
3,njx,f,22,r,2,(1.0544208940658713e-14, 172.20000000000002),23,25,4,no,m,6,m,0.805765800003428,1,41,test2,4,0.8059680000005756,-50.0
3,njx,f,22,r,2,(-121.76378772032348, 121.76378772032349),24,-3,11,yes,x,5,m,0.6374781999984407,0,42,test2,4,0.6377099000019371,-48.0
3,njx,f,22,r,2,(121.76378772032349, 121.76378772032349),22,3,1,yes,x,5,x,1.0522723000030965,1,43,test2,4,1.0523757999981171,-42.0
3,njx,f,22,r,2,(121.76378772032349, 121.76378772032349),22,25,4,yes,x,5,x,0.6118557000008877,1,44,test2,4,0.6120612999948207,-20.0
3,njx,f,22,r,2,(-121.76378772032348, 121.76378772032349),24,-7,13,yes,x,5,x,0.46456230000330834,1,45,test2,4,0.4648449000014807,-52.0
3,njx,f,22,r,2,(-3.163262682197613e-14, -172.20000000000002),27,-5,12,yes,x,5,x,0.6565425999942818,1,46,test2,4,0.6569262000048184,-50.0
3,njx,f,22,r,2,(172.20000000000002, 0.0),21,-25,14,yes,x,5,x,0.505561599995417,1,47,test2,4,0.5061954999982845,-70.0
3,njx,f,22,r,2,(-3.163262682197613e-14, -172.20000000000002),27,3,1,no,m,6,m,0.6163143000012496,1,48,test2,4,0.6166456999999355,-70.0
3,njx,f,22,r,2,(-172.20000000000002, 2.1088417881317425e-14),25,3,1,yes,x,5,m,0.8313922000015737,0,49,test2,4,0.8315903999973671,-42.0
3,njx,f,22,r,2,(121.76378772032349, 121.76378772032349),22,5,2,yes,x,5,m,0.7593496999979834,0,50,test2,4,0.7595037999999477,-40.0
3,njx,f,22,r,2,(-3.163262682197613e-14, -172.20000000000002),27,7,3,no,m,6,m,0.8890661999976146,1,51,test2,4,0.8891956000006758,-40.0
3,njx,f,22,r,2,(-121.76378772032348, 121.76378772032349),24,-3,11,yes,x,5,x,0.7205848000012338,1,52,test2,4,0.7207118000005721,-48.0
3,njx,f,22,r,2,(121.76378772032349, 121.76378772032349),22,-3,11,yes,x,5,m,0.6624715000070864,0,53,test2,4,0.6627975999945193,-48.0
3,njx,f,22,r,2,(172.20000000000002, 0.0),21,3,1,yes,x,5,x,1.0298995000048308,1,54,test2,4,1.0301956999974209,-42.0
3,njx,f,22,r,2,(-172.20000000000002, 2.1088417881317425e-14),25,-25,14,no,m,6,m,0.781784399994649,1,55,test2,4,0.7824483000003966,-42.0
3,njx,f,22,r,2,(-121.76378772032348, 121.76378772032349),24,25,4,yes,x,5,x,0.430823100003181,1,56,test2,4,0.4309568999960902,-20.0
3,njx,f,22,r,2,(121.76378772032349, 121.76378772032349),22,-25,14,yes,x,5,x,0.34958679999544984,1,57,test2,4,0.34971930000028806,-70.0
3,njx,f,22,r,2,(121.76378772032346, -121.76378772032352),28,5,2,yes,x,5,x,0.6979523999980302,1,58,test2,4,0.6984429999938584,-40.0
3,njx,f,22,r,2,(-121.76378772032352, -121.76378772032348),26,-7,13,yes,x,5,x,0.52979310000228,1,59,test2,4,0.5299225999988266,-52.0
3,njx,f,22,r,2,(-172.20000000000002, 2.1088417881317425e-14),25,25,4,yes,x,5,x,0.48514370000339113,1,60,test2,4,0.4852485000010347,-20.0
3,njx,f,22,r,2,(121.76378772032349, 121.76378772032349),22,-5,12,no,m,6,m,0.6657110999949509,1,61,test2,4,0.6660963000031188,-20.0
3,njx,f,22,r,2,(121.76378772032346, -121.76378772032352),28,-5,12,no,m,6,m,0.7949723999990965,1,62,test2,4,0.7950722000023234,-20.0
3,njx,f,22,r,2,(172.20000000000002, 0.0),21,-5,12,yes,x,5,x,0.7751730000018142,1,63,test2,4,0.7754653000010876,-50.0
3,njx,f,22,r,2,(-121.76378772032352, -121.76378772032348),26,25,4,no,m,6,m,0.7709226000006311,1,64,test2,4,0.7711616999949911,-50.0
3,njx,f,22,r,2,(-121.76378772032352, -121.76378772032348),26,3,1,no,m,6,m,0.7833587999994052,1,65,test2,4,0.7834613000013633,-50.0
3,njx,f,22,r,2,(-121.76378772032352, -121.76378772032348),26,25,4,yes,x,5,x,0.5351956999948015,1,66,test2,4,0.5354258999941521,-20.0
3,njx,f,22,r,2,(-121.76378772032352, -121.76378772032348),26,7,3,yes,x,5,x,0.680480399998487,1,67,test2,4,0.6807693999944604,-38.0
3,njx,f,22,r,2,(172.20000000000002, 0.0),21,7,3,yes,x,5,x,0.6460229000003892,1,68,test2,4,0.6461511000015889,-38.0
3,njx,f,22,r,2,(-3.163262682197613e-14, -172.20000000000002),27,25,4,yes,x,5,x,0.40292520000366494,1,69,test2,4,0.4031226000006427,-20.0
3,njx,f,22,r,2,(-172.20000000000002, 2.1088417881317425e-14),25,-5,12,yes,x,5,x,0.5871454000007361,1,70,test2,4,0.5875105999948573,-50.0
3,njx,f,22,r,2,(-172.20000000000002, 2.1088417881317425e-14),25,7,3,yes,x,5,x,0.42400389999966137,1,71,test2,4,0.4243906999981846,-38.0
3,njx,f,22,r,2,(121.76378772032346, -121.76378772032352),28,25,4,no,m,6,m,0.6269122999947285,1,72,test2,4,0.6272534000017913,-38.0
3,njx,f,22,r,2,(-3.163262682197613e-14, -172.20000000000002),27,-5,12,no,m,6,m,0.6508340000000317,1,73,test2,4,0.6509345000013127,-38.0
3,njx,f,22,r,2,(121.76378772032346, -121.76378772032352),28,3,1,no,m,6,m,0.9391500999990967,1,74,test2,4,0.9392635999975028,-38.0
3,njx,f,22,r,2,(-121.76378772032352, -121.76378772032348),26,5,2,yes,x,5,x,0.6814738000030047,1,75,test2,4,0.6817885999989812,-40.0
3,njx,f,22,r,2,(121.76378772032346, -121.76378772032352),28,5,2,no,m,6,m,0.6755377999943448,1,76,test2,4,0.6756662000043434,-40.0
3,njx,f,22,r,2,(121.76378772032346, -121.76378772032352),28,-3,11,yes,x,5,m,0.736651899998833,0,77,test2,4,0.736954699998023,-48.0
3,njx,f,22,r,2,(121.76378772032346, -121.76378772032352),28,7,3,no,m,6,m,0.8139881000024616,1,78,test2,4,0.8141032999992603,-48.0
3,njx,f,22,r,2,(121.76378772032349, 121.76378772032349),22,5,2,no,m,6,m,0.651791600001161,1,79,test2,4,0.651905299993814,-48.0
3,njx,f,22,r,2,(-121.76378772032348, 121.76378772032349),24,3,1,yes,x,5,x,1.0839351999966311,1,80,test2,4,1.0840656000000308,-42.0
3,njx,f,22,r,2,(121.76378772032349, 121.76378772032349),22,7,3,yes,x,5,x,0.7506724000049871,1,81,test2,4,0.750869799994689,-38.0
3,njx,f,22,r,2,(121.76378772032346, -121.76378772032352),28,3,1,yes,x,5,x,0.6094054999994114,1,82,test2,4,0.6096431000041775,-42.0
3,njx,f,22,r,2,(121.76378772032346, -121.76378772032352),28,-5,12,yes,x,5,x,0.5313741999998456,1,83,test2,4,0.5314788000032422,-50.0
