subj_id,subj_name,subj_gender ,subj_age,subj_handedness,subj_runNum,tar_l_x,tar_l_y,loc_code,tar_ori,tar_code,tar_pre ,cor_response,pre_code,subj_response,RT,correct,trial_num,type,bloc_num,dur, real_tar
3,njx,f,22,r,1,(121.76378772032349, 121.76378772032349),22,-7,13,yes,x,5,None,None,0,1,prac,0,1.980097499996191,-52.0
3,njx,f,22,r,1,(121.76378772032349, 121.76378772032349),22,-5,12,yes,x,5,None,None,0,2,prac,0,1.9800867000012659,-50.0
3,njx,f,22,r,1,(1.0544208940658713e-14, 172.20000000000002),23,5,2,no,m,6,m,1.056186499990872,1,3,prac,0,1.056564900005469,-50.0
3,njx,f,22,r,1,(-172.20000000000002, 2.1088417881317425e-14),25,5,2,no,m,6,m,1.0693836999998894,1,4,prac,0,1.069562099990435,-50.0
3,njx,f,22,r,1,(172.20000000000002, 0.0),21,25,4,no,m,6,m,1.027965100001893,1,5,prac,0,1.0280978999944637,-50.0
3,njx,f,22,r,1,(-3.163262682197613e-14, -172.20000000000002),27,7,3,yes,x,5,x,1.0251040000002831,1,6,prac,0,1.0252226000011433,-38.0
3,njx,f,22,r,1,(172.20000000000002, 0.0),21,5,2,yes,x,5,m,1.0851365999988047,0,7,prac,0,1.0857648999954108,-40.0
3,njx,f,22,r,1,(121.76378772032349, 121.76378772032349),22,-7,13,no,m,6,m,0.9582803999946918,1,8,prac,0,0.9584114999888698,-40.0
3,njx,f,22,r,1,(-172.20000000000002, 2.1088417881317425e-14),25,-3,11,yes,x,5,m,1.077567899992573,0,9,prac,0,1.0780056999938097,-48.0
3,njx,f,22,r,1,(-121.76378772032348, 121.76378772032349),24,-7,13,yes,x,5,x,0.987486700003501,1,10,prac,0,0.9879512999905273,-52.0
3,njx,f,22,r,1,(-172.20000000000002, 2.1088417881317425e-14),25,-25,14,yes,x,5,x,0.8302628999954322,1,11,prac,0,0.8305428000021493,-70.0
3,njx,f,22,r,1,(121.76378772032349, 121.76378772032349),22,-25,14,no,m,6,m,1.2243705000000773,1,12,prac,0,1.224608199991053,-70.0
3,njx,f,22,r,1,(121.76378772032346, -121.76378772032352),28,-3,11,yes,x,5,m,1.068197800006601,0,13,prac,0,1.0686968000081833,-48.0
3,njx,f,22,r,1,(1.0544208940658713e-14, 172.20000000000002),23,7,3,yes,x,5,x,1.0988390000129584,1,14,prac,0,1.0991568000026746,-38.0
3,njx,f,22,r,1,(-121.76378772032348, 121.76378772032349),24,3,1,yes,x,5,x,1.6524508000002243,1,15,prac,0,1.6526862000027904,-42.0
3,njx,f,22,r,1,(-121.76378772032352, -121.76378772032348),26,25,4,no,m,6,m,1.6071476999932202,1,16,prac,0,1.6072925000044052,-42.0
3,njx,f,22,r,1,(-121.76378772032352, -121.76378772032348),26,-5,12,yes,x,5,x,1.5983548000076553,1,17,prac,0,1.5985228000063216,-50.0
3,njx,f,22,r,1,(-3.163262682197613e-14, -172.20000000000002),27,-5,12,no,m,6,m,1.401178499989328,1,18,prac,0,1.4014853000117,-50.0
3,njx,f,22,r,1,(1.0544208940658713e-14, 172.20000000000002),23,-25,14,no,m,6,x,1.5276536000019405,0,19,prac,0,1.5279762999998638,-50.0
3,njx,f,22,r,1,(-121.76378772032348, 121.76378772032349),24,25,4,no,m,6,m,1.5690323000017088,1,20,prac,0,1.5692845000012312,-50.0
3,njx,f,22,r,1,(121.76378772032349, 121.76378772032349),22,25,4,yes,x,5,x,0.7330884999973932,1,1,test1,1,0.7333800999913365,-20.0
3,njx,f,22,r,1,(1.0544208940658713e-14, 172.20000000000002),23,-5,12,yes,x,5,x,0.9907929000037257,1,2,test1,1,0.9908976000006078,-50.0
3,njx,f,22,r,1,(-3.163262682197613e-14, -172.20000000000002),27,-3,11,yes,x,5,m,0.8916464999929303,0,3,test1,1,0.8917479999945499,-48.0
3,njx,f,22,r,1,(121.76378772032346, -121.76378772032352),28,-25,14,yes,x,5,x,0.8154500999953598,1,4,test1,1,0.8158409000025131,-70.0
3,njx,f,22,r,1,(121.76378772032349, 121.76378772032349),22,7,3,yes,x,5,x,1.1262665999965975,1,5,test1,1,1.1263653999922099,-38.0
3,njx,f,22,r,1,(-3.163262682197613e-14, -172.20000000000002),27,-3,11,yes,x,5,m,1.4900994000054197,0,6,test1,1,1.4903056000039214,-48.0
3,njx,f,22,r,1,(-3.163262682197613e-14, -172.20000000000002),27,5,2,yes,x,5,x,1.2236308999999892,1,7,test1,1,1.2238559999968857,-40.0
3,njx,f,22,r,1,(1.0544208940658713e-14, 172.20000000000002),23,5,2,yes,x,5,x,1.324377299999469,1,8,test1,1,1.324855099999695,-40.0
3,njx,f,22,r,1,(-121.76378772032348, 121.76378772032349),24,5,2,yes,x,5,x,1.4816993999993429,1,9,test1,1,1.4818011000024853,-40.0
3,njx,f,22,r,1,(172.20000000000002, 0.0),21,-3,11,yes,x,5,m,1.393138800005545,0,10,test1,1,1.3933741000073496,-48.0
3,njx,f,22,r,1,(-3.163262682197613e-14, -172.20000000000002),27,-7,13,yes,x,5,x,1.1657399000105215,1,11,test1,1,1.1662617999973008,-52.0
3,njx,f,22,r,1,(-3.163262682197613e-14, -172.20000000000002),27,-3,11,no,m,6,m,1.50775319999957,1,12,test1,1,1.5080158000055235,-52.0
3,njx,f,22,r,1,(-172.20000000000002, 2.1088417881317425e-14),25,7,3,yes,x,5,x,1.268196999997599,1,13,test1,1,1.2686506000027293,-38.0
3,njx,f,22,r,1,(-172.20000000000002, 2.1088417881317425e-14),25,-5,12,yes,x,5,x,1.3697304999950575,1,14,test1,1,1.3699157000082778,-50.0
3,njx,f,22,r,1,(172.20000000000002, 0.0),21,5,2,no,m,6,m,1.7792894000012893,1,15,test1,1,1.7794216999900527,-50.0
3,njx,f,22,r,1,(-121.76378772032352, -121.76378772032348),26,-7,13,no,m,6,m,1.5337379999982659,1,16,test1,1,1.5339346999971895,-50.0
3,njx,f,22,r,1,(-3.163262682197613e-14, -172.20000000000002),27,-7,13,yes,x,5,x,1.1236432000005152,1,17,test1,1,1.1239814000000479,-52.0
3,njx,f,22,r,1,(121.76378772032346, -121.76378772032352),28,7,3,no,m,6,m,1.46908870000334,1,18,test1,1,1.4693761999951676,-52.0
3,njx,f,22,r,1,(-172.20000000000002, 2.1088417881317425e-14),25,5,2,no,m,6,m,1.6238710000034189,1,19,test1,1,1.6239704000036,-52.0
3,njx,f,22,r,1,(-3.163262682197613e-14, -172.20000000000002),27,3,1,yes,x,5,m,1.5665233999898192,0,20,test1,1,1.5667640999890864,-42.0
3,njx,f,22,r,1,(172.20000000000002, 0.0),21,-5,12,yes,x,5,None,None,0,21,test1,1,1.9800938999978825,-50.0
3,njx,f,22,r,1,(-3.163262682197613e-14, -172.20000000000002),27,3,1,no,m,6,m,1.2579741000081412,1,22,test1,1,1.2583004999905825,-50.0
3,njx,f,22,r,1,(-172.20000000000002, 2.1088417881317425e-14),25,-5,12,no,m,6,m,1.2439851999952225,1,23,test1,1,1.2441510999924503,-50.0
3,njx,f,22,r,1,(121.76378772032346, -121.76378772032352),28,25,4,no,m,6,m,1.0460860000021057,1,24,test1,1,1.0462461999995867,-50.0
3,njx,f,22,r,1,(121.76378772032349, 121.76378772032349),22,5,2,yes,x,5,x,1.6701387999928556,1,25,test1,1,1.6703517999994801,-40.0
3,njx,f,22,r,1,(-121.76378772032348, 121.76378772032349),24,-5,12,yes,x,5,x,1.3803167000005487,1,26,test1,1,1.380453600009787,-50.0
3,njx,f,22,r,1,(121.76378772032346, -121.76378772032352),28,-5,12,yes,x,5,None,None,0,27,test1,1,1.980080799999996,-50.0
3,njx,f,22,r,1,(-172.20000000000002, 2.1088417881317425e-14),25,-3,11,yes,x,5,m,0.9920614000002388,0,28,test1,1,0.9922179999994114,-48.0
3,njx,f,22,r,1,(-3.163262682197613e-14, -172.20000000000002),27,7,3,yes,x,5,x,0.8089459000038914,1,29,test1,1,0.8091052999952808,-38.0
3,njx,f,22,r,1,(-121.76378772032348, 121.76378772032349),24,25,4,yes,x,5,x,0.6759890000103042,1,30,test1,1,0.6760855000029551,-20.0
3,njx,f,22,r,1,(1.0544208940658713e-14, 172.20000000000002),23,25,4,yes,x,5,x,0.5231517000065651,1,31,test1,1,0.5233676000061678,-20.0
3,njx,f,22,r,1,(172.20000000000002, 0.0),21,-25,14,no,m,6,m,1.1919742000027327,1,32,test1,1,1.192113299999619,-20.0
3,njx,f,22,r,1,(-3.163262682197613e-14, -172.20000000000002),27,5,2,no,m,6,m,1.1551920999918366,1,33,test1,1,1.15531010000268,-20.0
3,njx,f,22,r,1,(-121.76378772032348, 121.76378772032349),24,-25,14,yes,x,5,x,0.6093117999989772,1,34,test1,1,0.6094271000038134,-70.0
3,njx,f,22,r,1,(1.0544208940658713e-14, 172.20000000000002),23,-7,13,yes,x,5,x,0.9483612000040011,1,35,test1,1,0.9489247000019532,-52.0
3,njx,f,22,r,1,(121.76378772032349, 121.76378772032349),22,-7,13,yes,x,5,x,1.19550290000916,1,36,test1,1,1.195605599990813,-52.0
3,njx,f,22,r,1,(-121.76378772032348, 121.76378772032349),24,5,2,no,m,6,m,0.9183286000043154,1,37,test1,1,0.9187410000013188,-52.0
3,njx,f,22,r,1,(-121.76378772032352, -121.76378772032348),26,-3,11,no,m,6,m,0.9133506999933161,1,38,test1,1,0.9136781999986852,-52.0
3,njx,f,22,r,1,(121.76378772032349, 121.76378772032349),22,3,1,no,m,6,m,1.0155817000049865,1,39,test1,1,1.0157469999976456,-52.0
3,njx,f,22,r,1,(-121.76378772032352, -121.76378772032348),26,-25,14,yes,x,5,x,0.6698865999933332,1,40,test1,1,0.6702170000062324,-70.0
3,njx,f,22,r,1,(-172.20000000000002, 2.1088417881317425e-14),25,-25,14,yes,x,5,x,0.5321857000089949,1,41,test1,1,0.5323839000047883,-70.0
3,njx,f,22,r,1,(-172.20000000000002, 2.1088417881317425e-14),25,-3,11,no,m,6,m,0.7506323999987217,1,42,test1,1,0.7510790999949677,-70.0
3,njx,f,22,r,1,(172.20000000000002, 0.0),21,-3,11,no,m,6,m,1.0263353000045754,1,43,test1,1,1.0264501000056043,-70.0
3,njx,f,22,r,1,(-3.163262682197613e-14, -172.20000000000002),27,25,4,yes,x,5,x,0.5446426999988034,1,44,test1,1,0.5447611999989022,-20.0
3,njx,f,22,r,1,(-172.20000000000002, 2.1088417881317425e-14),25,-7,13,yes,x,5,x,0.589951400004793,1,45,test1,1,0.59035360001144,-52.0
3,njx,f,22,r,1,(1.0544208940658713e-14, 172.20000000000002),23,5,2,yes,x,5,x,1.1260448999964865,1,46,test1,1,1.1261764000082621,-40.0
3,njx,f,22,r,1,(-121.76378772032348, 121.76378772032349),24,-25,14,no,m,6,m,0.8029808999999659,1,47,test1,1,0.8032246000075247,-40.0
3,njx,f,22,r,1,(-172.20000000000002, 2.1088417881317425e-14),25,3,1,yes,x,5,m,0.8637465000065276,0,48,test1,1,0.8639096999977482,-42.0
3,njx,f,22,r,1,(172.20000000000002, 0.0),21,-25,14,yes,x,5,x,0.6118596000014804,1,49,test1,1,0.6119738999987021,-70.0
3,njx,f,22,r,1,(1.0544208940658713e-14, 172.20000000000002),23,3,1,no,m,6,m,1.0191015000018524,1,50,test1,1,1.019351099996129,-70.0
3,njx,f,22,r,1,(-172.20000000000002, 2.1088417881317425e-14),25,-5,12,yes,x,5,x,1.167287899996154,1,51,test1,1,1.1674205000017537,-50.0
3,njx,f,22,r,1,(121.76378772032349, 121.76378772032349),22,-25,14,yes,x,5,x,0.6794524000142701,1,52,test1,1,0.6796826999925543,-70.0
3,njx,f,22,r,1,(121.76378772032349, 121.76378772032349),22,-3,11,no,m,6,m,0.9874572000117041,1,53,test1,1,0.9875575000041863,-70.0
3,njx,f,22,r,1,(-121.76378772032348, 121.76378772032349),24,3,1,yes,x,5,m,1.1355068999982905,0,54,test1,1,1.1357320999959484,-42.0
3,njx,f,22,r,1,(121.76378772032349, 121.76378772032349),22,-7,13,yes,x,5,x,0.8755090000049677,1,55,test1,1,0.8761974000080954,-52.0
3,njx,f,22,r,1,(1.0544208940658713e-14, 172.20000000000002),23,7,3,yes,x,5,x,0.7536640000034822,1,56,test1,1,0.7538679999997839,-38.0
3,njx,f,22,r,1,(-121.76378772032352, -121.76378772032348),26,-25,14,no,m,6,m,0.9712770000041928,1,57,test1,1,0.9715028000064194,-38.0
3,njx,f,22,r,1,(172.20000000000002, 0.0),21,5,2,yes,x,5,m,0.9825597000017297,0,58,test1,1,0.9827450000011595,-40.0
3,njx,f,22,r,1,(-121.76378772032348, 121.76378772032349),24,-7,13,yes,x,5,x,0.7369212000048719,1,59,test1,1,0.7371508999931393,-52.0
3,njx,f,22,r,1,(1.0544208940658713e-14, 172.20000000000002),23,-5,12,yes,x,5,x,0.7426290000003064,1,60,test1,1,0.7427440999890678,-50.0
3,njx,f,22,r,1,(-172.20000000000002, 2.1088417881317425e-14),25,5,2,yes,x,5,m,1.077089700003853,0,61,test1,1,1.0773914000019431,-40.0
3,njx,f,22,r,1,(-121.76378772032352, -121.76378772032348),26,-7,13,yes,x,5,x,1.0961639000015566,1,62,test1,1,1.0963659000117332,-52.0
3,njx,f,22,r,1,(1.0544208940658713e-14, 172.20000000000002),23,-3,11,yes,x,5,x,1.8285085999959847,1,63,test1,1,1.8286480999959167,-48.0
3,njx,f,22,r,1,(1.0544208940658713e-14, 172.20000000000002),23,25,4,no,m,6,m,0.7872224000020651,1,64,test1,1,0.7876886000012746,-48.0
3,njx,f,22,r,1,(-121.76378772032352, -121.76378772032348),26,3,1,yes,x,5,m,0.7686157999996794,0,65,test1,1,0.7687165999959689,-42.0
3,njx,f,22,r,1,(-121.76378772032352, -121.76378772032348),26,7,3,no,m,6,m,1.1159517000050982,1,66,test1,1,1.1161946000065655,-42.0
3,njx,f,22,r,1,(121.76378772032346, -121.76378772032352),28,3,1,yes,x,5,m,1.1961487000080524,0,67,test1,1,1.1964423000026727,-42.0
3,njx,f,22,r,1,(121.76378772032346, -121.76378772032352),28,-3,11,yes,x,5,m,1.2648617999948328,0,68,test1,1,1.2652024999988498,-48.0
3,njx,f,22,r,1,(-121.76378772032352, -121.76378772032348),26,7,3,yes,x,5,x,1.0110513999970863,1,69,test1,1,1.0112839999928838,-38.0
3,njx,f,22,r,1,(-121.76378772032352, -121.76378772032348),26,5,2,no,m,6,m,0.9813155000010738,1,70,test1,1,0.9816892000089865,-38.0
3,njx,f,22,r,1,(-3.163262682197613e-14, -172.20000000000002),27,-5,12,no,m,6,m,1.3913501000060933,1,71,test1,1,1.3915746999991825,-38.0
3,njx,f,22,r,1,(172.20000000000002, 0.0),21,-7,13,no,m,6,m,1.0972181999968598,1,72,test1,1,1.0973656999995,-38.0
3,njx,f,22,r,1,(1.0544208940658713e-14, 172.20000000000002),23,-7,13,yes,x,5,x,0.6570377000025474,1,73,test1,1,0.6572561999928439,-52.0
3,njx,f,22,r,1,(121.76378772032346, -121.76378772032352),28,25,4,yes,x,5,x,0.8417207000020426,1,74,test1,1,0.8420023000071524,-20.0
3,njx,f,22,r,1,(-121.76378772032352, -121.76378772032348),26,3,1,yes,x,5,m,0.9521383999963291,0,75,test1,1,0.9525080000021262,-42.0
3,njx,f,22,r,1,(1.0544208940658713e-14, 172.20000000000002),23,-25,14,yes,x,5,x,0.6870710999937728,1,76,test1,1,0.6875820999994176,-70.0
3,njx,f,22,r,1,(-121.76378772032352, -121.76378772032348),26,-3,11,yes,x,5,m,1.636919199998374,0,77,test1,1,1.6370253000059165,-48.0
3,njx,f,22,r,1,(1.0544208940658713e-14, 172.20000000000002),23,7,3,yes,x,5,x,0.9798730999900727,1,78,test1,1,0.9799766999931308,-38.0
3,njx,f,22,r,1,(-172.20000000000002, 2.1088417881317425e-14),25,25,4,yes,x,5,x,0.7418317999981809,1,79,test1,1,0.7420679999922868,-20.0
3,njx,f,22,r,1,(121.76378772032346, -121.76378772032352),28,7,3,yes,x,5,x,1.4110779000038747,1,80,test1,1,1.4111940000002505,-38.0
3,njx,f,22,r,1,(-172.20000000000002, 2.1088417881317425e-14),25,25,4,yes,x,5,x,0.8575056000117911,1,81,test1,1,0.8577379000053043,-20.0
3,njx,f,22,r,1,(121.76378772032349, 121.76378772032349),22,-5,12,no,m,6,m,1.4314764000009745,1,82,test1,1,1.4318631000060122,-20.0
3,njx,f,22,r,1,(-121.76378772032348, 121.76378772032349),24,-3,11,yes,x,5,None,None,0,83,test1,1,1.98009510000702,-48.0
3,njx,f,22,r,1,(-121.76378772032348, 121.76378772032349),24,-7,13,yes,x,5,x,0.6322167000034824,1,84,test1,1,0.6328607000032207,-52.0
3,njx,f,22,r,1,(172.20000000000002, 0.0),21,3,1,yes,x,5,m,0.8215636999957496,0,85,test1,1,0.8218004000082146,-42.0
3,njx,f,22,r,1,(-121.76378772032348, 121.76378772032349),24,-7,13,no,m,6,m,1.0674066000065068,1,86,test1,1,1.0679462999978568,-42.0
3,njx,f,22,r,1,(172.20000000000002, 0.0),21,25,4,no,m,6,m,0.8541038999974262,1,87,test1,1,0.8542686000000685,-42.0
3,njx,f,22,r,1,(1.0544208940658713e-14, 172.20000000000002),23,-3,11,no,m,6,m,0.7306895000074292,1,88,test1,1,0.7309152999951039,-42.0
3,njx,f,22,r,1,(-121.76378772032348, 121.76378772032349),24,25,4,yes,x,5,x,0.566373299996485,1,89,test1,1,0.5664679000037722,-20.0
3,njx,f,22,r,1,(121.76378772032346, -121.76378772032352),28,-25,14,no,m,6,m,0.9316267000103835,1,90,test1,1,0.931759700004477,-20.0
3,njx,f,22,r,1,(172.20000000000002, 0.0),21,-5,12,yes,x,5,x,0.9979399000003468,1,91,test1,1,0.9980431999865687,-50.0
3,njx,f,22,r,1,(-3.163262682197613e-14, -172.20000000000002),27,3,1,yes,x,5,x,1.1235580000065966,1,92,test1,1,1.1239459999924293,-42.0
3,njx,f,22,r,1,(172.20000000000002, 0.0),21,25,4,yes,x,5,x,0.8114204999874346,1,93,test1,1,0.8117278999998234,-20.0
3,njx,f,22,r,1,(121.76378772032346, -121.76378772032352),28,-7,13,yes,x,5,x,0.985624100008863,1,94,test1,1,0.985862100002123,-52.0
3,njx,f,22,r,1,(172.20000000000002, 0.0),21,-7,13,yes,x,5,x,0.6550917999993544,1,95,test1,1,0.6552066000003833,-52.0
3,njx,f,22,r,1,(-121.76378772032352, -121.76378772032348),26,-5,12,no,m,6,m,1.120506999999634,1,96,test1,1,1.1210626999964006,-52.0
3,njx,f,22,r,1,(-172.20000000000002, 2.1088417881317425e-14),25,3,1,no,m,6,m,1.3963217999989865,1,1,test2,1,1.396565000002738,-52.0
3,njx,f,22,r,1,(-121.76378772032352, -121.76378772032348),26,-3,11,yes,x,5,m,0.8160943999973824,0,2,test2,1,0.81621200000518,-48.0
3,njx,f,22,r,1,(121.76378772032349, 121.76378772032349),22,-7,13,no,m,6,m,0.9062634000001708,1,3,test2,1,0.9064834000018891,-48.0
3,njx,f,22,r,1,(-172.20000000000002, 2.1088417881317425e-14),25,7,3,no,m,6,m,0.8749357000051532,1,4,test2,1,0.8754424000071594,-48.0
3,njx,f,22,r,1,(121.76378772032346, -121.76378772032352),28,7,3,yes,x,5,x,0.6895199999999022,1,5,test2,1,0.6896815999934915,-38.0
3,njx,f,22,r,1,(-121.76378772032352, -121.76378772032348),26,-5,12,yes,x,5,m,0.9010164000064833,0,6,test2,1,0.9011194000049727,-50.0
3,njx,f,22,r,1,(121.76378772032346, -121.76378772032352),28,5,2,yes,x,5,x,0.854601700004423,1,7,test2,1,0.8549536999926204,-40.0
3,njx,f,22,r,1,(121.76378772032346, -121.76378772032352),28,-7,13,no,m,6,m,0.8575088000070537,1,8,test2,1,0.8576240999973379,-40.0
3,njx,f,22,r,1,(121.76378772032346, -121.76378772032352),28,-3,11,no,m,6,m,0.7310125000076368,1,9,test2,1,0.7312157999986084,-40.0
3,njx,f,22,r,1,(-121.76378772032348, 121.76378772032349),24,-25,14,yes,x,5,x,0.6059726000094088,1,10,test2,1,0.606279400002677,-70.0
3,njx,f,22,r,1,(-3.163262682197613e-14, -172.20000000000002),27,25,4,yes,x,5,x,0.7903002999955788,1,11,test2,1,0.7904982999898493,-20.0
3,njx,f,22,r,1,(-121.76378772032352, -121.76378772032348),26,-25,14,yes,x,5,x,0.4941854000062449,1,12,test2,1,0.49430069999652915,-70.0
3,njx,f,22,r,1,(172.20000000000002, 0.0),21,-7,13,yes,x,5,x,0.7829949000006309,1,13,test2,1,0.7831813999946462,-52.0
3,njx,f,22,r,1,(121.76378772032349, 121.76378772032349),22,-5,12,yes,x,5,x,0.7206776999955764,1,14,test2,1,0.7207798000017647,-50.0
3,njx,f,22,r,1,(-3.163262682197613e-14, -172.20000000000002),27,-5,12,yes,x,5,x,0.7502316000027349,1,15,test2,1,0.7504551000020001,-50.0
3,njx,f,22,r,1,(-121.76378772032348, 121.76378772032349),24,7,3,no,m,6,m,1.1875684999977238,1,16,test2,1,1.1877021999971475,-50.0
3,njx,f,22,r,1,(121.76378772032346, -121.76378772032352),28,-25,14,yes,x,5,x,0.6254226000019116,1,17,test2,1,0.6255545000021812,-70.0
3,njx,f,22,r,1,(172.20000000000002, 0.0),21,3,1,yes,x,5,m,1.1938700000027893,0,18,test2,1,1.1942627999960678,-42.0
3,njx,f,22,r,1,(121.76378772032349, 121.76378772032349),22,3,1,yes,x,5,m,1.297453699997277,0,19,test2,1,1.297576700002537,-42.0
3,njx,f,22,r,1,(-3.163262682197613e-14, -172.20000000000002),27,25,4,no,m,6,m,1.2951413999981014,1,20,test2,1,1.2953571000107331,-42.0
3,njx,f,22,r,1,(-121.76378772032348, 121.76378772032349),24,3,1,no,m,6,m,1.2172643999947468,1,21,test2,1,1.2176212999911513,-42.0
3,njx,f,22,r,1,(-172.20000000000002, 2.1088417881317425e-14),25,-3,11,yes,x,5,m,1.1438064000103623,0,22,test2,1,1.1443714999913936,-48.0
3,njx,f,22,r,1,(-172.20000000000002, 2.1088417881317425e-14),25,3,1,yes,x,5,m,1.031394799996633,0,23,test2,1,1.031497899995884,-42.0
3,njx,f,22,r,1,(-121.76378772032348, 121.76378772032349),24,5,2,yes,x,5,x,0.7225847999943653,1,24,test2,1,0.7227082000026712,-40.0
3,njx,f,22,r,1,(-121.76378772032348, 121.76378772032349),24,25,4,no,m,6,m,1.31578360000276,1,25,test2,1,1.31602089999069,-40.0
3,njx,f,22,r,1,(121.76378772032346, -121.76378772032352),28,5,2,yes,x,5,x,1.43120189999172,1,26,test2,1,1.4313704000087455,-40.0
3,njx,f,22,r,1,(121.76378772032346, -121.76378772032352),28,25,4,yes,x,5,x,0.8759045000042534,1,27,test2,1,0.8763004999927944,-20.0
3,njx,f,22,r,1,(-3.163262682197613e-14, -172.20000000000002),27,5,2,yes,x,5,x,0.759438199995202,1,28,test2,1,0.7597300000052201,-40.0
3,njx,f,22,r,1,(1.0544208940658713e-14, 172.20000000000002),23,-25,14,yes,x,5,x,0.6665763000055449,1,29,test2,1,0.6667417999997269,-70.0
3,njx,f,22,r,1,(-172.20000000000002, 2.1088417881317425e-14),25,25,4,no,m,6,m,1.0029414000018733,1,30,test2,1,1.0031041000038385,-70.0
3,njx,f,22,r,1,(121.76378772032346, -121.76378772032352),28,-3,11,yes,x,5,x,1.0743144000007305,1,31,test2,1,1.0744910000066739,-48.0
3,njx,f,22,r,1,(-172.20000000000002, 2.1088417881317425e-14),25,7,3,yes,x,5,x,0.9109293999936199,1,32,test2,1,0.9110346999950707,-38.0
3,njx,f,22,r,1,(121.76378772032349, 121.76378772032349),22,-3,11,yes,x,5,x,1.0755910000007134,1,33,test2,1,1.0757207999995444,-48.0
3,njx,f,22,r,1,(172.20000000000002, 0.0),21,-3,11,yes,x,5,x,0.9399369999882765,1,34,test2,1,0.9406521000055363,-48.0
3,njx,f,22,r,1,(121.76378772032349, 121.76378772032349),22,5,2,no,m,6,m,1.2807287000032375,1,35,test2,1,1.2810496000020066,-48.0
3,njx,f,22,r,1,(121.76378772032349, 121.76378772032349),22,-25,14,yes,x,5,x,0.7104454999935115,1,36,test2,1,0.7106225000025006,-70.0
3,njx,f,22,r,1,(121.76378772032346, -121.76378772032352),28,-5,12,yes,x,5,x,1.169453099995735,1,37,test2,1,1.1696752999996534,-50.0
3,njx,f,22,r,1,(121.76378772032349, 121.76378772032349),22,5,2,yes,x,5,x,0.8004904999979772,1,38,test2,1,0.8006831999955466,-40.0
3,njx,f,22,r,1,(-121.76378772032352, -121.76378772032348),26,-5,12,yes,x,5,x,0.9978262999939034,1,39,test2,1,0.997994799996377,-50.0
3,njx,f,22,r,1,(-121.76378772032348, 121.76378772032349),24,3,1,yes,x,5,m,0.9772670999955153,0,40,test2,1,0.9774994999897899,-42.0
3,njx,f,22,r,1,(-3.163262682197613e-14, -172.20000000000002),27,-25,14,no,m,6,m,1.0074543000082485,1,41,test2,1,1.0075773999997182,-42.0
3,njx,f,22,r,1,(-172.20000000000002, 2.1088417881317425e-14),25,-7,13,yes,x,5,x,0.6322466999990866,1,42,test2,1,0.6324679999961518,-52.0
3,njx,f,22,r,1,(-121.76378772032352, -121.76378772032348),26,25,4,yes,x,5,x,0.8062858999910532,1,43,test2,1,0.8064097999886144,-20.0
3,njx,f,22,r,1,(121.76378772032349, 121.76378772032349),22,7,3,no,m,6,m,0.8012130000133766,1,44,test2,1,0.8014432000054512,-20.0
3,njx,f,22,r,1,(-121.76378772032352, -121.76378772032348),26,7,3,yes,x,5,x,0.7126233000017237,1,45,test2,1,0.7128488999878755,-38.0
3,njx,f,22,r,1,(1.0544208940658713e-14, 172.20000000000002),23,-25,14,no,m,6,m,0.807517099994584,1,46,test2,1,0.807757100003073,-38.0
3,njx,f,22,r,1,(121.76378772032346, -121.76378772032352),28,3,1,no,m,6,m,1.1096078999980818,1,47,test2,1,1.1097076000005472,-38.0
3,njx,f,22,r,1,(-121.76378772032348, 121.76378772032349),24,-5,12,no,m,6,m,0.9705485000013141,1,48,test2,1,0.9710859000042547,-38.0
3,njx,f,22,r,1,(-121.76378772032352, -121.76378772032348),26,5,2,yes,x,5,x,1.1383422000071732,1,49,test2,1,1.1385413999960292,-40.0
3,njx,f,22,r,1,(-172.20000000000002, 2.1088417881317425e-14),25,5,2,yes,x,5,x,0.8030650000000605,1,50,test2,1,0.8033033000101568,-40.0
3,njx,f,22,r,1,(-121.76378772032348, 121.76378772032349),24,7,3,yes,x,5,x,0.8241321999958018,1,51,test2,1,0.8243586000025971,-38.0
3,njx,f,22,r,1,(172.20000000000002, 0.0),21,-5,12,no,m,6,m,0.843465500001912,1,52,test2,1,0.8435940000053961,-38.0
3,njx,f,22,r,1,(1.0544208940658713e-14, 172.20000000000002),23,-3,11,yes,x,5,m,1.1021514000021853,0,53,test2,1,1.1024554000032367,-48.0
3,njx,f,22,r,1,(121.76378772032346, -121.76378772032352),28,-7,13,yes,x,5,x,0.8260286000004271,1,54,test2,1,0.8262135999975726,-52.0
3,njx,f,22,r,1,(-121.76378772032352, -121.76378772032348),26,25,4,no,m,6,m,0.8497013000014704,1,55,test2,1,0.8502836999978172,-52.0
3,njx,f,22,r,1,(-3.163262682197613e-14, -172.20000000000002),27,7,3,yes,x,5,x,0.737804899996263,1,56,test2,1,0.7379318000021158,-38.0
3,njx,f,22,r,1,(1.0544208940658713e-14, 172.20000000000002),23,7,3,no,m,6,m,0.9259779999993043,1,57,test2,1,0.9263156999950297,-38.0
3,njx,f,22,r,1,(-3.163262682197613e-14, -172.20000000000002),27,-25,14,yes,x,5,x,0.6013475000072503,1,58,test2,1,0.6016300999908708,-70.0
3,njx,f,22,r,1,(-121.76378772032348, 121.76378772032349),24,7,3,yes,x,5,x,0.6726522999961162,1,59,test2,1,0.6727513000078034,-38.0
3,njx,f,22,r,1,(121.76378772032346, -121.76378772032352),28,3,1,yes,x,5,m,1.2402303999988362,0,60,test2,1,1.2403998999943724,-42.0
3,njx,f,22,r,1,(1.0544208940658713e-14, 172.20000000000002),23,3,1,yes,x,5,m,1.3098043999925721,0,61,test2,1,1.3099214999965625,-42.0
3,njx,f,22,r,1,(-172.20000000000002, 2.1088417881317425e-14),25,-25,14,yes,x,5,x,0.6189026000065496,1,62,test2,1,0.6190801000047941,-70.0
3,njx,f,22,r,1,(-121.76378772032352, -121.76378772032348),26,-7,13,yes,x,5,x,0.7800067999924067,1,63,test2,1,0.7801279999985127,-52.0
3,njx,f,22,r,1,(1.0544208940658713e-14, 172.20000000000002),23,5,2,no,m,6,m,1.0860313999874052,1,64,test2,1,1.0861586000100942,-52.0
3,njx,f,22,r,1,(1.0544208940658713e-14, 172.20000000000002),23,-5,12,no,m,6,m,0.8900814999942668,1,65,test2,1,0.8902039999957196,-52.0
3,njx,f,22,r,1,(121.76378772032349, 121.76378772032349),22,-25,14,no,m,6,m,0.8088136000005761,1,66,test2,1,0.8091122000041651,-52.0
3,njx,f,22,r,1,(172.20000000000002, 0.0),21,5,2,yes,x,5,x,0.7406327999924542,1,67,test2,1,0.7407633999973768,-40.0
3,njx,f,22,r,1,(-3.163262682197613e-14, -172.20000000000002),27,-5,12,yes,x,5,x,1.1587568999966606,1,68,test2,1,1.1589860000094632,-50.0
3,njx,f,22,r,1,(172.20000000000002, 0.0),21,7,3,yes,x,5,x,0.7013192000013078,1,69,test2,1,0.7014406999951461,-38.0
3,njx,f,22,r,1,(-3.163262682197613e-14, -172.20000000000002),27,7,3,no,m,6,m,0.809858799999347,1,70,test2,1,0.8101004000054672,-38.0
3,njx,f,22,r,1,(-172.20000000000002, 2.1088417881317425e-14),25,-25,14,no,m,6,m,0.7480144999863114,1,71,test2,1,0.748297599988291,-38.0
3,njx,f,22,r,1,(172.20000000000002, 0.0),21,7,3,no,m,6,m,0.8598427999968408,1,72,test2,1,0.8600979000038933,-38.0
3,njx,f,22,r,1,(121.76378772032346, -121.76378772032352),28,5,2,no,m,6,m,0.9929690999997547,1,73,test2,1,0.9932082000013907,-38.0
3,njx,f,22,r,1,(172.20000000000002, 0.0),21,7,3,yes,x,5,x,0.5796574999985751,1,74,test2,1,0.579874999995809,-38.0
3,njx,f,22,r,1,(172.20000000000002, 0.0),21,25,4,yes,x,5,x,1.018853500005207,1,75,test2,1,1.0193806000024779,-20.0
3,njx,f,22,r,1,(121.76378772032349, 121.76378772032349),22,-3,11,yes,x,5,m,0.7365682000090601,0,76,test2,1,0.736699300003238,-48.0
3,njx,f,22,r,1,(172.20000000000002, 0.0),21,-25,14,yes,x,5,x,0.735839400003897,1,77,test2,1,0.736006000006455,-70.0
3,njx,f,22,r,1,(121.76378772032349, 121.76378772032349),22,25,4,yes,x,5,x,0.6134835999982897,1,78,test2,1,0.6136479999986477,-20.0
3,njx,f,22,r,1,(121.76378772032349, 121.76378772032349),22,25,4,no,m,6,m,0.9576640000013867,1,79,test2,1,0.9577663999953074,-20.0
3,njx,f,22,r,1,(-121.76378772032348, 121.76378772032349),24,-3,11,no,m,6,m,0.849294400002691,1,80,test2,1,0.8496678000083193,-20.0
3,njx,f,22,r,1,(1.0544208940658713e-14, 172.20000000000002),23,25,4,yes,x,5,x,0.7230495999974664,1,81,test2,1,0.7232230000081472,-20.0
3,njx,f,22,r,1,(-3.163262682197613e-14, -172.20000000000002),27,-7,13,no,m,6,m,0.8479685999918729,1,82,test2,1,0.8482371999998577,-20.0
3,njx,f,22,r,1,(-3.163262682197613e-14, -172.20000000000002),27,-25,14,yes,x,5,x,0.6620548999926541,1,83,test2,1,0.6621585999964736,-70.0
3,njx,f,22,r,1,(-121.76378772032352, -121.76378772032348),26,3,1,no,m,6,m,0.7049742999952286,1,84,test2,1,0.7053952000132995,-70.0
3,njx,f,22,r,1,(121.76378772032346, -121.76378772032352),28,-5,12,no,m,6,m,0.7670496000064304,1,85,test2,1,0.7673573000065517,-70.0
3,njx,f,22,r,1,(-121.76378772032348, 121.76378772032349),24,-5,12,yes,x,5,x,0.6566334000090137,1,86,test2,1,0.6568417999951635,-50.0
3,njx,f,22,r,1,(121.76378772032349, 121.76378772032349),22,7,3,yes,x,5,x,0.9007870000059484,1,87,test2,1,0.9009535000077449,-38.0
3,njx,f,22,r,1,(1.0544208940658713e-14, 172.20000000000002),23,-7,13,no,m,6,m,0.7220030000025872,1,88,test2,1,0.7221819999977015,-38.0
3,njx,f,22,r,1,(-172.20000000000002, 2.1088417881317425e-14),25,-7,13,no,m,6,m,0.7941812999924878,1,89,test2,1,0.7942819999880157,-38.0
3,njx,f,22,r,1,(-121.76378772032352, -121.76378772032348),26,25,4,yes,x,5,x,0.6105077000102028,1,90,test2,1,0.6111642000032589,-20.0
3,njx,f,22,r,1,(121.76378772032349, 121.76378772032349),22,3,1,yes,x,5,m,1.2767610000009881,0,91,test2,1,1.276990599988494,-42.0
3,njx,f,22,r,1,(121.76378772032349, 121.76378772032349),22,-5,12,yes,x,5,x,1.1822477000096114,1,92,test2,1,1.1824024000088684,-50.0
3,njx,f,22,r,1,(-121.76378772032348, 121.76378772032349),24,-3,11,yes,x,5,x,1.1257885999948485,1,93,test2,1,1.1260589999874355,-48.0
3,njx,f,22,r,1,(172.20000000000002, 0.0),21,3,1,no,m,6,m,0.804967599993688,1,94,test2,1,0.8051953999965917,-48.0
3,njx,f,22,r,1,(-121.76378772032352, -121.76378772032348),26,5,2,yes,x,5,x,0.7269580000138376,1,95,test2,1,0.7276927000057185,-40.0
3,njx,f,22,r,1,(1.0544208940658713e-14, 172.20000000000002),23,3,1,yes,x,5,m,1.3710333000053652,0,96,test2,1,1.3711964000103762,-42.0
3,njx,f,22,r,1,(121.76378772032349, 121.76378772032349),22,25,4,yes,x,5,x,0.8775633999903221,1,1,test1,2,0.8781088000105228,-20.0
3,njx,f,22,r,1,(1.0544208940658713e-14, 172.20000000000002),23,-5,12,yes,x,5,x,0.6057628999988083,1,2,test1,2,0.606197200002498,-50.0
3,njx,f,22,r,1,(-3.163262682197613e-14, -172.20000000000002),27,-3,11,yes,x,5,m,1.0056657999957679,0,3,test1,2,1.0058818999968935,-48.0
3,njx,f,22,r,1,(121.76378772032346, -121.76378772032352),28,-25,14,yes,x,5,x,0.6218345999950543,1,4,test1,2,0.622464799991576,-70.0
3,njx,f,22,r,1,(121.76378772032349, 121.76378772032349),22,7,3,yes,x,5,x,0.6887598999892361,1,5,test1,2,0.6888726000033785,-38.0
3,njx,f,22,r,1,(-3.163262682197613e-14, -172.20000000000002),27,-3,11,yes,x,5,x,1.081600299992715,1,6,test1,2,1.0817927999887615,-48.0
3,njx,f,22,r,1,(-3.163262682197613e-14, -172.20000000000002),27,5,2,yes,x,5,x,0.9469134000100894,1,7,test1,2,0.9470143000071403,-40.0
3,njx,f,22,r,1,(1.0544208940658713e-14, 172.20000000000002),23,5,2,yes,x,5,x,0.5730838000017684,1,8,test1,2,0.5732148999959463,-40.0
3,njx,f,22,r,1,(-121.76378772032348, 121.76378772032349),24,5,2,yes,x,5,x,0.8429157999926247,1,9,test1,2,0.843133400005172,-40.0
3,njx,f,22,r,1,(172.20000000000002, 0.0),21,-3,11,yes,x,5,m,1.1435756999999285,0,10,test1,2,1.1438057999912417,-48.0
3,njx,f,22,r,1,(-3.163262682197613e-14, -172.20000000000002),27,-7,13,yes,x,5,x,0.665837399996235,1,11,test1,2,0.6659592999931192,-52.0
3,njx,f,22,r,1,(-3.163262682197613e-14, -172.20000000000002),27,-3,11,no,m,6,m,0.8438470999972196,1,12,test1,2,0.8440630999975838,-52.0
3,njx,f,22,r,1,(-172.20000000000002, 2.1088417881317425e-14),25,7,3,yes,x,5,x,0.5890052000031574,1,13,test1,2,0.5893926999997348,-38.0
3,njx,f,22,r,1,(-172.20000000000002, 2.1088417881317425e-14),25,-5,12,yes,x,5,x,0.5903865000000224,1,14,test1,2,0.5905571000039345,-50.0
3,njx,f,22,r,1,(172.20000000000002, 0.0),21,5,2,no,m,6,m,1.0286749000078999,1,15,test1,2,1.0289023999939673,-50.0
3,njx,f,22,r,1,(-121.76378772032352, -121.76378772032348),26,-7,13,no,m,6,m,0.8217574000009336,1,16,test1,2,0.8220034000114538,-50.0
3,njx,f,22,r,1,(-3.163262682197613e-14, -172.20000000000002),27,-7,13,yes,x,5,x,0.6864950000017416,1,17,test1,2,0.6865950000064913,-52.0
3,njx,f,22,r,1,(121.76378772032346, -121.76378772032352),28,7,3,no,m,6,m,0.9069092999998247,1,18,test1,2,0.9070875000033993,-52.0
3,njx,f,22,r,1,(-172.20000000000002, 2.1088417881317425e-14),25,5,2,no,m,6,m,0.8425694000034127,1,19,test1,2,0.8430220999871381,-52.0
3,njx,f,22,r,1,(-3.163262682197613e-14, -172.20000000000002),27,3,1,yes,x,5,x,0.7141607999947155,1,20,test1,2,0.7145056000008481,-42.0
3,njx,f,22,r,1,(172.20000000000002, 0.0),21,-5,12,yes,x,5,x,0.8912958000000799,1,21,test1,2,0.8916038000024855,-50.0
3,njx,f,22,r,1,(-3.163262682197613e-14, -172.20000000000002),27,3,1,no,m,6,x,1.5414262999984203,0,22,test1,2,1.5415841000067303,-50.0
3,njx,f,22,r,1,(-172.20000000000002, 2.1088417881317425e-14),25,-5,12,no,m,6,m,0.712672499998007,1,23,test1,2,0.7127909000118962,-50.0
3,njx,f,22,r,1,(121.76378772032346, -121.76378772032352),28,25,4,no,m,6,m,0.8355816999974195,1,24,test1,2,0.8356802000052994,-50.0
3,njx,f,22,r,1,(121.76378772032349, 121.76378772032349),22,5,2,yes,x,5,x,0.8638191999925766,1,25,test1,2,0.8639800999953877,-40.0
3,njx,f,22,r,1,(-121.76378772032348, 121.76378772032349),24,-5,12,yes,x,5,x,0.7720955999975558,1,26,test1,2,0.7722127999877557,-50.0
3,njx,f,22,r,1,(121.76378772032346, -121.76378772032352),28,-5,12,yes,x,5,x,0.9434556999913184,1,27,test1,2,0.944136799997068,-50.0
3,njx,f,22,r,1,(-172.20000000000002, 2.1088417881317425e-14),25,-3,11,yes,x,5,x,1.2149206000030972,1,28,test1,2,1.2150427000015043,-48.0
3,njx,f,22,r,1,(-3.163262682197613e-14, -172.20000000000002),27,7,3,yes,x,5,x,0.7799395000038203,1,29,test1,2,0.7802814000024227,-38.0
3,njx,f,22,r,1,(-121.76378772032348, 121.76378772032349),24,25,4,yes,x,5,x,0.6385794999951031,1,30,test1,2,0.6386827999958768,-20.0
3,njx,f,22,r,1,(1.0544208940658713e-14, 172.20000000000002),23,25,4,yes,x,5,x,0.5452976999949897,1,31,test1,2,0.5454330000065966,-20.0
3,njx,f,22,r,1,(172.20000000000002, 0.0),21,-25,14,no,m,6,m,0.8447726000013063,1,32,test1,2,0.8448874999885447,-20.0
3,njx,f,22,r,1,(-3.163262682197613e-14, -172.20000000000002),27,5,2,no,m,6,m,1.2261431000079028,1,33,test1,2,1.2262966999987839,-20.0
3,njx,f,22,r,1,(-121.76378772032348, 121.76378772032349),24,-25,14,yes,x,5,x,0.504653000010876,1,34,test1,2,0.5047537999926135,-70.0
3,njx,f,22,r,1,(1.0544208940658713e-14, 172.20000000000002),23,-7,13,yes,x,5,x,0.6761111999949208,1,35,test1,2,0.6763279999868246,-52.0
3,njx,f,22,r,1,(121.76378772032349, 121.76378772032349),22,-7,13,yes,x,5,x,0.7310636999900453,1,36,test1,2,0.7313025000039488,-52.0
3,njx,f,22,r,1,(-121.76378772032348, 121.76378772032349),24,5,2,no,m,6,m,0.8130529000045499,1,37,test1,2,0.8134170999983326,-52.0
3,njx,f,22,r,1,(-121.76378772032352, -121.76378772032348),26,-3,11,no,m,6,m,0.8217407999909483,1,38,test1,2,0.8222779000061564,-52.0
3,njx,f,22,r,1,(121.76378772032349, 121.76378772032349),22,3,1,no,m,6,m,1.0961480000114534,1,39,test1,2,1.0962479000008898,-52.0
3,njx,f,22,r,1,(-121.76378772032352, -121.76378772032348),26,-25,14,yes,x,5,x,0.6516522000019904,1,40,test1,2,0.6518543000129284,-70.0
3,njx,f,22,r,1,(-172.20000000000002, 2.1088417881317425e-14),25,-25,14,yes,x,5,x,0.6217636999936076,1,41,test1,2,0.621861199993873,-70.0
3,njx,f,22,r,1,(-172.20000000000002, 2.1088417881317425e-14),25,-3,11,no,m,6,m,0.7837890999944648,1,42,test1,2,0.7840251000015996,-70.0
3,njx,f,22,r,1,(172.20000000000002, 0.0),21,-3,11,no,m,6,m,0.7763653000001796,1,43,test1,2,0.7766050000063842,-70.0
3,njx,f,22,r,1,(-3.163262682197613e-14, -172.20000000000002),27,25,4,yes,x,5,x,0.7866652000084287,1,44,test1,2,0.7867617000010796,-20.0
3,njx,f,22,r,1,(-172.20000000000002, 2.1088417881317425e-14),25,-7,13,yes,x,5,x,0.9337329999980284,1,45,test1,2,0.9338572999986354,-52.0
3,njx,f,22,r,1,(1.0544208940658713e-14, 172.20000000000002),23,5,2,yes,x,5,x,1.0311783000070136,1,46,test1,2,1.0313967999973102,-40.0
3,njx,f,22,r,1,(-121.76378772032348, 121.76378772032349),24,-25,14,no,m,6,m,0.7987800999981118,1,47,test1,2,0.7991381000028923,-40.0
3,njx,f,22,r,1,(-172.20000000000002, 2.1088417881317425e-14),25,3,1,yes,x,5,x,0.8858341000013752,1,48,test1,2,0.8863092999963555,-42.0
3,njx,f,22,r,1,(172.20000000000002, 0.0),21,-25,14,yes,x,5,x,0.716057900004671,1,49,test1,2,0.7164609000028577,-70.0
3,njx,f,22,r,1,(1.0544208940658713e-14, 172.20000000000002),23,3,1,no,m,6,m,0.8142228000069736,1,50,test1,2,0.8143780000100378,-70.0
3,njx,f,22,r,1,(-172.20000000000002, 2.1088417881317425e-14),25,-5,12,yes,x,5,x,0.5608713000110583,1,51,test1,2,0.5609856999944896,-50.0
3,njx,f,22,r,1,(121.76378772032349, 121.76378772032349),22,-25,14,yes,x,5,x,1.1110957999917446,1,52,test1,2,1.111247299995739,-70.0
3,njx,f,22,r,1,(121.76378772032349, 121.76378772032349),22,-3,11,no,m,6,m,0.9215224999934435,1,53,test1,2,0.9217998000094667,-70.0
3,njx,f,22,r,1,(-121.76378772032348, 121.76378772032349),24,3,1,yes,x,5,x,0.7030788999982178,1,54,test1,2,0.703289400000358,-42.0
3,njx,f,22,r,1,(121.76378772032349, 121.76378772032349),22,-7,13,yes,x,5,x,0.6659005999972578,1,55,test1,2,0.6660114000114845,-52.0
3,njx,f,22,r,1,(1.0544208940658713e-14, 172.20000000000002),23,7,3,yes,x,5,x,0.8357531999936327,1,56,test1,2,0.8359622999996645,-38.0
3,njx,f,22,r,1,(-121.76378772032352, -121.76378772032348),26,-25,14,no,m,6,m,0.7910285999969346,1,57,test1,2,0.7914478000020608,-38.0
3,njx,f,22,r,1,(172.20000000000002, 0.0),21,5,2,yes,x,5,x,0.6149465000053169,1,58,test1,2,0.6150443000078667,-40.0
3,njx,f,22,r,1,(-121.76378772032348, 121.76378772032349),24,-7,13,yes,x,5,x,0.6589576999976998,1,59,test1,2,0.6593828999903053,-52.0
3,njx,f,22,r,1,(1.0544208940658713e-14, 172.20000000000002),23,-5,12,yes,x,5,x,0.6940553000022192,1,60,test1,2,0.6945305000117514,-50.0
3,njx,f,22,r,1,(-172.20000000000002, 2.1088417881317425e-14),25,5,2,yes,x,5,m,0.7781861999974353,0,61,test1,2,0.778307999993558,-40.0
3,njx,f,22,r,1,(-121.76378772032352, -121.76378772032348),26,-7,13,yes,x,5,x,0.6592758000042522,1,62,test1,2,0.6594455000013113,-52.0
3,njx,f,22,r,1,(1.0544208940658713e-14, 172.20000000000002),23,-3,11,yes,x,5,x,0.949793599997065,1,63,test1,2,0.9499196999968262,-48.0
3,njx,f,22,r,1,(1.0544208940658713e-14, 172.20000000000002),23,25,4,no,m,6,m,0.8255699000001187,1,64,test1,2,0.8258829999977024,-48.0
3,njx,f,22,r,1,(-121.76378772032352, -121.76378772032348),26,3,1,yes,x,5,m,0.8885975000011967,0,65,test1,2,0.8887347999989288,-42.0
3,njx,f,22,r,1,(-121.76378772032352, -121.76378772032348),26,7,3,no,m,6,m,0.9683813000010559,1,66,test1,2,0.9684943000029307,-42.0
3,njx,f,22,r,1,(121.76378772032346, -121.76378772032352),28,3,1,yes,x,5,m,1.3653404999931809,0,67,test1,2,1.3654670999967493,-42.0
3,njx,f,22,r,1,(121.76378772032346, -121.76378772032352),28,-3,11,yes,x,5,x,1.43533789999492,1,68,test1,2,1.4355823999940185,-48.0
3,njx,f,22,r,1,(-121.76378772032352, -121.76378772032348),26,7,3,yes,x,5,x,0.6982171999989077,1,69,test1,2,0.6984327000100166,-38.0
3,njx,f,22,r,1,(-121.76378772032352, -121.76378772032348),26,5,2,no,m,6,m,0.8850529000046663,1,70,test1,2,0.8857375000079628,-38.0
3,njx,f,22,r,1,(-3.163262682197613e-14, -172.20000000000002),27,-5,12,no,m,6,m,1.1549178999994183,1,71,test1,2,1.1550368000025628,-38.0
3,njx,f,22,r,1,(172.20000000000002, 0.0),21,-7,13,no,m,6,m,0.8996344000042882,1,72,test1,2,0.8997562000004109,-38.0
3,njx,f,22,r,1,(1.0544208940658713e-14, 172.20000000000002),23,-7,13,yes,x,5,x,0.7176108999992721,1,73,test1,2,0.7177190000074916,-52.0
3,njx,f,22,r,1,(121.76378772032346, -121.76378772032352),28,25,4,yes,x,5,x,0.6501643000083277,1,74,test1,2,0.650749899999937,-20.0
3,njx,f,22,r,1,(-121.76378772032352, -121.76378772032348),26,3,1,yes,x,5,x,0.9050253000023076,1,75,test1,2,0.9052489999885438,-42.0
3,njx,f,22,r,1,(1.0544208940658713e-14, 172.20000000000002),23,-25,14,yes,x,5,x,0.6255524000007426,1,76,test1,2,0.6256883000023663,-70.0
3,njx,f,22,r,1,(-121.76378772032352, -121.76378772032348),26,-3,11,yes,x,5,m,0.6434203000098933,0,77,test1,2,0.6435195999947609,-48.0
3,njx,f,22,r,1,(1.0544208940658713e-14, 172.20000000000002),23,7,3,yes,x,5,x,0.7152639999985695,1,78,test1,2,0.7153643999918131,-38.0
3,njx,f,22,r,1,(-172.20000000000002, 2.1088417881317425e-14),25,25,4,yes,x,5,x,0.8090786999964621,1,79,test1,2,0.8092794999975013,-20.0
3,njx,f,22,r,1,(121.76378772032346, -121.76378772032352),28,7,3,yes,x,5,x,1.0149817000055918,1,80,test1,2,1.0152900999964913,-38.0
3,njx,f,22,r,1,(-172.20000000000002, 2.1088417881317425e-14),25,25,4,yes,x,5,x,0.6515231000084896,1,81,test1,2,0.651821799998288,-20.0
3,njx,f,22,r,1,(121.76378772032349, 121.76378772032349),22,-5,12,no,m,6,m,0.9999943000002531,1,82,test1,2,1.0002764999953797,-20.0
3,njx,f,22,r,1,(-121.76378772032348, 121.76378772032349),24,-3,11,yes,x,5,m,1.424697999987984,0,83,test1,2,1.4248354000010295,-48.0
3,njx,f,22,r,1,(-121.76378772032348, 121.76378772032349),24,-7,13,yes,x,5,x,0.5299460999958683,1,84,test1,2,0.5301724000019021,-52.0
3,njx,f,22,r,1,(172.20000000000002, 0.0),21,3,1,yes,x,5,m,0.8586085999995703,0,85,test1,2,0.8587423999997554,-42.0
3,njx,f,22,r,1,(-121.76378772032348, 121.76378772032349),24,-7,13,no,m,6,m,1.315748299995903,1,86,test1,2,1.3158460999984527,-42.0
3,njx,f,22,r,1,(172.20000000000002, 0.0),21,25,4,no,m,6,m,1.0030890999914845,1,87,test1,2,1.0032276999991154,-42.0
3,njx,f,22,r,1,(1.0544208940658713e-14, 172.20000000000002),23,-3,11,no,m,6,m,0.9409195000043837,1,88,test1,2,0.9412826000043424,-42.0
3,njx,f,22,r,1,(-121.76378772032348, 121.76378772032349),24,25,4,yes,x,5,x,0.5336645000061253,1,89,test1,2,0.5337634000024991,-20.0
3,njx,f,22,r,1,(121.76378772032346, -121.76378772032352),28,-25,14,no,m,6,m,0.7016803000005893,1,90,test1,2,0.7017835000006016,-20.0
3,njx,f,22,r,1,(172.20000000000002, 0.0),21,-5,12,yes,x,5,x,0.8885207999992417,1,91,test1,2,0.8889125999994576,-50.0
3,njx,f,22,r,1,(-3.163262682197613e-14, -172.20000000000002),27,3,1,yes,x,5,x,1.5060960999981035,1,92,test1,2,1.50635890000558,-42.0
3,njx,f,22,r,1,(172.20000000000002, 0.0),21,25,4,yes,x,5,x,0.7992414000036661,1,93,test1,2,0.7993720000085887,-20.0
3,njx,f,22,r,1,(121.76378772032346, -121.76378772032352),28,-7,13,yes,x,5,x,0.7654707000037888,1,94,test1,2,0.765752600011183,-52.0
3,njx,f,22,r,1,(172.20000000000002, 0.0),21,-7,13,yes,x,5,x,0.6258169999928214,1,95,test1,2,0.6259664999961387,-52.0
3,njx,f,22,r,1,(-121.76378772032352, -121.76378772032348),26,-5,12,no,m,6,m,0.893647000004421,1,96,test1,2,0.8941215999948326,-52.0
3,njx,f,22,r,1,(-172.20000000000002, 2.1088417881317425e-14),25,3,1,no,m,6,m,1.0562606000021333,1,1,test2,2,1.0567096000013407,-52.0
3,njx,f,22,r,1,(-121.76378772032352, -121.76378772032348),26,-3,11,yes,x,5,m,0.7578804000077071,0,2,test2,2,0.7580096000019694,-48.0
3,njx,f,22,r,1,(121.76378772032349, 121.76378772032349),22,-7,13,no,m,6,m,1.260251400002744,1,3,test2,2,1.2606377999909455,-48.0
3,njx,f,22,r,1,(-172.20000000000002, 2.1088417881317425e-14),25,7,3,no,m,6,m,0.7167397000011988,1,4,test2,2,0.7170323000027565,-48.0
3,njx,f,22,r,1,(121.76378772032346, -121.76378772032352),28,7,3,yes,x,5,x,0.5760387000045739,1,5,test2,2,0.5761403999931645,-38.0
3,njx,f,22,r,1,(-121.76378772032352, -121.76378772032348),26,-5,12,yes,x,5,x,0.9656985000037821,1,6,test2,2,0.9659351000009337,-50.0
3,njx,f,22,r,1,(121.76378772032346, -121.76378772032352),28,5,2,yes,x,5,x,0.6391631000005873,1,7,test2,2,0.6396012000041083,-40.0
3,njx,f,22,r,1,(121.76378772032346, -121.76378772032352),28,-7,13,no,m,6,m,0.6801926999905845,1,8,test2,2,0.6809056000056444,-40.0
3,njx,f,22,r,1,(121.76378772032346, -121.76378772032352),28,-3,11,no,m,6,m,0.8836258000083035,1,9,test2,2,0.8837530000018887,-40.0
3,njx,f,22,r,1,(-121.76378772032348, 121.76378772032349),24,-25,14,yes,x,5,x,0.5258043000067119,1,10,test2,2,0.5260259000060614,-70.0
3,njx,f,22,r,1,(-3.163262682197613e-14, -172.20000000000002),27,25,4,yes,x,5,m,0.7275261000031605,0,11,test2,2,0.7276511000090977,-20.0
3,njx,f,22,r,1,(-121.76378772032352, -121.76378772032348),26,-25,14,yes,x,5,x,0.44619149999925867,1,12,test2,2,0.44631820000358857,-70.0
3,njx,f,22,r,1,(172.20000000000002, 0.0),21,-7,13,yes,x,5,x,0.7463261000084458,1,13,test2,2,0.746423100004904,-52.0
3,njx,f,22,r,1,(121.76378772032349, 121.76378772032349),22,-5,12,yes,x,5,x,0.6390755000029458,1,14,test2,2,0.6391817000112496,-50.0
3,njx,f,22,r,1,(-3.163262682197613e-14, -172.20000000000002),27,-5,12,yes,x,5,x,0.6161704000114696,1,15,test2,2,0.6162893000000622,-50.0
3,njx,f,22,r,1,(-121.76378772032348, 121.76378772032349),24,7,3,no,m,6,m,0.7293317000003299,1,16,test2,2,0.7294568000070285,-50.0
3,njx,f,22,r,1,(121.76378772032346, -121.76378772032352),28,-25,14,yes,x,5,x,0.48828200000571087,1,17,test2,2,0.4883822000119835,-70.0
3,njx,f,22,r,1,(172.20000000000002, 0.0),21,3,1,yes,x,5,m,0.9976690000039525,0,18,test2,2,0.9978912999940803,-42.0
3,njx,f,22,r,1,(121.76378772032349, 121.76378772032349),22,3,1,yes,x,5,m,1.2422375000023749,0,19,test2,2,1.2423993999982486,-42.0
3,njx,f,22,r,1,(-3.163262682197613e-14, -172.20000000000002),27,25,4,no,m,6,m,1.4406406000052812,1,20,test2,2,1.4408627999946475,-42.0
3,njx,f,22,r,1,(-121.76378772032348, 121.76378772032349),24,3,1,no,m,6,m,1.4260862000082852,1,21,test2,2,1.426185300006182,-42.0
3,njx,f,22,r,1,(-172.20000000000002, 2.1088417881317425e-14),25,-3,11,yes,x,5,m,1.4321625000011409,0,22,test2,2,1.4328494999936083,-48.0
3,njx,f,22,r,1,(-172.20000000000002, 2.1088417881317425e-14),25,3,1,yes,x,5,m,1.465941999995266,0,23,test2,2,1.466209499994875,-42.0
3,njx,f,22,r,1,(-121.76378772032348, 121.76378772032349),24,5,2,yes,x,5,x,0.5408880999893881,1,24,test2,2,0.541123000002699,-40.0
3,njx,f,22,r,1,(-121.76378772032348, 121.76378772032349),24,25,4,no,m,6,m,1.2580164999963017,1,25,test2,2,1.2585512999939965,-40.0
3,njx,f,22,r,1,(121.76378772032346, -121.76378772032352),28,5,2,yes,x,5,x,0.844671600003494,1,26,test2,2,0.8449869000032777,-40.0
3,njx,f,22,r,1,(121.76378772032346, -121.76378772032352),28,25,4,yes,x,5,x,0.5217303999961587,1,27,test2,2,0.5221786000038264,-20.0
3,njx,f,22,r,1,(-3.163262682197613e-14, -172.20000000000002),27,5,2,yes,x,5,x,0.6217088999983389,1,28,test2,2,0.6218072999909054,-40.0
3,njx,f,22,r,1,(1.0544208940658713e-14, 172.20000000000002),23,-25,14,yes,x,5,x,0.48260319999826606,1,29,test2,2,0.4830805999954464,-70.0
3,njx,f,22,r,1,(-172.20000000000002, 2.1088417881317425e-14),25,25,4,no,m,6,m,0.951304699992761,1,30,test2,2,0.9514791999972658,-70.0
3,njx,f,22,r,1,(121.76378772032346, -121.76378772032352),28,-3,11,yes,x,5,x,1.0714507999946363,1,31,test2,2,1.071573699999135,-48.0
3,njx,f,22,r,1,(-172.20000000000002, 2.1088417881317425e-14),25,7,3,yes,x,5,x,0.5787640000053216,1,32,test2,2,0.5789957999950275,-38.0
3,njx,f,22,r,1,(121.76378772032349, 121.76378772032349),22,-3,11,yes,x,5,m,1.3113474999991013,0,33,test2,2,1.3115742999943905,-48.0
3,njx,f,22,r,1,(172.20000000000002, 0.0),21,-3,11,yes,x,5,x,1.2271961999940686,1,34,test2,2,1.2273309000011068,-48.0
3,njx,f,22,r,1,(121.76378772032349, 121.76378772032349),22,5,2,no,m,6,m,0.9233779000060167,1,35,test2,2,0.9234808999899542,-48.0
3,njx,f,22,r,1,(121.76378772032349, 121.76378772032349),22,-25,14,yes,x,5,x,0.4794194999994943,1,36,test2,2,0.4796557999943616,-70.0
3,njx,f,22,r,1,(121.76378772032346, -121.76378772032352),28,-5,12,yes,x,5,x,0.791006399987964,1,37,test2,2,0.7911648000008427,-50.0
3,njx,f,22,r,1,(121.76378772032349, 121.76378772032349),22,5,2,yes,x,5,x,0.6956053000030806,1,38,test2,2,0.6959666999900946,-40.0
3,njx,f,22,r,1,(-121.76378772032352, -121.76378772032348),26,-5,12,yes,x,5,x,0.5773520000075223,1,39,test2,2,0.5776241999992635,-50.0
3,njx,f,22,r,1,(-121.76378772032348, 121.76378772032349),24,3,1,yes,x,5,x,0.5761610000045039,1,40,test2,2,0.5764429999981076,-42.0
3,njx,f,22,r,1,(-3.163262682197613e-14, -172.20000000000002),27,-25,14,no,m,6,m,0.9908813999936683,1,41,test2,2,0.9914166999951703,-42.0
3,njx,f,22,r,1,(-172.20000000000002, 2.1088417881317425e-14),25,-7,13,yes,x,5,x,0.47110460000112653,1,42,test2,2,0.47149850000278093,-52.0
3,njx,f,22,r,1,(-121.76378772032352, -121.76378772032348),26,25,4,yes,x,5,x,0.5009238999919035,1,43,test2,2,0.5010217000090051,-20.0
3,njx,f,22,r,1,(121.76378772032349, 121.76378772032349),22,7,3,no,m,6,m,0.6932732999994187,1,44,test2,2,0.6936470000073314,-20.0
3,njx,f,22,r,1,(-121.76378772032352, -121.76378772032348),26,7,3,yes,x,5,x,0.45968689999426715,1,45,test2,2,0.46035069999925327,-38.0
3,njx,f,22,r,1,(1.0544208940658713e-14, 172.20000000000002),23,-25,14,no,m,6,m,0.9507331000058912,1,46,test2,2,0.9509420999966096,-38.0
3,njx,f,22,r,1,(121.76378772032346, -121.76378772032352),28,3,1,no,m,6,m,0.7207711999944877,1,47,test2,2,0.7213903000083519,-38.0
3,njx,f,22,r,1,(-121.76378772032348, 121.76378772032349),24,-5,12,no,m,6,m,1.03191859999788,1,48,test2,2,1.0321729999996023,-38.0
3,njx,f,22,r,1,(-121.76378772032352, -121.76378772032348),26,5,2,yes,x,5,x,0.5429464000044391,1,49,test2,2,0.5431807999993907,-40.0
3,njx,f,22,r,1,(-172.20000000000002, 2.1088417881317425e-14),25,5,2,yes,x,5,x,0.6460472000035224,1,50,test2,2,0.646457199996803,-40.0
3,njx,f,22,r,1,(-121.76378772032348, 121.76378772032349),24,7,3,yes,x,5,x,0.5224328999902355,1,51,test2,2,0.5226188999949954,-38.0
3,njx,f,22,r,1,(172.20000000000002, 0.0),21,-5,12,no,m,6,m,0.9023049999959767,1,52,test2,2,0.9024638999981107,-38.0
3,njx,f,22,r,1,(1.0544208940658713e-14, 172.20000000000002),23,-3,11,yes,x,5,m,1.056493900003261,0,53,test2,2,1.0567307000019355,-48.0
3,njx,f,22,r,1,(121.76378772032346, -121.76378772032352),28,-7,13,yes,x,5,x,0.645836199997575,1,54,test2,2,0.6459609000012279,-52.0
3,njx,f,22,r,1,(-121.76378772032352, -121.76378772032348),26,25,4,no,m,6,m,0.8245904999930644,1,55,test2,2,0.8247416999947745,-52.0
3,njx,f,22,r,1,(-3.163262682197613e-14, -172.20000000000002),27,7,3,yes,x,5,x,0.5790196000016294,1,56,test2,2,0.5794022999907611,-38.0
3,njx,f,22,r,1,(1.0544208940658713e-14, 172.20000000000002),23,7,3,no,m,6,m,0.9258289999997942,1,57,test2,2,0.9259286000014981,-38.0
3,njx,f,22,r,1,(-3.163262682197613e-14, -172.20000000000002),27,-25,14,yes,x,5,x,0.5784707000129856,1,58,test2,2,0.5785972000012407,-70.0
3,njx,f,22,r,1,(-121.76378772032348, 121.76378772032349),24,7,3,yes,x,5,x,0.4870278000016697,1,59,test2,2,0.4873626000044169,-38.0
3,njx,f,22,r,1,(121.76378772032346, -121.76378772032352),28,3,1,yes,x,5,x,0.9220904999965569,1,60,test2,2,0.9221906000020681,-42.0
3,njx,f,22,r,1,(1.0544208940658713e-14, 172.20000000000002),23,3,1,yes,x,5,x,0.9224673999997322,1,61,test2,2,0.922569400005159,-42.0
3,njx,f,22,r,1,(-172.20000000000002, 2.1088417881317425e-14),25,-25,14,yes,x,5,x,0.5115809999988414,1,62,test2,2,0.5119845000008354,-70.0
3,njx,f,22,r,1,(-121.76378772032352, -121.76378772032348),26,-7,13,yes,x,5,x,0.4959291000122903,1,63,test2,2,0.4964369000081206,-52.0
3,njx,f,22,r,1,(1.0544208940658713e-14, 172.20000000000002),23,5,2,no,m,6,m,0.7600131000071997,1,64,test2,2,0.760129300004337,-52.0
3,njx,f,22,r,1,(1.0544208940658713e-14, 172.20000000000002),23,-5,12,no,m,6,m,0.8519987000036053,1,65,test2,2,0.852324999999837,-52.0
3,njx,f,22,r,1,(121.76378772032349, 121.76378772032349),22,-25,14,no,m,6,m,0.8234725000074832,1,66,test2,2,0.8238543999905232,-52.0
3,njx,f,22,r,1,(172.20000000000002, 0.0),21,5,2,yes,x,5,m,0.7056502000050386,0,67,test2,2,0.7058773000026122,-40.0
3,njx,f,22,r,1,(-3.163262682197613e-14, -172.20000000000002),27,-5,12,yes,x,5,x,0.8477868000045419,1,68,test2,2,0.8479170999926282,-50.0
3,njx,f,22,r,1,(172.20000000000002, 0.0),21,7,3,yes,x,5,x,0.7216563999973005,1,69,test2,2,0.722016599989729,-38.0
3,njx,f,22,r,1,(-3.163262682197613e-14, -172.20000000000002),27,7,3,no,m,6,m,0.9206269999995129,1,70,test2,2,0.9208499999949709,-38.0
3,njx,f,22,r,1,(-172.20000000000002, 2.1088417881317425e-14),25,-25,14,no,m,6,m,1.269539500004612,1,71,test2,2,1.2697793999977876,-38.0
3,njx,f,22,r,1,(172.20000000000002, 0.0),21,7,3,no,m,6,m,0.948723900000914,1,72,test2,2,0.9491127000073902,-38.0
3,njx,f,22,r,1,(121.76378772032346, -121.76378772032352),28,5,2,no,m,6,m,0.7731138999952236,1,73,test2,2,0.7732557999988785,-38.0
3,njx,f,22,r,1,(172.20000000000002, 0.0),21,7,3,yes,x,5,x,0.4859998999891104,1,74,test2,2,0.4862139000033494,-38.0
3,njx,f,22,r,1,(172.20000000000002, 0.0),21,25,4,yes,x,5,x,0.5166079000046011,1,75,test2,2,0.5167036000057124,-20.0
3,njx,f,22,r,1,(121.76378772032349, 121.76378772032349),22,-3,11,yes,x,5,m,0.7653549999959068,0,76,test2,2,0.7659426000027452,-48.0
3,njx,f,22,r,1,(172.20000000000002, 0.0),21,-25,14,yes,x,5,x,0.4931524999992689,1,77,test2,2,0.49336459999904037,-70.0
3,njx,f,22,r,1,(121.76378772032349, 121.76378772032349),22,25,4,yes,x,5,x,0.5638928999978816,1,78,test2,2,0.5641312999941874,-20.0
3,njx,f,22,r,1,(121.76378772032349, 121.76378772032349),22,25,4,no,m,6,m,0.9841480000031879,1,79,test2,2,0.984398800006602,-20.0
3,njx,f,22,r,1,(-121.76378772032348, 121.76378772032349),24,-3,11,no,m,6,m,0.9751873000059277,1,80,test2,2,0.9754131000081543,-20.0
3,njx,f,22,r,1,(1.0544208940658713e-14, 172.20000000000002),23,25,4,yes,x,5,x,0.459024199997657,1,81,test2,2,0.4593022000044584,-20.0
3,njx,f,22,r,1,(-3.163262682197613e-14, -172.20000000000002),27,-7,13,no,m,6,m,0.817135799996322,1,82,test2,2,0.8173357000050601,-20.0
3,njx,f,22,r,1,(-3.163262682197613e-14, -172.20000000000002),27,-25,14,yes,x,5,x,0.5417319999978645,1,83,test2,2,0.5418580000114162,-70.0
3,njx,f,22,r,1,(-121.76378772032352, -121.76378772032348),26,3,1,no,m,6,m,0.8436702000035439,1,84,test2,2,0.8438319999986561,-70.0
3,njx,f,22,r,1,(121.76378772032346, -121.76378772032352),28,-5,12,no,m,6,m,0.8630911999935051,1,85,test2,2,0.8633192999986932,-70.0
3,njx,f,22,r,1,(-121.76378772032348, 121.76378772032349),24,-5,12,yes,x,5,x,0.6344037999951979,1,86,test2,2,0.6346097000059672,-50.0
3,njx,f,22,r,1,(121.76378772032349, 121.76378772032349),22,7,3,yes,x,5,x,0.5838670000084676,1,87,test2,2,0.5839683000085643,-38.0
3,njx,f,22,r,1,(1.0544208940658713e-14, 172.20000000000002),23,-7,13,no,m,6,m,0.7458254999946803,1,88,test2,2,0.7460149999969872,-38.0
3,njx,f,22,r,1,(-172.20000000000002, 2.1088417881317425e-14),25,-7,13,no,m,6,m,1.0388467000011588,1,89,test2,2,1.038945499996771,-38.0
3,njx,f,22,r,1,(-121.76378772032352, -121.76378772032348),26,25,4,yes,x,5,x,0.4808947999990778,1,90,test2,2,0.4812679000024218,-20.0
3,njx,f,22,r,1,(121.76378772032349, 121.76378772032349),22,3,1,yes,x,5,m,0.6134391000086907,0,91,test2,2,0.6135475000046426,-42.0
3,njx,f,22,r,1,(121.76378772032349, 121.76378772032349),22,-5,12,yes,x,5,x,0.8354670999979135,1,92,test2,2,0.835704800003441,-50.0
3,njx,f,22,r,1,(-121.76378772032348, 121.76378772032349),24,-3,11,yes,x,5,m,0.9163994999980787,0,93,test2,2,0.9168430999998236,-48.0
3,njx,f,22,r,1,(172.20000000000002, 0.0),21,3,1,no,m,6,m,0.9804174000018975,1,94,test2,2,0.9805180999974255,-48.0
3,njx,f,22,r,1,(-121.76378772032352, -121.76378772032348),26,5,2,yes,x,5,x,0.522757200000342,1,95,test2,2,0.5229422000120394,-40.0
3,njx,f,22,r,1,(1.0544208940658713e-14, 172.20000000000002),23,3,1,yes,x,5,x,0.7772011000051862,1,96,test2,2,0.7772974999970756,-42.0
3,njx,f,22,r,1,(121.76378772032349, 121.76378772032349),22,25,4,yes,x,5,x,0.6611602000048151,1,1,test1,3,0.6613357000023825,-20.0
3,njx,f,22,r,1,(1.0544208940658713e-14, 172.20000000000002),23,-5,12,yes,x,5,x,0.5578615999984322,1,2,test1,3,0.5579893999965861,-50.0
3,njx,f,22,r,1,(-3.163262682197613e-14, -172.20000000000002),27,-3,11,yes,x,5,m,1.0669761000026483,0,3,test1,3,1.0671017999993637,-48.0
3,njx,f,22,r,1,(121.76378772032346, -121.76378772032352),28,-25,14,yes,x,5,x,0.4639079999906244,1,4,test1,3,0.4640151000057813,-70.0
3,njx,f,22,r,1,(121.76378772032349, 121.76378772032349),22,7,3,yes,x,5,x,0.5847115999931702,1,5,test1,3,0.5848414000065532,-38.0
3,njx,f,22,r,1,(-3.163262682197613e-14, -172.20000000000002),27,-3,11,yes,x,5,m,0.8446853000059491,0,6,test1,3,0.8449473999935435,-48.0
3,njx,f,22,r,1,(-3.163262682197613e-14, -172.20000000000002),27,5,2,yes,x,5,x,0.649854300005245,1,7,test1,3,0.650677400000859,-40.0
3,njx,f,22,r,1,(1.0544208940658713e-14, 172.20000000000002),23,5,2,yes,x,5,x,0.5591176000016276,1,8,test1,3,0.5592184999986785,-40.0
3,njx,f,22,r,1,(-121.76378772032348, 121.76378772032349),24,5,2,yes,x,5,x,0.579488900009892,1,9,test1,3,0.5797129999991739,-40.0
3,njx,f,22,r,1,(172.20000000000002, 0.0),21,-3,11,yes,x,5,x,0.8727825999958441,1,10,test1,3,0.8729099999909522,-48.0
3,njx,f,22,r,1,(-3.163262682197613e-14, -172.20000000000002),27,-7,13,yes,x,5,x,0.5685230999952182,1,11,test1,3,0.5692544000048656,-52.0
3,njx,f,22,r,1,(-3.163262682197613e-14, -172.20000000000002),27,-3,11,no,m,6,m,1.0019769999926211,1,12,test1,3,1.002210600010585,-52.0
3,njx,f,22,r,1,(-172.20000000000002, 2.1088417881317425e-14),25,7,3,yes,x,5,x,0.5229854000062915,1,13,test1,3,0.5231952000031015,-38.0
3,njx,f,22,r,1,(-172.20000000000002, 2.1088417881317425e-14),25,-5,12,yes,x,5,x,0.6014604000083636,1,14,test1,3,0.6017458999995142,-50.0
3,njx,f,22,r,1,(172.20000000000002, 0.0),21,5,2,no,m,6,m,1.0304803000035463,1,15,test1,3,1.030656299990369,-50.0
3,njx,f,22,r,1,(-121.76378772032352, -121.76378772032348),26,-7,13,no,m,6,m,0.8513433000043733,1,16,test1,3,0.8515683999867178,-50.0
3,njx,f,22,r,1,(-3.163262682197613e-14, -172.20000000000002),27,-7,13,yes,x,5,x,0.6293376999965403,1,17,test1,3,0.6296328000025824,-52.0
3,njx,f,22,r,1,(121.76378772032346, -121.76378772032352),28,7,3,no,m,6,m,0.7294707999972161,1,18,test1,3,0.7295998000045074,-52.0
3,njx,f,22,r,1,(-172.20000000000002, 2.1088417881317425e-14),25,5,2,no,m,6,m,1.0039705999952275,1,19,test1,3,1.0044148000015412,-52.0
3,njx,f,22,r,1,(-3.163262682197613e-14, -172.20000000000002),27,3,1,yes,x,5,x,0.699403100006748,1,20,test1,3,0.6995868999947561,-42.0
3,njx,f,22,r,1,(172.20000000000002, 0.0),21,-5,12,yes,x,5,x,0.6453101999941282,1,21,test1,3,0.6456125999975484,-50.0
3,njx,f,22,r,1,(-3.163262682197613e-14, -172.20000000000002),27,3,1,no,m,6,m,0.7598381999996491,1,22,test1,3,0.7599474000016926,-50.0
3,njx,f,22,r,1,(-172.20000000000002, 2.1088417881317425e-14),25,-5,12,no,m,6,m,0.8727939999953378,1,23,test1,3,0.8730890000006184,-50.0
3,njx,f,22,r,1,(121.76378772032346, -121.76378772032352),28,25,4,no,m,6,m,1.1201817999972263,1,24,test1,3,1.1207561999908648,-50.0
3,njx,f,22,r,1,(121.76378772032349, 121.76378772032349),22,5,2,yes,x,5,x,0.6254337999998825,1,25,test1,3,0.6255323000077624,-40.0
3,njx,f,22,r,1,(-121.76378772032348, 121.76378772032349),24,-5,12,yes,x,5,x,0.5314528000017162,1,26,test1,3,0.5315502000012202,-50.0
3,njx,f,22,r,1,(121.76378772032346, -121.76378772032352),28,-5,12,yes,x,5,x,0.8168475999991642,1,27,test1,3,0.8170804000110365,-50.0
3,njx,f,22,r,1,(-172.20000000000002, 2.1088417881317425e-14),25,-3,11,yes,x,5,m,0.7977926000021398,0,28,test1,3,0.797923100006301,-48.0
3,njx,f,22,r,1,(-3.163262682197613e-14, -172.20000000000002),27,7,3,yes,x,5,x,0.5492375000030734,1,29,test1,3,0.549527199997101,-38.0
3,njx,f,22,r,1,(-121.76378772032348, 121.76378772032349),24,25,4,yes,x,5,x,0.5428940000128932,1,30,test1,3,0.543229999995674,-20.0
3,njx,f,22,r,1,(1.0544208940658713e-14, 172.20000000000002),23,25,4,yes,x,5,x,0.5077050000109011,1,31,test1,3,0.5079575999989174,-20.0
3,njx,f,22,r,1,(172.20000000000002, 0.0),21,-25,14,no,m,6,m,0.8118637000006856,1,32,test1,3,0.8121569000068121,-20.0
3,njx,f,22,r,1,(-3.163262682197613e-14, -172.20000000000002),27,5,2,no,m,6,m,0.8149794000055408,1,33,test1,3,0.8153311000060057,-20.0
3,njx,f,22,r,1,(-121.76378772032348, 121.76378772032349),24,-25,14,yes,x,5,x,0.5785832999972627,1,34,test1,3,0.5786970000044676,-70.0
3,njx,f,22,r,1,(1.0544208940658713e-14, 172.20000000000002),23,-7,13,yes,x,5,x,0.5501712999976007,1,35,test1,3,0.5503609000006691,-52.0
3,njx,f,22,r,1,(121.76378772032349, 121.76378772032349),22,-7,13,yes,x,5,x,0.5506511000130558,1,36,test1,3,0.5507465000118827,-52.0
3,njx,f,22,r,1,(-121.76378772032348, 121.76378772032349),24,5,2,no,m,6,m,0.7941610999987461,1,37,test1,3,0.7942636999941897,-52.0
3,njx,f,22,r,1,(-121.76378772032352, -121.76378772032348),26,-3,11,no,m,6,m,0.8029529000050388,1,38,test1,3,0.8031894999876386,-52.0
3,njx,f,22,r,1,(121.76378772032349, 121.76378772032349),22,3,1,no,m,6,m,0.7749618999951053,1,39,test1,3,0.7753318000031868,-52.0
3,njx,f,22,r,1,(-121.76378772032352, -121.76378772032348),26,-25,14,yes,x,5,x,0.4394917000026908,1,40,test1,3,0.43970099999569356,-70.0
3,njx,f,22,r,1,(-172.20000000000002, 2.1088417881317425e-14),25,-25,14,yes,x,5,x,0.5015113000117708,1,41,test1,3,0.5017907000001287,-70.0
3,njx,f,22,r,1,(-172.20000000000002, 2.1088417881317425e-14),25,-3,11,no,m,6,m,0.6768502000049921,1,42,test1,3,0.676955499991891,-70.0
3,njx,f,22,r,1,(172.20000000000002, 0.0),21,-3,11,no,m,6,m,0.8588589999999385,1,43,test1,3,0.8589562999986811,-70.0
3,njx,f,22,r,1,(-3.163262682197613e-14, -172.20000000000002),27,25,4,yes,x,5,x,0.5155661000026157,1,44,test1,3,0.5157255999947665,-20.0
3,njx,f,22,r,1,(-172.20000000000002, 2.1088417881317425e-14),25,-7,13,yes,x,5,x,0.554156400001375,1,45,test1,3,0.5543517999903997,-52.0
3,njx,f,22,r,1,(1.0544208940658713e-14, 172.20000000000002),23,5,2,yes,x,5,x,0.869160499991267,1,46,test1,3,0.8692566999961855,-40.0
3,njx,f,22,r,1,(-121.76378772032348, 121.76378772032349),24,-25,14,no,m,6,m,0.8131877999985591,1,47,test1,3,0.8135725000029197,-40.0
3,njx,f,22,r,1,(-172.20000000000002, 2.1088417881317425e-14),25,3,1,yes,x,5,x,1.1576504000113346,1,48,test1,3,1.1579005000094185,-42.0
3,njx,f,22,r,1,(172.20000000000002, 0.0),21,-25,14,yes,x,5,x,0.6468543000082718,1,49,test1,3,0.6475132000050507,-70.0
3,njx,f,22,r,1,(1.0544208940658713e-14, 172.20000000000002),23,3,1,no,m,6,m,0.9357900000031805,1,50,test1,3,0.9361392999999225,-70.0
3,njx,f,22,r,1,(-172.20000000000002, 2.1088417881317425e-14),25,-5,12,yes,x,5,x,0.544830800005002,1,51,test1,3,0.5450867000035942,-50.0
3,njx,f,22,r,1,(121.76378772032349, 121.76378772032349),22,-25,14,yes,x,5,x,0.47350390000792686,1,52,test1,3,0.4739365999994334,-70.0
3,njx,f,22,r,1,(121.76378772032349, 121.76378772032349),22,-3,11,no,m,6,m,0.7065544000070076,1,53,test1,3,0.7067962000000989,-70.0
3,njx,f,22,r,1,(-121.76378772032348, 121.76378772032349),24,3,1,yes,x,5,x,0.9961110000003828,1,54,test1,3,0.9963389000040479,-42.0
3,njx,f,22,r,1,(121.76378772032349, 121.76378772032349),22,-7,13,yes,x,5,x,0.6173841999989236,1,55,test1,3,0.6177005999925314,-52.0
3,njx,f,22,r,1,(1.0544208940658713e-14, 172.20000000000002),23,7,3,yes,x,5,x,0.47944330000609625,1,56,test1,3,0.4795442000031471,-38.0
3,njx,f,22,r,1,(-121.76378772032352, -121.76378772032348),26,-25,14,no,m,6,m,0.9074427999876207,1,57,test1,3,0.9075559999910183,-38.0
3,njx,f,22,r,1,(172.20000000000002, 0.0),21,5,2,yes,x,5,x,0.9047677000053227,1,58,test1,3,0.904998500001966,-40.0
3,njx,f,22,r,1,(-121.76378772032348, 121.76378772032349),24,-7,13,yes,x,5,x,0.5773336999991443,1,59,test1,3,0.5774927999882493,-52.0
3,njx,f,22,r,1,(1.0544208940658713e-14, 172.20000000000002),23,-5,12,yes,x,5,x,0.6377252000092994,1,60,test1,3,0.6381742000085069,-50.0
3,njx,f,22,r,1,(-172.20000000000002, 2.1088417881317425e-14),25,5,2,yes,x,5,x,0.5519273999962024,1,61,test1,3,0.5520279000047594,-40.0
3,njx,f,22,r,1,(-121.76378772032352, -121.76378772032348),26,-7,13,yes,x,5,x,0.6736383999959799,1,62,test1,3,0.6739237000001594,-52.0
3,njx,f,22,r,1,(1.0544208940658713e-14, 172.20000000000002),23,-3,11,yes,x,5,x,0.5416439999971772,1,63,test1,3,0.5419992999959504,-48.0
3,njx,f,22,r,1,(1.0544208940658713e-14, 172.20000000000002),23,25,4,no,m,6,m,0.7991698999976506,1,64,test1,3,0.7997542999946745,-48.0
3,njx,f,22,r,1,(-121.76378772032352, -121.76378772032348),26,3,1,yes,x,5,x,1.3938191999914125,1,65,test1,3,1.3940844000026118,-42.0
3,njx,f,22,r,1,(-121.76378772032352, -121.76378772032348),26,7,3,no,m,6,m,0.7785517000011168,1,66,test1,3,0.7791542999912053,-42.0
3,njx,f,22,r,1,(121.76378772032346, -121.76378772032352),28,3,1,yes,x,5,m,0.707450300003984,0,67,test1,3,0.7076441999961389,-42.0
3,njx,f,22,r,1,(121.76378772032346, -121.76378772032352),28,-3,11,yes,x,5,m,1.3889499999932013,0,68,test1,3,1.389175799995428,-48.0
3,njx,f,22,r,1,(-121.76378772032352, -121.76378772032348),26,7,3,yes,x,5,x,0.5688262000039686,1,69,test1,3,0.5689289000001736,-38.0
3,njx,f,22,r,1,(-121.76378772032352, -121.76378772032348),26,5,2,no,m,6,m,0.9959991999930935,1,70,test1,3,0.996399299998302,-38.0
3,njx,f,22,r,1,(-3.163262682197613e-14, -172.20000000000002),27,-5,12,no,m,6,m,1.0628663999959826,1,71,test1,3,1.0635553999891272,-38.0
3,njx,f,22,r,1,(172.20000000000002, 0.0),21,-7,13,no,m,6,m,0.8080656999954954,1,72,test1,3,0.8082326000003377,-38.0
3,njx,f,22,r,1,(1.0544208940658713e-14, 172.20000000000002),23,-7,13,yes,x,5,x,0.6141109000018332,1,73,test1,3,0.6144198999973014,-52.0
3,njx,f,22,r,1,(121.76378772032346, -121.76378772032352),28,25,4,yes,x,5,x,0.787559100004728,1,74,test1,3,0.787859899995965,-20.0
3,njx,f,22,r,1,(-121.76378772032352, -121.76378772032348),26,3,1,yes,x,5,x,0.6956895000039367,1,75,test1,3,0.6958243999979459,-42.0
3,njx,f,22,r,1,(1.0544208940658713e-14, 172.20000000000002),23,-25,14,yes,x,5,x,0.4487736000010045,1,76,test1,3,0.4490626000042539,-70.0
3,njx,f,22,r,1,(-121.76378772032352, -121.76378772032348),26,-3,11,yes,x,5,x,0.574251700003515,1,77,test1,3,0.5745969000126934,-48.0
3,njx,f,22,r,1,(1.0544208940658713e-14, 172.20000000000002),23,7,3,yes,x,5,x,0.5164949000027264,1,78,test1,3,0.5166970000136644,-38.0
3,njx,f,22,r,1,(-172.20000000000002, 2.1088417881317425e-14),25,25,4,yes,x,5,x,0.5008978999976534,1,79,test1,3,0.5011180000001332,-20.0
3,njx,f,22,r,1,(121.76378772032346, -121.76378772032352),28,7,3,yes,x,5,x,0.6077597999974387,1,80,test1,3,0.607857499999227,-38.0
3,njx,f,22,r,1,(-172.20000000000002, 2.1088417881317425e-14),25,25,4,yes,x,5,x,0.4945181999937631,1,81,test1,3,0.49496999999973923,-20.0
3,njx,f,22,r,1,(121.76378772032349, 121.76378772032349),22,-5,12,no,m,6,m,0.9408614999993006,1,82,test1,3,0.94096009999339,-20.0
3,njx,f,22,r,1,(-121.76378772032348, 121.76378772032349),24,-3,11,yes,x,5,x,1.1403205999959027,1,83,test1,3,1.14072130000568,-48.0
3,njx,f,22,r,1,(-121.76378772032348, 121.76378772032349),24,-7,13,yes,x,5,x,0.5215916000015568,1,84,test1,3,0.5217585000063991,-52.0
3,njx,f,22,r,1,(172.20000000000002, 0.0),21,3,1,yes,x,5,m,0.851213200003258,0,85,test1,3,0.8516462999978103,-42.0
3,njx,f,22,r,1,(-121.76378772032348, 121.76378772032349),24,-7,13,no,m,6,m,1.031807999999728,1,86,test1,3,1.0321221999911359,-42.0
3,njx,f,22,r,1,(172.20000000000002, 0.0),21,25,4,no,m,6,m,1.1109632000006968,1,87,test1,3,1.1110598999948706,-42.0
3,njx,f,22,r,1,(1.0544208940658713e-14, 172.20000000000002),23,-3,11,no,m,6,m,1.2905412999971304,1,88,test1,3,1.290720400007558,-42.0
3,njx,f,22,r,1,(-121.76378772032348, 121.76378772032349),24,25,4,yes,x,5,x,0.5070331999886548,1,89,test1,3,0.5072559999971418,-20.0
3,njx,f,22,r,1,(121.76378772032346, -121.76378772032352),28,-25,14,no,m,6,m,1.2240197000064654,1,90,test1,3,1.2248273000004701,-20.0
3,njx,f,22,r,1,(172.20000000000002, 0.0),21,-5,12,yes,x,5,x,0.7409052000002703,1,91,test1,3,0.7411106999934418,-50.0
3,njx,f,22,r,1,(-3.163262682197613e-14, -172.20000000000002),27,3,1,yes,x,5,m,0.9362634999997681,0,92,test1,3,0.9363933999993606,-42.0
3,njx,f,22,r,1,(172.20000000000002, 0.0),21,25,4,yes,x,5,x,0.4992404000076931,1,93,test1,3,0.49957590000121854,-20.0
3,njx,f,22,r,1,(121.76378772032346, -121.76378772032352),28,-7,13,yes,x,5,x,0.6242464999959338,1,94,test1,3,0.6243431000038981,-52.0
3,njx,f,22,r,1,(172.20000000000002, 0.0),21,-7,13,yes,x,5,x,0.6647714999999152,1,95,test1,3,0.6648709000000963,-52.0
3,njx,f,22,r,1,(-121.76378772032352, -121.76378772032348),26,-5,12,no,m,6,m,1.05185459999484,1,96,test1,3,1.0519827000098303,-52.0
3,njx,f,22,r,1,(-172.20000000000002, 2.1088417881317425e-14),25,3,1,no,m,6,m,0.869482699999935,1,1,test2,3,0.8697558999992907,-52.0
3,njx,f,22,r,1,(-121.76378772032352, -121.76378772032348),26,-3,11,yes,x,5,m,0.6529429999936838,0,2,test2,3,0.6531124000030104,-48.0
3,njx,f,22,r,1,(121.76378772032349, 121.76378772032349),22,-7,13,no,m,6,m,0.8310829999973066,1,3,test2,3,0.8312175000028219,-48.0
3,njx,f,22,r,1,(-172.20000000000002, 2.1088417881317425e-14),25,7,3,no,m,6,m,0.5798899000074016,1,4,test2,3,0.5801206000032835,-48.0
3,njx,f,22,r,1,(121.76378772032346, -121.76378772032352),28,7,3,yes,x,5,x,0.7907323999970686,1,5,test2,3,0.7909706000064034,-38.0
3,njx,f,22,r,1,(-121.76378772032352, -121.76378772032348),26,-5,12,yes,x,5,x,0.6240306999970926,1,6,test2,3,0.6242047999985516,-50.0
3,njx,f,22,r,1,(121.76378772032346, -121.76378772032352),28,5,2,yes,x,5,x,0.7599298999994062,1,7,test2,3,0.760164999999688,-40.0
3,njx,f,22,r,1,(121.76378772032346, -121.76378772032352),28,-7,13,no,m,6,m,0.8498409999883734,1,8,test2,3,0.8503740000014659,-40.0
3,njx,f,22,r,1,(121.76378772032346, -121.76378772032352),28,-3,11,no,m,6,m,0.8124996999977157,1,9,test2,3,0.8127505000011297,-40.0
3,njx,f,22,r,1,(-121.76378772032348, 121.76378772032349),24,-25,14,yes,x,5,x,0.4361277000134578,1,10,test2,3,0.4362591999961296,-70.0
3,njx,f,22,r,1,(-3.163262682197613e-14, -172.20000000000002),27,25,4,yes,x,5,x,0.6278915000002598,1,11,test2,3,0.6280593999981647,-20.0
3,njx,f,22,r,1,(-121.76378772032352, -121.76378772032348),26,-25,14,yes,x,5,x,0.5243305000039982,1,12,test2,3,0.524740799999563,-70.0
3,njx,f,22,r,1,(172.20000000000002, 0.0),21,-7,13,yes,x,5,x,0.6368192999943858,1,13,test2,3,0.6369458999979543,-52.0
3,njx,f,22,r,1,(121.76378772032349, 121.76378772032349),22,-5,12,yes,x,5,x,0.6113719999993918,1,14,test2,3,0.6116025999945123,-50.0
3,njx,f,22,r,1,(-3.163262682197613e-14, -172.20000000000002),27,-5,12,yes,x,5,x,0.6295462000125553,1,15,test2,3,0.6301093000074616,-50.0
3,njx,f,22,r,1,(-121.76378772032348, 121.76378772032349),24,7,3,no,m,6,m,0.7920415000116918,1,16,test2,3,0.7921429000125499,-50.0
3,njx,f,22,r,1,(121.76378772032346, -121.76378772032352),28,-25,14,yes,x,5,x,0.5419409999885829,1,17,test2,3,0.5421317000000272,-70.0
3,njx,f,22,r,1,(172.20000000000002, 0.0),21,3,1,yes,x,5,m,1.3427143000008073,0,18,test2,3,1.3428489999932935,-42.0
3,njx,f,22,r,1,(121.76378772032349, 121.76378772032349),22,3,1,yes,x,5,m,0.7802415999904042,0,19,test2,3,0.780665800004499,-42.0
3,njx,f,22,r,1,(-3.163262682197613e-14, -172.20000000000002),27,25,4,no,m,6,m,0.9333512000011979,1,20,test2,3,0.9335642999940319,-42.0
3,njx,f,22,r,1,(-121.76378772032348, 121.76378772032349),24,3,1,no,m,6,m,1.1052372999984073,1,21,test2,3,1.105452800009516,-42.0
3,njx,f,22,r,1,(-172.20000000000002, 2.1088417881317425e-14),25,-3,11,yes,x,5,m,0.9150238000001991,0,22,test2,3,0.9153109000035329,-48.0
3,njx,f,22,r,1,(-172.20000000000002, 2.1088417881317425e-14),25,3,1,yes,x,5,x,0.7923470000096131,1,23,test2,3,0.7928925000014715,-42.0
3,njx,f,22,r,1,(-121.76378772032348, 121.76378772032349),24,5,2,yes,x,5,x,0.8797818000020925,1,24,test2,3,0.8799199999921257,-40.0
3,njx,f,22,r,1,(-121.76378772032348, 121.76378772032349),24,25,4,no,m,6,m,0.945992799999658,1,25,test2,3,0.9462067999993451,-40.0
3,njx,f,22,r,1,(121.76378772032346, -121.76378772032352),28,5,2,yes,x,5,x,0.6608492999948794,1,26,test2,3,0.66099380000378,-40.0
3,njx,f,22,r,1,(121.76378772032346, -121.76378772032352),28,25,4,yes,x,5,x,0.5308447999996133,1,27,test2,3,0.5311079000093741,-20.0
3,njx,f,22,r,1,(-3.163262682197613e-14, -172.20000000000002),27,5,2,yes,x,5,x,0.5696262999990722,1,28,test2,3,0.5697278000006918,-40.0
3,njx,f,22,r,1,(1.0544208940658713e-14, 172.20000000000002),23,-25,14,yes,x,5,x,0.5683640000061132,1,29,test2,3,0.5684631999902194,-70.0
3,njx,f,22,r,1,(-172.20000000000002, 2.1088417881317425e-14),25,25,4,no,m,6,m,0.7309545000025537,1,30,test2,3,0.7314857000019401,-70.0
3,njx,f,22,r,1,(121.76378772032346, -121.76378772032352),28,-3,11,yes,x,5,x,0.8987525999982608,1,31,test2,3,0.8988683999923524,-48.0
3,njx,f,22,r,1,(-172.20000000000002, 2.1088417881317425e-14),25,7,3,yes,x,5,x,0.5430682999867713,1,32,test2,3,0.5437559000129113,-38.0
3,njx,f,22,r,1,(121.76378772032349, 121.76378772032349),22,-3,11,yes,x,5,m,0.9478950999910012,0,33,test2,3,0.9481190999940736,-48.0
3,njx,f,22,r,1,(172.20000000000002, 0.0),21,-3,11,yes,x,5,x,1.1138471000012942,1,34,test2,3,1.1139752000017324,-48.0
3,njx,f,22,r,1,(121.76378772032349, 121.76378772032349),22,5,2,no,m,6,m,0.8201917999977013,1,35,test2,3,0.8204031000059331,-48.0
3,njx,f,22,r,1,(121.76378772032349, 121.76378772032349),22,-25,14,yes,x,5,x,0.5434636999998474,1,36,test2,3,0.5435636999900453,-70.0
3,njx,f,22,r,1,(121.76378772032346, -121.76378772032352),28,-5,12,yes,x,5,x,0.7513075000024401,1,37,test2,3,0.7515374999929918,-50.0
3,njx,f,22,r,1,(121.76378772032349, 121.76378772032349),22,5,2,yes,x,5,x,0.5898352000076557,1,38,test2,3,0.5901596999901813,-40.0
3,njx,f,22,r,1,(-121.76378772032352, -121.76378772032348),26,-5,12,yes,x,5,x,0.6848387000063667,1,39,test2,3,0.6849704999913229,-50.0
3,njx,f,22,r,1,(-121.76378772032348, 121.76378772032349),24,3,1,yes,x,5,x,0.6406316000065999,1,40,test2,3,0.6410521999932826,-42.0
3,njx,f,22,r,1,(-3.163262682197613e-14, -172.20000000000002),27,-25,14,no,m,6,x,1.2672093000001041,0,41,test2,3,1.2674473999941256,-42.0
3,njx,f,22,r,1,(-172.20000000000002, 2.1088417881317425e-14),25,-7,13,yes,x,5,x,0.8240743999922415,1,42,test2,3,0.82459899999958,-52.0
3,njx,f,22,r,1,(-121.76378772032352, -121.76378772032348),26,25,4,yes,x,5,x,0.4768592000036733,1,43,test2,3,0.4769567999901483,-20.0
3,njx,f,22,r,1,(121.76378772032349, 121.76378772032349),22,7,3,no,m,6,m,0.677391399993212,1,44,test2,3,0.6774924000055762,-20.0
3,njx,f,22,r,1,(-121.76378772032352, -121.76378772032348),26,7,3,yes,x,5,x,0.4602000000013504,1,45,test2,3,0.46057670000300277,-38.0
3,njx,f,22,r,1,(1.0544208940658713e-14, 172.20000000000002),23,-25,14,no,m,6,m,0.8573120999935782,1,46,test2,3,0.858005600006436,-38.0
3,njx,f,22,r,1,(121.76378772032346, -121.76378772032352),28,3,1,no,m,6,x,0.9495503999933135,0,47,test2,3,0.9496768999961205,-38.0
3,njx,f,22,r,1,(-121.76378772032348, 121.76378772032349),24,-5,12,no,m,6,m,0.7118678999977419,1,48,test2,3,0.7119807999988552,-38.0
3,njx,f,22,r,1,(-121.76378772032352, -121.76378772032348),26,5,2,yes,x,5,x,0.6619607999891741,1,49,test2,3,0.6621248000010382,-40.0
3,njx,f,22,r,1,(-172.20000000000002, 2.1088417881317425e-14),25,5,2,yes,x,5,m,1.1068420999945374,0,50,test2,3,1.1071334000007482,-40.0
3,njx,f,22,r,1,(-121.76378772032348, 121.76378772032349),24,7,3,yes,x,5,x,0.525057699996978,1,51,test2,3,0.5252163999975892,-38.0
3,njx,f,22,r,1,(172.20000000000002, 0.0),21,-5,12,no,m,6,m,0.7793800000072224,1,52,test2,3,0.7794834000087576,-38.0
3,njx,f,22,r,1,(1.0544208940658713e-14, 172.20000000000002),23,-3,11,yes,x,5,m,0.8300837999995565,0,53,test2,3,0.8302519999997457,-48.0
3,njx,f,22,r,1,(121.76378772032346, -121.76378772032352),28,-7,13,yes,x,5,x,0.6535726000001887,1,54,test2,3,0.653673599998001,-52.0
3,njx,f,22,r,1,(-121.76378772032352, -121.76378772032348),26,25,4,no,m,6,m,0.6393500999984099,1,55,test2,3,0.6399303999933181,-52.0
3,njx,f,22,r,1,(-3.163262682197613e-14, -172.20000000000002),27,7,3,yes,x,5,x,0.506825900010881,1,56,test2,3,0.5072152000066126,-38.0
3,njx,f,22,r,1,(1.0544208940658713e-14, 172.20000000000002),23,7,3,no,m,6,m,0.8115095999964979,1,57,test2,3,0.8117239999992307,-38.0
3,njx,f,22,r,1,(-3.163262682197613e-14, -172.20000000000002),27,-25,14,yes,x,5,x,0.37670510000316426,1,58,test2,3,0.377254199993331,-70.0
3,njx,f,22,r,1,(-121.76378772032348, 121.76378772032349),24,7,3,yes,x,5,x,0.5146496999950614,1,59,test2,3,0.5147496999998111,-38.0
3,njx,f,22,r,1,(121.76378772032346, -121.76378772032352),28,3,1,yes,x,5,x,0.7232519000099273,1,60,test2,3,0.7234797999990406,-42.0
3,njx,f,22,r,1,(1.0544208940658713e-14, 172.20000000000002),23,3,1,yes,x,5,x,0.8111973000050057,1,61,test2,3,0.811510300001828,-42.0
3,njx,f,22,r,1,(-172.20000000000002, 2.1088417881317425e-14),25,-25,14,yes,x,5,x,0.5736881999910111,1,62,test2,3,0.574102699989453,-70.0
3,njx,f,22,r,1,(-121.76378772032352, -121.76378772032348),26,-7,13,yes,x,5,x,0.5232087000040337,1,63,test2,3,0.5234973000042373,-52.0
3,njx,f,22,r,1,(1.0544208940658713e-14, 172.20000000000002),23,5,2,no,m,6,m,0.6483795999956783,1,64,test2,3,0.6494706000084989,-52.0
3,njx,f,22,r,1,(1.0544208940658713e-14, 172.20000000000002),23,-5,12,no,m,6,m,0.7356213999883039,1,65,test2,3,0.7358812999882502,-52.0
3,njx,f,22,r,1,(121.76378772032349, 121.76378772032349),22,-25,14,no,m,6,m,0.6652743000013288,1,66,test2,3,0.6654082000022754,-52.0
3,njx,f,22,r,1,(172.20000000000002, 0.0),21,5,2,yes,x,5,x,0.9745746000116924,1,67,test2,3,0.9747265000041807,-40.0
3,njx,f,22,r,1,(-3.163262682197613e-14, -172.20000000000002),27,-5,12,yes,x,5,x,0.6982508999935817,1,68,test2,3,0.6983916000026511,-50.0
3,njx,f,22,r,1,(172.20000000000002, 0.0),21,7,3,yes,x,5,x,0.7236076999979559,1,69,test2,3,0.723773000005167,-38.0
3,njx,f,22,r,1,(-3.163262682197613e-14, -172.20000000000002),27,7,3,no,m,6,m,0.6927298000082374,1,70,test2,3,0.6928620000107912,-38.0
3,njx,f,22,r,1,(-172.20000000000002, 2.1088417881317425e-14),25,-25,14,no,m,6,m,0.7710185999894748,1,71,test2,3,0.7712621999962721,-38.0
3,njx,f,22,r,1,(172.20000000000002, 0.0),21,7,3,no,m,6,m,1.0765766999975313,1,72,test2,3,1.0768462999985786,-38.0
3,njx,f,22,r,1,(121.76378772032346, -121.76378772032352),28,5,2,no,m,6,m,0.7673986000008881,1,73,test2,3,0.7675117000035243,-38.0
3,njx,f,22,r,1,(172.20000000000002, 0.0),21,7,3,yes,x,5,x,0.6184207000042079,1,74,test2,3,0.6186395999975502,-38.0
3,njx,f,22,r,1,(172.20000000000002, 0.0),21,25,4,yes,x,5,x,0.5030924000020605,1,75,test2,3,0.5032063999969978,-20.0
3,njx,f,22,r,1,(121.76378772032349, 121.76378772032349),22,-3,11,yes,x,5,m,0.7571069999976316,0,76,test2,3,0.7572396000032313,-48.0
3,njx,f,22,r,1,(172.20000000000002, 0.0),21,-25,14,yes,x,5,x,0.4941479000117397,1,77,test2,3,0.4943130000028759,-70.0
3,njx,f,22,r,1,(121.76378772032349, 121.76378772032349),22,25,4,yes,x,5,x,0.5289314000110608,1,78,test2,3,0.5292059000057634,-20.0
3,njx,f,22,r,1,(121.76378772032349, 121.76378772032349),22,25,4,no,m,6,m,0.829865299994708,1,79,test2,3,0.8301174999942305,-20.0
3,njx,f,22,r,1,(-121.76378772032348, 121.76378772032349),24,-3,11,no,m,6,x,0.3300466999935452,0,80,test2,3,0.33049820001178887,-20.0
3,njx,f,22,r,1,(1.0544208940658713e-14, 172.20000000000002),23,25,4,yes,x,5,x,0.7742868000059389,1,81,test2,3,0.7744664000056218,-20.0
3,njx,f,22,r,1,(-3.163262682197613e-14, -172.20000000000002),27,-7,13,no,m,6,m,0.6989518999907887,1,82,test2,3,0.6991191999986768,-20.0
3,njx,f,22,r,1,(-3.163262682197613e-14, -172.20000000000002),27,-25,14,yes,x,5,x,0.7283067999960622,1,83,test2,3,0.7284027000132482,-70.0
3,njx,f,22,r,1,(-121.76378772032352, -121.76378772032348),26,3,1,no,m,6,m,0.8634145000105491,1,84,test2,3,0.863615900001605,-70.0
3,njx,f,22,r,1,(121.76378772032346, -121.76378772032352),28,-5,12,no,m,6,m,0.7070598999998765,1,85,test2,3,0.7072761000017636,-70.0
3,njx,f,22,r,1,(-121.76378772032348, 121.76378772032349),24,-5,12,yes,x,5,x,0.7118982999963919,1,86,test2,3,0.7120139999897219,-50.0
3,njx,f,22,r,1,(121.76378772032349, 121.76378772032349),22,7,3,yes,x,5,x,0.6630666999990353,1,87,test2,3,0.6633828000049107,-38.0
3,njx,f,22,r,1,(1.0544208940658713e-14, 172.20000000000002),23,-7,13,no,m,6,m,0.8248478000023169,1,88,test2,3,0.8249437000049511,-38.0
3,njx,f,22,r,1,(-172.20000000000002, 2.1088417881317425e-14),25,-7,13,no,m,6,m,0.7435066999896662,1,89,test2,3,0.7437282999890158,-38.0
3,njx,f,22,r,1,(-121.76378772032352, -121.76378772032348),26,25,4,yes,x,5,x,0.6154824999975972,1,90,test2,3,0.6155894999974407,-20.0
3,njx,f,22,r,1,(121.76378772032349, 121.76378772032349),22,3,1,yes,x,5,x,1.1130895000096643,1,91,test2,3,1.1133236000023317,-42.0
3,njx,f,22,r,1,(121.76378772032349, 121.76378772032349),22,-5,12,yes,x,5,x,0.7926344000006793,1,92,test2,3,0.7930909999995492,-50.0
3,njx,f,22,r,1,(-121.76378772032348, 121.76378772032349),24,-3,11,yes,x,5,m,0.827366899990011,0,93,test2,3,0.8276050000131363,-48.0
3,njx,f,22,r,1,(172.20000000000002, 0.0),21,3,1,no,m,6,m,0.8549849999981234,1,94,test2,3,0.8551874999975553,-48.0
3,njx,f,22,r,1,(-121.76378772032352, -121.76378772032348),26,5,2,yes,x,5,x,0.984426800001529,1,95,test2,3,0.9847322999994503,-40.0
3,njx,f,22,r,1,(1.0544208940658713e-14, 172.20000000000002),23,3,1,yes,x,5,m,0.9856953999988036,0,96,test2,3,0.9859311000036541,-42.0
3,njx,f,22,r,1,(121.76378772032349, 121.76378772032349),22,25,4,yes,x,5,x,0.664896599992062,1,1,test1,4,0.6649915000016335,-20.0
3,njx,f,22,r,1,(1.0544208940658713e-14, 172.20000000000002),23,-5,12,yes,x,5,x,1.1074785999953747,1,2,test1,4,1.1077249999943888,-50.0
3,njx,f,22,r,1,(-3.163262682197613e-14, -172.20000000000002),27,-3,11,yes,x,5,x,0.9290802000032272,1,3,test1,4,0.9292573999991873,-48.0
3,njx,f,22,r,1,(121.76378772032346, -121.76378772032352),28,-25,14,yes,x,5,x,0.5801644000021042,1,4,test1,4,0.5803091999987373,-70.0
3,njx,f,22,r,1,(121.76378772032349, 121.76378772032349),22,7,3,yes,x,5,x,0.5299421999952756,1,5,test1,4,0.5302926000003936,-38.0
3,njx,f,22,r,1,(-3.163262682197613e-14, -172.20000000000002),27,-3,11,yes,x,5,m,1.0884035999915795,0,6,test1,4,1.0888864000007743,-48.0
3,njx,f,22,r,1,(-3.163262682197613e-14, -172.20000000000002),27,5,2,yes,x,5,x,0.5827738000079989,1,7,test1,4,0.5832681999891065,-40.0
3,njx,f,22,r,1,(1.0544208940658713e-14, 172.20000000000002),23,5,2,yes,x,5,x,0.5791401000024052,1,8,test1,4,0.5792689999943832,-40.0
3,njx,f,22,r,1,(-121.76378772032348, 121.76378772032349),24,5,2,yes,x,5,x,0.5418026999977883,1,9,test1,4,0.5420281999977306,-40.0
3,njx,f,22,r,1,(172.20000000000002, 0.0),21,-3,11,yes,x,5,x,0.7352549000061117,1,10,test1,4,0.7353594000014709,-48.0
3,njx,f,22,r,1,(-3.163262682197613e-14, -172.20000000000002),27,-7,13,yes,x,5,x,0.576899499996216,1,11,test1,4,0.5770247000036761,-52.0
3,njx,f,22,r,1,(-3.163262682197613e-14, -172.20000000000002),27,-3,11,no,m,6,m,0.9336189000023296,1,12,test1,4,0.9342783999891253,-52.0
3,njx,f,22,r,1,(-172.20000000000002, 2.1088417881317425e-14),25,7,3,yes,x,5,x,0.5602348999964306,1,13,test1,4,0.5604595000040717,-38.0
3,njx,f,22,r,1,(-172.20000000000002, 2.1088417881317425e-14),25,-5,12,yes,x,5,x,0.5228401000058511,1,14,test1,4,0.5229541000007885,-50.0
3,njx,f,22,r,1,(172.20000000000002, 0.0),21,5,2,no,m,6,x,0.9587739999988116,0,15,test1,4,0.9590967000112869,-50.0
3,njx,f,22,r,1,(-121.76378772032352, -121.76378772032348),26,-7,13,no,m,6,m,0.7403179999964777,1,16,test1,4,0.7405317000084324,-50.0
3,njx,f,22,r,1,(-3.163262682197613e-14, -172.20000000000002),27,-7,13,yes,x,5,x,0.4645747000031406,1,17,test1,4,0.4647073000087403,-52.0
3,njx,f,22,r,1,(121.76378772032346, -121.76378772032352),28,7,3,no,m,6,m,0.6950199999992037,1,18,test1,4,0.6951842999988003,-52.0
3,njx,f,22,r,1,(-172.20000000000002, 2.1088417881317425e-14),25,5,2,no,m,6,m,0.6294546999997692,1,19,test1,4,0.6297542999964207,-52.0
3,njx,f,22,r,1,(-3.163262682197613e-14, -172.20000000000002),27,3,1,yes,x,5,x,0.5723155000014231,1,20,test1,4,0.5726172999857226,-42.0
3,njx,f,22,r,1,(172.20000000000002, 0.0),21,-5,12,yes,x,5,x,1.1256053000106476,1,21,test1,4,1.1258786999969743,-50.0
3,njx,f,22,r,1,(-3.163262682197613e-14, -172.20000000000002),27,3,1,no,m,6,m,0.7945902999927057,1,22,test1,4,0.7947132999979658,-50.0
3,njx,f,22,r,1,(-172.20000000000002, 2.1088417881317425e-14),25,-5,12,no,m,6,m,0.671662099994137,1,23,test1,4,0.6719640999945113,-50.0
3,njx,f,22,r,1,(121.76378772032346, -121.76378772032352),28,25,4,no,m,6,m,0.6954073000088101,1,24,test1,4,0.69552670000121,-50.0
3,njx,f,22,r,1,(121.76378772032349, 121.76378772032349),22,5,2,yes,x,5,x,0.5513559999963036,1,25,test1,4,0.5515177000052063,-40.0
3,njx,f,22,r,1,(-121.76378772032348, 121.76378772032349),24,-5,12,yes,x,5,x,0.6584044999908656,1,26,test1,4,0.6585162999981549,-50.0
3,njx,f,22,r,1,(121.76378772032346, -121.76378772032352),28,-5,12,yes,x,5,x,0.5638390999956755,1,27,test1,4,0.5645441000087885,-50.0
3,njx,f,22,r,1,(-172.20000000000002, 2.1088417881317425e-14),25,-3,11,yes,x,5,m,0.7133480999909807,0,28,test1,4,0.7136236999940593,-48.0
3,njx,f,22,r,1,(-3.163262682197613e-14, -172.20000000000002),27,7,3,yes,x,5,x,0.5725052000052528,1,29,test1,4,0.5727046999963932,-38.0
3,njx,f,22,r,1,(-121.76378772032348, 121.76378772032349),24,25,4,yes,x,5,x,0.4785338999936357,1,30,test1,4,0.47863329999381676,-20.0
3,njx,f,22,r,1,(1.0544208940658713e-14, 172.20000000000002),23,25,4,yes,x,5,x,0.46705069999734405,1,31,test1,4,0.4673744000028819,-20.0
3,njx,f,22,r,1,(172.20000000000002, 0.0),21,-25,14,no,m,6,m,0.9707274000102188,1,32,test1,4,0.9711146000045119,-20.0
3,njx,f,22,r,1,(-3.163262682197613e-14, -172.20000000000002),27,5,2,no,m,6,m,0.8318805000017164,1,33,test1,4,0.8321499000012409,-20.0
3,njx,f,22,r,1,(-121.76378772032348, 121.76378772032349),24,-25,14,yes,x,5,x,0.4557948000001488,1,34,test1,4,0.4558965000032913,-70.0
3,njx,f,22,r,1,(1.0544208940658713e-14, 172.20000000000002),23,-7,13,yes,x,5,x,0.5016418999875896,1,35,test1,4,0.501968600001419,-52.0
3,njx,f,22,r,1,(121.76378772032349, 121.76378772032349),22,-7,13,yes,x,5,m,0.7005006999970647,0,36,test1,4,0.7006053000077372,-52.0
3,njx,f,22,r,1,(-121.76378772032348, 121.76378772032349),24,5,2,no,m,6,m,1.0704968999925768,1,37,test1,4,1.0707187000080012,-52.0
3,njx,f,22,r,1,(-121.76378772032352, -121.76378772032348),26,-3,11,no,m,6,m,0.7166356999950949,1,38,test1,4,0.7168313000001945,-52.0
3,njx,f,22,r,1,(121.76378772032349, 121.76378772032349),22,3,1,no,m,6,m,0.8693746000062674,1,39,test1,4,0.8695838999992702,-52.0
3,njx,f,22,r,1,(-121.76378772032352, -121.76378772032348),26,-25,14,yes,x,5,x,0.4636573000025237,1,40,test1,4,0.4639067999960389,-70.0
3,njx,f,22,r,1,(-172.20000000000002, 2.1088417881317425e-14),25,-25,14,yes,x,5,x,0.4246391000051517,1,41,test1,4,0.42487200000323355,-70.0
3,njx,f,22,r,1,(-172.20000000000002, 2.1088417881317425e-14),25,-3,11,no,m,6,m,0.7323938000045018,1,42,test1,4,0.7326169000007212,-70.0
3,njx,f,22,r,1,(172.20000000000002, 0.0),21,-3,11,no,m,6,m,0.7012345000111964,1,43,test1,4,0.7013590999995358,-70.0
3,njx,f,22,r,1,(-3.163262682197613e-14, -172.20000000000002),27,25,4,yes,x,5,x,0.5029033000027994,1,44,test1,4,0.50313019999885,-20.0
3,njx,f,22,r,1,(-172.20000000000002, 2.1088417881317425e-14),25,-7,13,yes,x,5,x,0.5604899999889312,1,45,test1,4,0.5606162000040058,-52.0
3,njx,f,22,r,1,(1.0544208940658713e-14, 172.20000000000002),23,5,2,yes,x,5,x,0.7009625000064261,1,46,test1,4,0.7015318000048865,-40.0
3,njx,f,22,r,1,(-121.76378772032348, 121.76378772032349),24,-25,14,no,m,6,m,0.6751992000063183,1,47,test1,4,0.6753416999999899,-40.0
3,njx,f,22,r,1,(-172.20000000000002, 2.1088417881317425e-14),25,3,1,yes,x,5,x,1.0209587999997893,1,48,test1,4,1.021454800007632,-42.0
3,njx,f,22,r,1,(172.20000000000002, 0.0),21,-25,14,yes,x,5,x,0.510828099999344,1,49,test1,4,0.5112129999906756,-70.0
3,njx,f,22,r,1,(1.0544208940658713e-14, 172.20000000000002),23,3,1,no,m,6,m,0.6151782999950228,1,50,test1,4,0.6157030000031227,-70.0
3,njx,f,22,r,1,(-172.20000000000002, 2.1088417881317425e-14),25,-5,12,yes,x,5,x,0.7966878000006545,1,51,test1,4,0.7968314999889117,-50.0
3,njx,f,22,r,1,(121.76378772032349, 121.76378772032349),22,-25,14,yes,x,5,x,0.5644614000048023,1,52,test1,4,0.5649036000104388,-70.0
3,njx,f,22,r,1,(121.76378772032349, 121.76378772032349),22,-3,11,no,m,6,m,0.5998137999995379,1,53,test1,4,0.6001204999920446,-70.0
3,njx,f,22,r,1,(-121.76378772032348, 121.76378772032349),24,3,1,yes,x,5,m,0.8048387000017101,0,54,test1,4,0.8049528999981703,-42.0
3,njx,f,22,r,1,(121.76378772032349, 121.76378772032349),22,-7,13,yes,x,5,x,0.8593222000054084,1,55,test1,4,0.859460300009232,-52.0
3,njx,f,22,r,1,(1.0544208940658713e-14, 172.20000000000002),23,7,3,yes,x,5,x,0.5138499000022421,1,56,test1,4,0.5141481999889947,-38.0
3,njx,f,22,r,1,(-121.76378772032352, -121.76378772032348),26,-25,14,no,m,6,m,0.6567356000014115,1,57,test1,4,0.656849200007855,-38.0
3,njx,f,22,r,1,(172.20000000000002, 0.0),21,5,2,yes,x,5,x,0.8119871000089915,1,58,test1,4,0.812238200000138,-40.0
3,njx,f,22,r,1,(-121.76378772032348, 121.76378772032349),24,-7,13,yes,x,5,x,0.5011949000036111,1,59,test1,4,0.5014723000058439,-52.0
3,njx,f,22,r,1,(1.0544208940658713e-14, 172.20000000000002),23,-5,12,yes,x,5,x,0.5655381999968085,1,60,test1,4,0.5658013999927789,-50.0
3,njx,f,22,r,1,(-172.20000000000002, 2.1088417881317425e-14),25,5,2,yes,x,5,x,0.5814705999946455,1,61,test1,4,0.5817282000061823,-40.0
3,njx,f,22,r,1,(-121.76378772032352, -121.76378772032348),26,-7,13,yes,x,5,x,0.7567832999920938,1,62,test1,4,0.7572331999981543,-52.0
3,njx,f,22,r,1,(1.0544208940658713e-14, 172.20000000000002),23,-3,11,yes,x,5,x,0.8290965999913169,1,63,test1,4,0.829262999992352,-48.0
3,njx,f,22,r,1,(1.0544208940658713e-14, 172.20000000000002),23,25,4,no,m,6,m,0.7332726000022376,1,64,test1,4,0.734110999997938,-48.0
3,njx,f,22,r,1,(-121.76378772032352, -121.76378772032348),26,3,1,yes,x,5,x,0.8295792999997502,1,65,test1,4,0.8298457999917446,-42.0
3,njx,f,22,r,1,(-121.76378772032352, -121.76378772032348),26,7,3,no,m,6,m,0.8018614000029629,1,66,test1,4,0.8019612999923993,-42.0
3,njx,f,22,r,1,(121.76378772032346, -121.76378772032352),28,3,1,yes,x,5,x,1.1151223000051687,1,67,test1,4,1.1154457000084221,-42.0
3,njx,f,22,r,1,(121.76378772032346, -121.76378772032352),28,-3,11,yes,x,5,m,0.698209099995438,0,68,test1,4,0.6985118999873521,-48.0
3,njx,f,22,r,1,(-121.76378772032352, -121.76378772032348),26,7,3,yes,x,5,x,0.5060525000008056,1,69,test1,4,0.5062481000059051,-38.0
3,njx,f,22,r,1,(-121.76378772032352, -121.76378772032348),26,5,2,no,m,6,m,0.8884326000115834,1,70,test1,4,0.8885682000109227,-38.0
3,njx,f,22,r,1,(-3.163262682197613e-14, -172.20000000000002),27,-5,12,no,m,6,m,0.8512175000068964,1,71,test1,4,0.8513685000070836,-38.0
3,njx,f,22,r,1,(172.20000000000002, 0.0),21,-7,13,no,m,6,m,0.9039067999983672,1,72,test1,4,0.9044649999996182,-38.0
3,njx,f,22,r,1,(1.0544208940658713e-14, 172.20000000000002),23,-7,13,yes,x,5,x,0.5266072999947937,1,73,test1,4,0.5268631999933859,-52.0
3,njx,f,22,r,1,(121.76378772032346, -121.76378772032352),28,25,4,yes,x,5,x,0.6320064000028651,1,74,test1,4,0.6322695999988355,-20.0
3,njx,f,22,r,1,(-121.76378772032352, -121.76378772032348),26,3,1,yes,x,5,m,0.6477850000082981,0,75,test1,4,0.6481566000002204,-42.0
3,njx,f,22,r,1,(1.0544208940658713e-14, 172.20000000000002),23,-25,14,yes,x,5,x,0.48162770000635646,1,76,test1,4,0.4822266999981366,-70.0
3,njx,f,22,r,1,(-121.76378772032352, -121.76378772032348),26,-3,11,yes,x,5,x,1.217663999996148,1,77,test1,4,1.2177773000003072,-48.0
3,njx,f,22,r,1,(1.0544208940658713e-14, 172.20000000000002),23,7,3,yes,x,5,x,0.5339563000015914,1,78,test1,4,0.5341929999995045,-38.0
3,njx,f,22,r,1,(-172.20000000000002, 2.1088417881317425e-14),25,25,4,yes,x,5,x,0.5365799999999581,1,79,test1,4,0.5366864999959944,-20.0
3,njx,f,22,r,1,(121.76378772032346, -121.76378772032352),28,7,3,yes,x,5,m,0.5746641999867279,0,80,test1,4,0.5748550999996951,-38.0
3,njx,f,22,r,1,(-172.20000000000002, 2.1088417881317425e-14),25,25,4,yes,x,5,x,0.4152451999980258,1,81,test1,4,0.41535429999930784,-20.0
3,njx,f,22,r,1,(121.76378772032349, 121.76378772032349),22,-5,12,no,m,6,m,0.8673168000095757,1,82,test1,4,0.8674220999964746,-20.0
3,njx,f,22,r,1,(-121.76378772032348, 121.76378772032349),24,-3,11,yes,x,5,x,0.8084777000040049,1,83,test1,4,0.8086408999952255,-48.0
3,njx,f,22,r,1,(-121.76378772032348, 121.76378772032349),24,-7,13,yes,x,5,x,0.9534638999903109,1,84,test1,4,0.9539270999957807,-52.0
3,njx,f,22,r,1,(172.20000000000002, 0.0),21,3,1,yes,x,5,m,0.6580063000001246,0,85,test1,4,0.6583128000056604,-42.0
3,njx,f,22,r,1,(-121.76378772032348, 121.76378772032349),24,-7,13,no,m,6,m,0.9014461000042502,1,86,test1,4,0.9018059999943944,-42.0
3,njx,f,22,r,1,(172.20000000000002, 0.0),21,25,4,no,m,6,m,0.8678731999971205,1,87,test1,4,0.8681081999966409,-42.0
3,njx,f,22,r,1,(1.0544208940658713e-14, 172.20000000000002),23,-3,11,no,m,6,m,0.8851947000075597,1,88,test1,4,0.8852966999984346,-42.0
3,njx,f,22,r,1,(-121.76378772032348, 121.76378772032349),24,25,4,yes,x,5,x,0.664165399997728,1,89,test1,4,0.6643412999983411,-20.0
3,njx,f,22,r,1,(121.76378772032346, -121.76378772032352),28,-25,14,no,m,6,m,0.5918601000012131,1,90,test1,4,0.5926495000021532,-20.0
3,njx,f,22,r,1,(172.20000000000002, 0.0),21,-5,12,yes,x,5,x,0.6629348999995273,1,91,test1,4,0.6632901999983005,-50.0
3,njx,f,22,r,1,(-3.163262682197613e-14, -172.20000000000002),27,3,1,yes,x,5,x,0.9953712999995332,1,92,test1,4,0.9956033999915235,-42.0
3,njx,f,22,r,1,(172.20000000000002, 0.0),21,25,4,yes,x,5,x,0.6551397000002908,1,93,test1,4,0.6553064000036102,-20.0
3,njx,f,22,r,1,(121.76378772032346, -121.76378772032352),28,-7,13,yes,x,5,x,0.4210849000082817,1,94,test1,4,0.4213178999925731,-52.0
3,njx,f,22,r,1,(172.20000000000002, 0.0),21,-7,13,yes,x,5,x,0.7624033000029158,1,95,test1,4,0.7628178000013577,-52.0
3,njx,f,22,r,1,(-121.76378772032352, -121.76378772032348),26,-5,12,no,m,6,m,0.7416739999898709,1,96,test1,4,0.7418430999969132,-52.0
3,njx,f,22,r,1,(-172.20000000000002, 2.1088417881317425e-14),25,3,1,no,m,6,m,0.6529720999969868,1,1,test2,4,0.6531335000036051,-52.0
3,njx,f,22,r,1,(-121.76378772032352, -121.76378772032348),26,-3,11,yes,x,5,m,0.6533270999934757,0,2,test2,4,0.6535547999956179,-48.0
3,njx,f,22,r,1,(121.76378772032349, 121.76378772032349),22,-7,13,no,m,6,m,0.6229307000030531,1,3,test2,4,0.6230257999995956,-48.0
3,njx,f,22,r,1,(-172.20000000000002, 2.1088417881317425e-14),25,7,3,no,m,6,m,1.0238140000001295,1,4,test2,4,1.023912200005725,-48.0
3,njx,f,22,r,1,(121.76378772032346, -121.76378772032352),28,7,3,yes,x,5,x,0.8348878999968292,1,5,test2,4,0.8349891999969259,-38.0
3,njx,f,22,r,1,(-121.76378772032352, -121.76378772032348),26,-5,12,yes,x,5,x,0.5252247999887913,1,6,test2,4,0.5255471999989823,-50.0
3,njx,f,22,r,1,(121.76378772032346, -121.76378772032352),28,5,2,yes,x,5,x,0.526754799997434,1,7,test2,4,0.5268515999923693,-40.0
3,njx,f,22,r,1,(121.76378772032346, -121.76378772032352),28,-7,13,no,m,6,m,1.1357176000019535,1,8,test2,4,1.1358743000018876,-40.0
3,njx,f,22,r,1,(121.76378772032346, -121.76378772032352),28,-3,11,no,m,6,m,0.6879373999981908,1,9,test2,4,0.6880374000029406,-40.0
3,njx,f,22,r,1,(-121.76378772032348, 121.76378772032349),24,-25,14,yes,x,5,x,0.4135662000044249,1,10,test2,4,0.41370840001036413,-70.0
3,njx,f,22,r,1,(-3.163262682197613e-14, -172.20000000000002),27,25,4,yes,x,5,x,0.4751323999953456,1,11,test2,4,0.4752627999987453,-20.0
3,njx,f,22,r,1,(-121.76378772032352, -121.76378772032348),26,-25,14,yes,x,5,x,0.41481560000102036,1,12,test2,4,0.4151595000002999,-70.0
3,njx,f,22,r,1,(172.20000000000002, 0.0),21,-7,13,yes,x,5,x,0.6232183000101941,1,13,test2,4,0.623351799993543,-52.0
3,njx,f,22,r,1,(121.76378772032349, 121.76378772032349),22,-5,12,yes,x,5,x,0.6798010999918915,1,14,test2,4,0.6803723999910289,-50.0
3,njx,f,22,r,1,(-3.163262682197613e-14, -172.20000000000002),27,-5,12,yes,x,5,x,0.6185282999940682,1,15,test2,4,0.6187780000036582,-50.0
3,njx,f,22,r,1,(-121.76378772032348, 121.76378772032349),24,7,3,no,m,6,m,0.6749516999989282,1,16,test2,4,0.6752578999876278,-50.0
3,njx,f,22,r,1,(121.76378772032346, -121.76378772032352),28,-25,14,yes,x,5,x,0.9872439999890048,1,17,test2,4,0.9875656999938656,-70.0
3,njx,f,22,r,1,(172.20000000000002, 0.0),21,3,1,yes,x,5,x,1.078755499998806,1,18,test2,4,1.078859499990358,-42.0
3,njx,f,22,r,1,(121.76378772032349, 121.76378772032349),22,3,1,yes,x,5,x,0.5684206000005361,1,19,test2,4,0.5685188999923412,-42.0
3,njx,f,22,r,1,(-3.163262682197613e-14, -172.20000000000002),27,25,4,no,m,6,m,0.9142772000050172,1,20,test2,4,0.9144163000019034,-42.0
3,njx,f,22,r,1,(-121.76378772032348, 121.76378772032349),24,3,1,no,m,6,m,1.0273667000001296,1,21,test2,4,1.027597100008279,-42.0
3,njx,f,22,r,1,(-172.20000000000002, 2.1088417881317425e-14),25,-3,11,yes,x,5,m,1.2125291000120342,0,22,test2,4,1.2126733000040986,-48.0
3,njx,f,22,r,1,(-172.20000000000002, 2.1088417881317425e-14),25,3,1,yes,x,5,m,0.7907553999975789,0,23,test2,4,0.7912597999966238,-42.0
3,njx,f,22,r,1,(-121.76378772032348, 121.76378772032349),24,5,2,yes,x,5,x,0.5938402000028873,1,24,test2,4,0.5939469000004465,-40.0
3,njx,f,22,r,1,(-121.76378772032348, 121.76378772032349),24,25,4,no,m,6,m,0.8258889999997336,1,25,test2,4,0.8266735000070184,-40.0
3,njx,f,22,r,1,(121.76378772032346, -121.76378772032352),28,5,2,yes,x,5,x,1.0448311999934958,1,26,test2,4,1.044944499997655,-40.0
3,njx,f,22,r,1,(121.76378772032346, -121.76378772032352),28,25,4,yes,x,5,x,0.6446461000014096,1,27,test2,4,0.6448069000034593,-20.0
3,njx,f,22,r,1,(-3.163262682197613e-14, -172.20000000000002),27,5,2,yes,x,5,x,0.6048249000014039,1,28,test2,4,0.6050985000038054,-40.0
3,njx,f,22,r,1,(1.0544208940658713e-14, 172.20000000000002),23,-25,14,yes,x,5,x,0.507886099992902,1,29,test2,4,0.5082051000063075,-70.0
3,njx,f,22,r,1,(-172.20000000000002, 2.1088417881317425e-14),25,25,4,no,m,6,m,0.8191152000072179,1,30,test2,4,0.8192488000058802,-70.0
3,njx,f,22,r,1,(121.76378772032346, -121.76378772032352),28,-3,11,yes,x,5,x,1.03277099999832,1,31,test2,4,1.0329644000012195,-48.0
3,njx,f,22,r,1,(-172.20000000000002, 2.1088417881317425e-14),25,7,3,yes,x,5,x,0.6773130999936257,1,32,test2,4,0.6775285999901826,-38.0
3,njx,f,22,r,1,(121.76378772032349, 121.76378772032349),22,-3,11,yes,x,5,m,0.8692239000083646,0,33,test2,4,0.8694923000002746,-48.0
3,njx,f,22,r,1,(172.20000000000002, 0.0),21,-3,11,yes,x,5,m,1.4200345000135712,0,34,test2,4,1.4203447999898344,-48.0
3,njx,f,22,r,1,(121.76378772032349, 121.76378772032349),22,5,2,no,m,6,m,1.3345858999964548,1,35,test2,4,1.3347016000043368,-48.0
3,njx,f,22,r,1,(121.76378772032349, 121.76378772032349),22,-25,14,yes,x,5,x,0.5344874000002164,1,36,test2,4,0.5346233000018401,-70.0
3,njx,f,22,r,1,(121.76378772032346, -121.76378772032352),28,-5,12,yes,x,5,x,0.8863438999978825,1,37,test2,4,0.886737599998014,-50.0
3,njx,f,22,r,1,(121.76378772032349, 121.76378772032349),22,5,2,yes,x,5,x,0.6012917000043672,1,38,test2,4,0.6017976000002818,-40.0
3,njx,f,22,r,1,(-121.76378772032352, -121.76378772032348),26,-5,12,yes,x,5,m,0.8604091000015615,0,39,test2,4,0.8605391000019154,-50.0
3,njx,f,22,r,1,(-121.76378772032348, 121.76378772032349),24,3,1,yes,x,5,x,0.5996185999974841,1,40,test2,4,0.6001206999935675,-42.0
3,njx,f,22,r,1,(-3.163262682197613e-14, -172.20000000000002),27,-25,14,no,m,6,m,1.042601699999068,1,41,test2,4,1.0427035000029719,-42.0
3,njx,f,22,r,1,(-172.20000000000002, 2.1088417881317425e-14),25,-7,13,yes,x,5,m,0.8308384999982081,0,42,test2,4,0.8310956999921473,-52.0
3,njx,f,22,r,1,(-121.76378772032352, -121.76378772032348),26,25,4,yes,x,5,x,0.4605312000057893,1,43,test2,4,0.46146970000700094,-20.0
3,njx,f,22,r,1,(121.76378772032349, 121.76378772032349),22,7,3,no,m,6,m,1.1033660999964923,1,44,test2,4,1.1036074000003282,-20.0
3,njx,f,22,r,1,(-121.76378772032352, -121.76378772032348),26,7,3,yes,x,5,x,0.7037464000022737,1,45,test2,4,0.7039873000030639,-38.0
3,njx,f,22,r,1,(1.0544208940658713e-14, 172.20000000000002),23,-25,14,no,m,6,m,0.7052048000041395,1,46,test2,4,0.7053008999937447,-38.0
3,njx,f,22,r,1,(121.76378772032346, -121.76378772032352),28,3,1,no,m,6,m,0.8898554999905173,1,47,test2,4,0.8900910000083968,-38.0
3,njx,f,22,r,1,(-121.76378772032348, 121.76378772032349),24,-5,12,no,m,6,m,0.7887831999978516,1,48,test2,4,0.7892687999992631,-38.0
3,njx,f,22,r,1,(-121.76378772032352, -121.76378772032348),26,5,2,yes,x,5,x,0.8447965999948792,1,49,test2,4,0.8454484000103548,-40.0
3,njx,f,22,r,1,(-172.20000000000002, 2.1088417881317425e-14),25,5,2,yes,x,5,x,1.2806697999913013,1,50,test2,4,1.2809693000017432,-40.0
3,njx,f,22,r,1,(-121.76378772032348, 121.76378772032349),24,7,3,yes,x,5,x,0.8743680000043241,1,51,test2,4,0.8745291000086581,-38.0
3,njx,f,22,r,1,(172.20000000000002, 0.0),21,-5,12,no,m,6,m,0.7691078999923775,1,52,test2,4,0.7694047999975737,-38.0
3,njx,f,22,r,1,(1.0544208940658713e-14, 172.20000000000002),23,-3,11,yes,x,5,m,1.3575788000016473,0,53,test2,4,1.357680100001744,-48.0
3,njx,f,22,r,1,(121.76378772032346, -121.76378772032352),28,-7,13,yes,x,5,x,0.7234708000032697,1,54,test2,4,0.7238681000017095,-52.0
3,njx,f,22,r,1,(-121.76378772032352, -121.76378772032348),26,25,4,no,m,6,m,0.630497700010892,1,55,test2,4,0.6307011999888346,-52.0
3,njx,f,22,r,1,(-3.163262682197613e-14, -172.20000000000002),27,7,3,yes,x,5,x,0.6832797999959439,1,56,test2,4,0.6836177999939537,-38.0
3,njx,f,22,r,1,(1.0544208940658713e-14, 172.20000000000002),23,7,3,no,m,6,m,0.7194813000096474,1,57,test2,4,0.7199271999998018,-38.0
3,njx,f,22,r,1,(-3.163262682197613e-14, -172.20000000000002),27,-25,14,yes,x,5,x,0.5565869999991264,1,58,test2,4,0.5567410999938147,-70.0
3,njx,f,22,r,1,(-121.76378772032348, 121.76378772032349),24,7,3,yes,x,5,x,0.5267100000055507,1,59,test2,4,0.526823099993635,-38.0
3,njx,f,22,r,1,(121.76378772032346, -121.76378772032352),28,3,1,yes,x,5,m,0.7695657000003848,0,60,test2,4,0.7697910999995656,-42.0
3,njx,f,22,r,1,(1.0544208940658713e-14, 172.20000000000002),23,3,1,yes,x,5,m,1.105358899993007,0,61,test2,4,1.1054928000085056,-42.0
3,njx,f,22,r,1,(-172.20000000000002, 2.1088417881317425e-14),25,-25,14,yes,x,5,x,0.6111787999980152,1,62,test2,4,0.6113115000043763,-70.0
3,njx,f,22,r,1,(-121.76378772032352, -121.76378772032348),26,-7,13,yes,x,5,x,0.551156199988327,1,63,test2,4,0.5515560000058031,-52.0
3,njx,f,22,r,1,(1.0544208940658713e-14, 172.20000000000002),23,5,2,no,m,6,m,0.6828952999931062,1,64,test2,4,0.683570499997586,-52.0
