subj_id,subj_name,subj_gender ,subj_age,subj_handedness,subj_runNum,tar_l_x,tar_l_y,loc_code,tar_ori,tar_code,tar_pre ,cor_response,pre_code,subj_response,RT,correct,trial_num,type,bloc_num,dur, real_tar
4,yyq,f,18,r,2,(1.0544208940658713e-14, 172.20000000000002),23,-3,11,no,m,6,x,0.9384655999992901,0,1,test1,1,0.9386975999996139,0.0
4,yyq,f,18,r,2,(1.0544208940658713e-14, 172.20000000000002),23,-25,14,no,m,6,m,0.6628764999995838,1,2,test1,1,0.663039299999582,0.0
4,yyq,f,18,r,2,(-121.76378772032348, 121.76378772032349),24,25,4,yes,x,5,x,0.4895312999997259,1,3,test1,1,0.49044059999960155,-20.0
4,yyq,f,18,r,2,(172.20000000000002, 0.0),21,25,4,yes,x,5,x,0.39247549999981857,1,4,test1,1,0.39257699999961915,-20.0
4,yyq,f,18,r,2,(1.0544208940658713e-14, 172.20000000000002),23,-7,13,yes,x,5,x,0.5027851000004375,1,5,test1,1,0.5028820999996242,-52.0
4,yyq,f,18,r,2,(172.20000000000002, 0.0),21,25,4,yes,x,5,x,0.34319959999993443,1,6,test1,1,0.34331139999994775,-20.0
4,yyq,f,18,r,2,(172.20000000000002, 0.0),21,7,3,yes,x,5,x,0.5408735000000888,1,7,test1,1,0.5410009999995964,-38.0
4,yyq,f,18,r,2,(1.0544208940658713e-14, 172.20000000000002),23,-3,11,yes,x,5,m,0.4160900999995647,0,8,test1,1,0.41625049999947805,-48.0
4,yyq,f,18,r,2,(-121.76378772032348, 121.76378772032349),24,-25,14,yes,x,5,x,0.3669562999994014,1,9,test1,1,0.3671816000005492,-70.0
4,yyq,f,18,r,2,(172.20000000000002, 0.0),21,-7,13,no,m,6,m,0.5189295999998649,1,10,test1,1,0.5191899999999805,-70.0
4,yyq,f,18,r,2,(-121.76378772032348, 121.76378772032349),24,-7,13,no,m,6,m,0.3871111000007659,1,11,test1,1,0.38735820000056265,-70.0
4,yyq,f,18,r,2,(121.76378772032346, -121.76378772032352),28,-5,12,no,m,6,m,0.41065340000022843,1,12,test1,1,0.41088089999993826,-70.0
4,yyq,f,18,r,2,(-172.20000000000002, 2.1088417881317425e-14),25,25,4,yes,x,5,x,0.3325466999995115,1,13,test1,1,0.3326708000004146,-20.0
4,yyq,f,18,r,2,(121.76378772032349, 121.76378772032349),22,3,1,no,m,6,m,0.43276909999985946,1,14,test1,1,0.43323640000016894,-20.0
4,yyq,f,18,r,2,(-121.76378772032352, -121.76378772032348),26,7,3,no,m,6,m,0.40170149999994464,1,15,test1,1,0.40186999999968975,-20.0
4,yyq,f,18,r,2,(1.0544208940658713e-14, 172.20000000000002),23,-25,14,yes,x,5,x,0.3442384999998467,1,16,test1,1,0.34473180000077264,-70.0
4,yyq,f,18,r,2,(-121.76378772032348, 121.76378772032349),24,-25,14,yes,x,5,x,0.4081910000004427,1,17,test1,1,0.4083481000006941,-70.0
4,yyq,f,18,r,2,(121.76378772032349, 121.76378772032349),22,3,1,yes,x,5,m,0.4309665999999197,0,18,test1,1,0.4311967999992703,-42.0
4,yyq,f,18,r,2,(1.0544208940658713e-14, 172.20000000000002),23,-7,13,yes,x,5,x,0.40648200000032375,1,19,test1,1,0.40685799999937444,-52.0
4,yyq,f,18,r,2,(-121.76378772032352, -121.76378772032348),26,25,4,yes,x,5,x,0.35461040000063804,1,20,test1,1,0.35470859999986715,-20.0
4,yyq,f,18,r,2,(1.0544208940658713e-14, 172.20000000000002),23,25,4,yes,x,5,x,0.373226099999556,1,21,test1,1,0.3733228999999483,-20.0
4,yyq,f,18,r,2,(-172.20000000000002, 2.1088417881317425e-14),25,7,3,no,m,6,m,0.5041189000003214,1,22,test1,1,0.5043673999998646,-20.0
4,yyq,f,18,r,2,(121.76378772032349, 121.76378772032349),22,25,4,yes,x,5,x,0.38514949999989767,1,23,test1,1,0.3858251999999993,-20.0
4,yyq,f,18,r,2,(-172.20000000000002, 2.1088417881317425e-14),25,-5,12,yes,x,5,m,0.4341928000003463,0,24,test1,1,0.4342860999995537,-50.0
4,yyq,f,18,r,2,(121.76378772032346, -121.76378772032352),28,3,1,yes,x,5,m,0.40839169999981095,0,25,test1,1,0.4085703000000649,-42.0
4,yyq,f,18,r,2,(-3.163262682197613e-14, -172.20000000000002),27,-3,11,no,m,6,m,0.530720100000508,1,26,test1,1,0.5308537999999317,-42.0
4,yyq,f,18,r,2,(-3.163262682197613e-14, -172.20000000000002),27,-5,12,yes,x,5,x,0.509086699999898,1,27,test1,1,0.5091999000005671,-50.0
4,yyq,f,18,r,2,(-172.20000000000002, 2.1088417881317425e-14),25,5,2,yes,x,5,m,0.41319130000010773,0,28,test1,1,0.41330309999921155,-40.0
4,yyq,f,18,r,2,(121.76378772032346, -121.76378772032352),28,5,2,yes,x,5,m,0.6268540999999459,0,29,test1,1,0.6270768000003955,-40.0
4,yyq,f,18,r,2,(-121.76378772032352, -121.76378772032348),26,-7,13,yes,x,5,x,0.47918430000027,1,30,test1,1,0.4794825999997556,-52.0
4,yyq,f,18,r,2,(172.20000000000002, 0.0),21,-7,13,yes,x,5,x,0.46672789999956876,1,31,test1,1,0.4668267000006381,-52.0
4,yyq,f,18,r,2,(121.76378772032349, 121.76378772032349),22,25,4,yes,x,5,x,0.3824029999996128,1,32,test1,1,0.3825286999999662,-20.0
4,yyq,f,18,r,2,(-172.20000000000002, 2.1088417881317425e-14),25,-5,12,yes,x,5,x,0.36061719999997877,1,33,test1,1,0.361115300000165,-50.0
4,yyq,f,18,r,2,(1.0544208940658713e-14, 172.20000000000002),23,7,3,yes,x,5,x,0.37298610000016197,1,34,test1,1,0.37311399999998685,-38.0
4,yyq,f,18,r,2,(-3.163262682197613e-14, -172.20000000000002),27,-7,13,yes,x,5,x,0.3574812999995629,1,35,test1,1,0.35757980000016687,-52.0
4,yyq,f,18,r,2,(-121.76378772032348, 121.76378772032349),24,-3,11,yes,x,5,m,0.49787709999964136,0,36,test1,1,0.4980995999994775,-48.0
4,yyq,f,18,r,2,(-172.20000000000002, 2.1088417881317425e-14),25,25,4,no,m,6,m,0.49835890000031213,1,37,test1,1,0.49855679999927816,-48.0
4,yyq,f,18,r,2,(-121.76378772032352, -121.76378772032348),26,-3,11,yes,x,5,m,0.418341400000827,0,38,test1,1,0.41863889999967796,-48.0
4,yyq,f,18,r,2,(-172.20000000000002, 2.1088417881317425e-14),25,-3,11,no,m,6,m,0.40737819999958447,1,39,test1,1,0.40774210000017774,-48.0
4,yyq,f,18,r,2,(-172.20000000000002, 2.1088417881317425e-14),25,7,3,yes,x,5,x,0.4218291999995927,1,40,test1,1,0.4220774999994319,-38.0
4,yyq,f,18,r,2,(121.76378772032349, 121.76378772032349),22,7,3,yes,x,5,m,0.5519642999997814,0,41,test1,1,0.5522899999996298,-38.0
4,yyq,f,18,r,2,(-172.20000000000002, 2.1088417881317425e-14),25,3,1,yes,x,5,x,0.4636205999995582,1,42,test1,1,0.4640548999996099,-42.0
4,yyq,f,18,r,2,(1.0544208940658713e-14, 172.20000000000002),23,25,4,no,m,6,x,0.5095572999998694,0,43,test1,1,0.5100040000006629,-42.0
4,yyq,f,18,r,2,(121.76378772032349, 121.76378772032349),22,-3,11,yes,x,5,x,0.5985633999998754,1,44,test1,1,0.5987988000006226,-48.0
4,yyq,f,18,r,2,(172.20000000000002, 0.0),21,25,4,no,m,6,m,0.48188540000046487,1,45,test1,1,0.48211950000040815,-48.0
4,yyq,f,18,r,2,(-172.20000000000002, 2.1088417881317425e-14),25,3,1,no,m,6,x,0.4484388000000763,0,46,test1,1,0.448665500000061,-48.0
4,yyq,f,18,r,2,(121.76378772032346, -121.76378772032352),28,3,1,no,m,6,m,0.5096691000007922,1,47,test1,1,0.509766899999704,-48.0
4,yyq,f,18,r,2,(121.76378772032346, -121.76378772032352),28,5,2,yes,x,5,m,0.4235619000000952,0,48,test1,1,0.42378480000024865,-40.0
4,yyq,f,18,r,2,(-121.76378772032352, -121.76378772032348),26,25,4,no,m,6,m,0.6600100999994538,1,49,test1,1,0.6603079000005891,-40.0
4,yyq,f,18,r,2,(-3.163262682197613e-14, -172.20000000000002),27,5,2,yes,x,5,x,0.42605100000037055,1,50,test1,1,0.4263660999995409,-40.0
4,yyq,f,18,r,2,(-121.76378772032348, 121.76378772032349),24,-5,12,yes,x,5,m,0.5538621999994575,0,51,test1,1,0.5541855999999825,-50.0
4,yyq,f,18,r,2,(-3.163262682197613e-14, -172.20000000000002),27,7,3,yes,x,5,x,0.45642119999956776,1,52,test1,1,0.4565437999999631,-38.0
4,yyq,f,18,r,2,(-3.163262682197613e-14, -172.20000000000002),27,7,3,no,m,6,m,0.44826040000043577,1,53,test1,1,0.44835929999953805,-38.0
4,yyq,f,18,r,2,(-3.163262682197613e-14, -172.20000000000002),27,3,1,no,m,6,m,0.39478979999967123,1,54,test1,1,0.3949912999996741,-38.0
4,yyq,f,18,r,2,(-121.76378772032352, -121.76378772032348),26,-3,11,yes,x,5,m,0.4489006999992853,0,55,test1,1,0.4490324000007604,-48.0
4,yyq,f,18,r,2,(-3.163262682197613e-14, -172.20000000000002),27,25,4,no,m,6,m,0.4220788000002358,1,56,test1,1,0.42231809999975667,-48.0
4,yyq,f,18,r,2,(121.76378772032346, -121.76378772032352),28,7,3,no,m,6,m,0.43183630000021367,1,57,test1,1,0.4320497999997315,-48.0
4,yyq,f,18,r,2,(-121.76378772032348, 121.76378772032349),24,3,1,no,m,6,m,0.41623280000021623,1,58,test1,1,0.4163476999992781,-48.0
4,yyq,f,18,r,2,(121.76378772032349, 121.76378772032349),22,5,2,no,m,6,m,0.3437418000003163,1,59,test1,1,0.3439882000002399,-48.0
4,yyq,f,18,r,2,(172.20000000000002, 0.0),21,7,3,no,m,6,m,0.40734880000036355,1,60,test1,1,0.4075955000007525,-48.0
4,yyq,f,18,r,2,(-121.76378772032348, 121.76378772032349),24,-25,14,no,m,6,m,0.325661100000616,1,61,test1,1,0.3260205999995378,-48.0
4,yyq,f,18,r,2,(-121.76378772032348, 121.76378772032349),24,5,2,yes,x,5,m,0.3359741000003851,0,62,test1,1,0.3365710999996736,-40.0
4,yyq,f,18,r,2,(-121.76378772032348, 121.76378772032349),24,-3,11,yes,x,5,m,0.5456603999991785,0,63,test1,1,0.5458110999998098,-48.0
4,yyq,f,18,r,2,(-172.20000000000002, 2.1088417881317425e-14),25,-25,14,yes,x,5,x,0.36048810000011144,1,64,test1,1,0.3607321999998021,-70.0
4,yyq,f,18,r,2,(-172.20000000000002, 2.1088417881317425e-14),25,-7,13,yes,x,5,x,0.45355209999979706,1,65,test1,1,0.45399170000018785,-52.0
4,yyq,f,18,r,2,(172.20000000000002, 0.0),21,-3,11,yes,x,5,m,0.4484183000004123,0,66,test1,1,0.44855009999992035,-48.0
4,yyq,f,18,r,2,(121.76378772032346, -121.76378772032352),28,25,4,no,m,6,m,0.46583539999937784,1,67,test1,1,0.465976700000283,-48.0
4,yyq,f,18,r,2,(-121.76378772032352, -121.76378772032348),26,25,4,yes,x,5,x,0.42155559999991965,1,68,test1,1,0.4216562999999951,-20.0
4,yyq,f,18,r,2,(121.76378772032346, -121.76378772032352),28,7,3,yes,x,5,x,0.3888007000005018,1,69,test1,1,0.38917919999948936,-38.0
4,yyq,f,18,r,2,(-121.76378772032348, 121.76378772032349),24,7,3,no,m,6,x,0.423447699999997,0,70,test1,1,0.42357409999931406,-38.0
4,yyq,f,18,r,2,(-121.76378772032352, -121.76378772032348),26,-25,14,yes,x,5,x,0.3327086999997846,1,71,test1,1,0.3330746999999974,-70.0
4,yyq,f,18,r,2,(121.76378772032346, -121.76378772032352),28,-3,11,yes,x,5,m,0.43014640000001236,0,72,test1,1,0.4302462000005107,-48.0
4,yyq,f,18,r,2,(-121.76378772032352, -121.76378772032348),26,3,1,no,m,6,x,0.48738309999953344,0,73,test1,1,0.4876017000005959,-48.0
4,yyq,f,18,r,2,(-121.76378772032352, -121.76378772032348),26,5,2,yes,x,5,x,0.36122989999967103,1,74,test1,1,0.3613470000000234,-40.0
4,yyq,f,18,r,2,(-172.20000000000002, 2.1088417881317425e-14),25,3,1,yes,x,5,x,0.3599432999999408,1,75,test1,1,0.36004419999972015,-42.0
4,yyq,f,18,r,2,(121.76378772032349, 121.76378772032349),22,5,2,yes,x,5,x,0.48581520000061573,1,76,test1,1,0.4859143000003314,-40.0
4,yyq,f,18,r,2,(-172.20000000000002, 2.1088417881317425e-14),25,5,2,no,m,6,x,0.35248239999964426,0,77,test1,1,0.35259270000005927,-40.0
4,yyq,f,18,r,2,(121.76378772032346, -121.76378772032352),28,-5,12,yes,x,5,m,0.4855817000006937,0,78,test1,1,0.48568340000019816,-50.0
4,yyq,f,18,r,2,(-121.76378772032352, -121.76378772032348),26,5,2,no,m,6,m,0.5657893999996304,1,79,test1,1,0.5659519000000728,-50.0
4,yyq,f,18,r,2,(172.20000000000002, 0.0),21,5,2,no,m,6,m,0.4826287999994747,1,80,test1,1,0.4827770000001692,-50.0
4,yyq,f,18,r,2,(121.76378772032349, 121.76378772032349),22,-5,12,yes,x,5,x,0.44758419999925536,1,81,test1,1,0.4476820999998381,-50.0
4,yyq,f,18,r,2,(121.76378772032349, 121.76378772032349),22,-25,14,yes,x,5,x,0.3918442000003779,1,82,test1,1,0.3920997000004718,-70.0
4,yyq,f,18,r,2,(172.20000000000002, 0.0),21,-5,12,yes,x,5,x,0.5789463000000978,1,83,test1,1,0.5791653999995106,-50.0
4,yyq,f,18,r,2,(1.0544208940658713e-14, 172.20000000000002),23,7,3,yes,x,5,x,0.39477589999933116,1,84,test1,1,0.3950021000000561,-38.0
4,yyq,f,18,r,2,(172.20000000000002, 0.0),21,-7,13,yes,x,5,x,0.35946580000018,1,85,test1,1,0.3597090000002936,-52.0
4,yyq,f,18,r,2,(-121.76378772032352, -121.76378772032348),26,5,2,yes,x,5,m,0.5667828999994526,0,86,test1,1,0.5670055999999022,-40.0
4,yyq,f,18,r,2,(-121.76378772032348, 121.76378772032349),24,-7,13,yes,x,5,x,0.4366232000002128,1,87,test1,1,0.43690569999944273,-52.0
4,yyq,f,18,r,2,(1.0544208940658713e-14, 172.20000000000002),23,5,2,no,m,6,x,0.5871259000005011,0,88,test1,1,0.5872626999998829,-52.0
4,yyq,f,18,r,2,(-172.20000000000002, 2.1088417881317425e-14),25,5,2,yes,x,5,x,0.36034319999998843,1,89,test1,1,0.3604753999998138,-40.0
4,yyq,f,18,r,2,(-3.163262682197613e-14, -172.20000000000002),27,-7,13,no,m,6,x,0.4083144000005632,0,90,test1,1,0.40875210000012885,-40.0
4,yyq,f,18,r,2,(-3.163262682197613e-14, -172.20000000000002),27,5,2,yes,x,5,x,0.40074640000057116,1,91,test1,1,0.40098110000053566,-40.0
4,yyq,f,18,r,2,(-3.163262682197613e-14, -172.20000000000002),27,5,2,no,m,6,m,0.453971900000397,1,92,test1,1,0.45409729999937554,-40.0
4,yyq,f,18,r,2,(172.20000000000002, 0.0),21,5,2,yes,x,5,x,0.5106699999996636,1,93,test1,1,0.5109148000001369,-40.0
4,yyq,f,18,r,2,(-172.20000000000002, 2.1088417881317425e-14),25,-25,14,yes,x,5,x,0.32904380000036326,1,94,test1,1,0.32916930000010325,-70.0
4,yyq,f,18,r,2,(-172.20000000000002, 2.1088417881317425e-14),25,-7,13,no,m,6,m,0.48540739999953075,1,95,test1,1,0.48556319999988773,-70.0
4,yyq,f,18,r,2,(121.76378772032346, -121.76378772032352),28,5,2,no,m,6,m,0.4967160000005606,1,96,test1,1,0.4973792000000685,-70.0
4,yyq,f,18,r,2,(1.0544208940658713e-14, 172.20000000000002),23,25,4,yes,x,5,x,0.463101800000004,1,1,test2,1,0.46356070000001637,-20.0
4,yyq,f,18,r,2,(-121.76378772032352, -121.76378772032348),26,-5,12,yes,x,5,m,0.4158911000004082,0,2,test2,1,0.41603050000048825,-50.0
4,yyq,f,18,r,2,(172.20000000000002, 0.0),21,7,3,yes,x,5,x,0.43690849999984493,1,3,test2,1,0.4371174999996583,-38.0
4,yyq,f,18,r,2,(-3.163262682197613e-14, -172.20000000000002),27,3,1,yes,x,5,x,0.4484397000005629,1,4,test2,1,0.4485557999996672,-42.0
4,yyq,f,18,r,2,(-3.163262682197613e-14, -172.20000000000002),27,-3,11,yes,x,5,x,0.41393650000009075,1,5,test2,1,0.4141767000000982,-48.0
4,yyq,f,18,r,2,(121.76378772032349, 121.76378772032349),22,-5,12,no,m,6,m,0.5345274000001154,1,6,test2,1,0.5347064999996292,-48.0
4,yyq,f,18,r,2,(121.76378772032346, -121.76378772032352),28,-7,13,no,m,6,m,0.53978509999979,1,7,test2,1,0.5401214000003165,-48.0
4,yyq,f,18,r,2,(121.76378772032349, 121.76378772032349),22,5,2,yes,x,5,x,0.42590950000067096,1,8,test2,1,0.42603200000030483,-40.0
4,yyq,f,18,r,2,(121.76378772032346, -121.76378772032352),28,-3,11,no,m,6,m,0.48447459999988496,1,9,test2,1,0.4846322000003056,-40.0
4,yyq,f,18,r,2,(172.20000000000002, 0.0),21,-25,14,yes,x,5,x,0.282646399999976,1,10,test2,1,0.28306510000038543,-70.0
4,yyq,f,18,r,2,(-3.163262682197613e-14, -172.20000000000002),27,7,3,yes,x,5,x,0.36097849999987375,1,11,test2,1,0.36107540000011795,-38.0
4,yyq,f,18,r,2,(-172.20000000000002, 2.1088417881317425e-14),25,-5,12,no,m,6,x,0.3378178000002663,0,12,test2,1,0.3381246999997529,-38.0
4,yyq,f,18,r,2,(172.20000000000002, 0.0),21,-3,11,no,m,6,x,0.36794300000019575,0,13,test2,1,0.36816240000007383,-38.0
4,yyq,f,18,r,2,(-121.76378772032352, -121.76378772032348),26,-3,11,no,m,6,m,0.43023119999998016,1,14,test2,1,0.43039480000061303,-38.0
4,yyq,f,18,r,2,(-121.76378772032352, -121.76378772032348),26,3,1,yes,x,5,m,0.5208648999996512,0,15,test2,1,0.520985500000279,-42.0
4,yyq,f,18,r,2,(-172.20000000000002, 2.1088417881317425e-14),25,-3,11,yes,x,5,m,0.5196921999995538,0,16,test2,1,0.5199234000001525,-48.0
4,yyq,f,18,r,2,(121.76378772032346, -121.76378772032352),28,-7,13,yes,x,5,x,0.4581797999999253,1,17,test2,1,0.45830690000002505,-52.0
4,yyq,f,18,r,2,(-121.76378772032352, -121.76378772032348),26,-7,13,yes,x,5,x,0.46326049999970564,1,18,test2,1,0.46360039999945,-52.0
4,yyq,f,18,r,2,(-172.20000000000002, 2.1088417881317425e-14),25,-7,13,yes,x,5,x,0.34540259999994305,1,19,test2,1,0.34557829999994283,-52.0
4,yyq,f,18,r,2,(121.76378772032349, 121.76378772032349),22,-7,13,yes,x,5,x,0.5808157999999821,1,20,test2,1,0.5809137000005649,-52.0
4,yyq,f,18,r,2,(172.20000000000002, 0.0),21,5,2,yes,x,5,x,0.5228987999998935,1,21,test2,1,0.5230456999997841,-40.0
4,yyq,f,18,r,2,(-3.163262682197613e-14, -172.20000000000002),27,-3,11,yes,x,5,x,0.5059751999997388,1,22,test2,1,0.5060932999995202,-48.0
4,yyq,f,18,r,2,(121.76378772032346, -121.76378772032352),28,3,1,yes,x,5,x,0.7411704000005557,1,23,test2,1,0.7412739000001238,-42.0
4,yyq,f,18,r,2,(121.76378772032349, 121.76378772032349),22,7,3,no,m,6,x,0.5274036999999225,0,24,test2,1,0.5276903000003585,-42.0
4,yyq,f,18,r,2,(-121.76378772032352, -121.76378772032348),26,7,3,yes,x,5,x,0.48637650000000576,1,25,test2,1,0.4866754000004221,-38.0
4,yyq,f,18,r,2,(-3.163262682197613e-14, -172.20000000000002),27,-5,12,yes,x,5,x,0.4578994000003149,1,26,test2,1,0.4585064999992028,-50.0
4,yyq,f,18,r,2,(-121.76378772032352, -121.76378772032348),26,7,3,yes,x,5,x,0.33297220000076777,1,27,test2,1,0.33319849999952567,-38.0
4,yyq,f,18,r,2,(172.20000000000002, 0.0),21,-3,11,yes,x,5,x,0.5841959999997925,1,28,test2,1,0.5843088999999964,-48.0
4,yyq,f,18,r,2,(-3.163262682197613e-14, -172.20000000000002),27,25,4,yes,x,5,x,0.3459796999995888,1,29,test2,1,0.3462037999997847,-20.0
4,yyq,f,18,r,2,(172.20000000000002, 0.0),21,-5,12,no,m,6,x,0.3815817999993669,0,30,test2,1,0.38208400000075926,-20.0
4,yyq,f,18,r,2,(-121.76378772032352, -121.76378772032348),26,-25,14,yes,x,5,x,0.358337699999538,1,31,test2,1,0.35855309999988094,-70.0
4,yyq,f,18,r,2,(-172.20000000000002, 2.1088417881317425e-14),25,25,4,yes,x,5,x,0.3257234000002427,1,32,test2,1,0.326248399999713,-20.0
4,yyq,f,18,r,2,(121.76378772032349, 121.76378772032349),22,-3,11,no,m,6,m,0.6087772000000768,1,33,test2,1,0.6088958000000275,-20.0
4,yyq,f,18,r,2,(121.76378772032349, 121.76378772032349),22,-7,13,no,m,6,x,0.31128389999958017,0,34,test2,1,0.3114073999995526,-20.0
4,yyq,f,18,r,2,(-172.20000000000002, 2.1088417881317425e-14),25,-3,11,yes,x,5,m,0.7363389000001916,0,35,test2,1,0.7364348999999493,-48.0
4,yyq,f,18,r,2,(1.0544208940658713e-14, 172.20000000000002),23,-3,11,yes,x,5,x,0.5996748999996271,1,36,test2,1,0.5997717999998713,-48.0
4,yyq,f,18,r,2,(121.76378772032349, 121.76378772032349),22,25,4,no,m,6,m,0.5696152999998958,1,37,test2,1,0.569778199999746,-48.0
4,yyq,f,18,r,2,(-3.163262682197613e-14, -172.20000000000002),27,-7,13,yes,x,5,x,0.4468888000001243,1,38,test2,1,0.44724870000027295,-52.0
4,yyq,f,18,r,2,(-121.76378772032348, 121.76378772032349),24,3,1,yes,x,5,m,0.5151153999995586,0,39,test2,1,0.5153585999996722,-42.0
4,yyq,f,18,r,2,(1.0544208940658713e-14, 172.20000000000002),23,3,1,yes,x,5,x,0.5728490999999849,1,40,test2,1,0.5734529999999722,-42.0
4,yyq,f,18,r,2,(-121.76378772032348, 121.76378772032349),24,-5,12,yes,x,5,x,0.48408699999981764,1,41,test2,1,0.48420770000029734,-50.0
4,yyq,f,18,r,2,(121.76378772032346, -121.76378772032352),28,-25,14,yes,x,5,x,0.4183966999999029,1,42,test2,1,0.4187424000001556,-70.0
4,yyq,f,18,r,2,(-121.76378772032348, 121.76378772032349),24,-3,11,no,m,6,x,0.5665369000007558,0,43,test2,1,0.5672237999997378,-70.0
4,yyq,f,18,r,2,(121.76378772032346, -121.76378772032352),28,7,3,yes,x,5,x,0.46031630000015866,1,44,test2,1,0.46044720000008965,-38.0
4,yyq,f,18,r,2,(121.76378772032346, -121.76378772032352),28,-3,11,yes,x,5,x,0.5271293999994668,1,45,test2,1,0.5272251000005781,-48.0
4,yyq,f,18,r,2,(121.76378772032346, -121.76378772032352),28,-25,14,no,m,6,x,0.5427680999991935,0,46,test2,1,0.5430710000000545,-48.0
4,yyq,f,18,r,2,(172.20000000000002, 0.0),21,-25,14,yes,x,5,x,0.38422110000010434,1,47,test2,1,0.3844004999991739,-70.0
4,yyq,f,18,r,2,(-121.76378772032352, -121.76378772032348),26,-5,12,no,m,6,x,0.5494865000000573,0,48,test2,1,0.5495835000001534,-70.0
4,yyq,f,18,r,2,(121.76378772032346, -121.76378772032352),28,-5,12,yes,x,5,x,0.3639929000000848,1,49,test2,1,0.3641584999995757,-50.0
4,yyq,f,18,r,2,(-3.163262682197613e-14, -172.20000000000002),27,-25,14,yes,x,5,x,0.32277069999963715,1,50,test2,1,0.32288340000013704,-70.0
4,yyq,f,18,r,2,(-121.76378772032348, 121.76378772032349),24,7,3,yes,x,5,x,0.40329769999971177,1,51,test2,1,0.4036788000003071,-38.0
4,yyq,f,18,r,2,(-121.76378772032352, -121.76378772032348),26,-7,13,no,m,6,m,0.5625326999997924,1,52,test2,1,0.562655800000357,-38.0
4,yyq,f,18,r,2,(172.20000000000002, 0.0),21,3,1,yes,x,5,x,0.5789058000000296,1,53,test2,1,0.5790029000008872,-42.0
4,yyq,f,18,r,2,(-121.76378772032348, 121.76378772032349),24,-7,13,yes,x,5,x,0.43032399999992776,1,54,test2,1,0.4306157000000894,-52.0
4,yyq,f,18,r,2,(1.0544208940658713e-14, 172.20000000000002),23,5,2,yes,x,5,x,0.46117319999939355,1,55,test2,1,0.46130640000046697,-40.0
4,yyq,f,18,r,2,(172.20000000000002, 0.0),21,-5,12,yes,x,5,x,0.5230827000004865,1,56,test2,1,0.5232533999997031,-50.0
4,yyq,f,18,r,2,(1.0544208940658713e-14, 172.20000000000002),23,-25,14,yes,x,5,x,0.35192000000006374,1,57,test2,1,0.3523805999993783,-70.0
4,yyq,f,18,r,2,(121.76378772032349, 121.76378772032349),22,-7,13,yes,x,5,x,0.38723859999936394,1,58,test2,1,0.3873993999995946,-52.0
4,yyq,f,18,r,2,(121.76378772032349, 121.76378772032349),22,-25,14,yes,x,5,x,0.31895630000053643,1,59,test2,1,0.31932120000055875,-70.0
4,yyq,f,18,r,2,(-121.76378772032348, 121.76378772032349),24,5,2,no,m,6,m,0.5401351999998951,1,60,test2,1,0.5402549000000363,-70.0
4,yyq,f,18,r,2,(121.76378772032349, 121.76378772032349),22,-5,12,yes,x,5,x,0.41946699999971315,1,61,test2,1,0.4200204999997368,-50.0
4,yyq,f,18,r,2,(1.0544208940658713e-14, 172.20000000000002),23,3,1,no,m,6,m,0.5707056000001103,1,62,test2,1,0.5708512000001065,-50.0
4,yyq,f,18,r,2,(-121.76378772032348, 121.76378772032349),24,3,1,yes,x,5,x,0.4405851999999868,1,63,test2,1,0.44070840000040334,-42.0
4,yyq,f,18,r,2,(-3.163262682197613e-14, -172.20000000000002),27,-25,14,yes,x,5,x,0.38704219999999623,1,64,test2,1,0.38726820000010775,-70.0
4,yyq,f,18,r,2,(121.76378772032349, 121.76378772032349),22,3,1,yes,x,5,m,0.500873999999385,0,65,test2,1,0.5009721000005811,-42.0
4,yyq,f,18,r,2,(-121.76378772032348, 121.76378772032349),24,25,4,no,m,6,m,0.4947856999997384,1,66,test2,1,0.4949090000000069,-42.0
4,yyq,f,18,r,2,(121.76378772032349, 121.76378772032349),22,-3,11,yes,x,5,x,0.5087675999993735,1,67,test2,1,0.5088654999999562,-48.0
4,yyq,f,18,r,2,(172.20000000000002, 0.0),21,3,1,yes,x,5,m,0.5440202999998291,0,68,test2,1,0.5441399999999703,-42.0
4,yyq,f,18,r,2,(1.0544208940658713e-14, 172.20000000000002),23,-5,12,no,m,6,m,0.5696501999991597,1,69,test2,1,0.5703467000003002,-42.0
4,yyq,f,18,r,2,(-3.163262682197613e-14, -172.20000000000002),27,3,1,yes,x,5,x,0.6164319999998042,1,70,test2,1,0.6166346999998495,-42.0
4,yyq,f,18,r,2,(121.76378772032346, -121.76378772032352),28,25,4,yes,x,5,x,0.4083925000004456,1,71,test2,1,0.40862400000060006,-20.0
4,yyq,f,18,r,2,(-3.163262682197613e-14, -172.20000000000002),27,-25,14,no,m,6,m,0.5425721000001431,1,72,test2,1,0.5428537000007054,-20.0
4,yyq,f,18,r,2,(121.76378772032349, 121.76378772032349),22,7,3,yes,x,5,x,0.680204600000252,1,73,test2,1,0.6802994999998191,-38.0
4,yyq,f,18,r,2,(-121.76378772032352, -121.76378772032348),26,3,1,yes,x,5,x,0.4980225999997856,1,74,test2,1,0.498181800000566,-42.0
4,yyq,f,18,r,2,(-3.163262682197613e-14, -172.20000000000002),27,25,4,yes,x,5,x,0.5064420000007885,1,75,test2,1,0.5068050999998377,-20.0
4,yyq,f,18,r,2,(121.76378772032346, -121.76378772032352),28,-7,13,yes,x,5,x,0.5789668999996138,1,76,test2,1,0.5793868999999177,-52.0
4,yyq,f,18,r,2,(-121.76378772032348, 121.76378772032349),24,7,3,yes,x,5,x,0.4392770999993445,1,77,test2,1,0.4395032000002175,-38.0
4,yyq,f,18,r,2,(-121.76378772032348, 121.76378772032349),24,25,4,yes,x,5,x,0.3842865000005986,1,78,test2,1,0.38457070000004023,-20.0
4,yyq,f,18,r,2,(-121.76378772032352, -121.76378772032348),26,-5,12,yes,x,5,m,0.5553780000000188,0,79,test2,1,0.5554798999992272,-50.0
4,yyq,f,18,r,2,(1.0544208940658713e-14, 172.20000000000002),23,7,3,no,m,6,x,0.6057155999997121,0,80,test2,1,0.6059390000000349,-50.0
4,yyq,f,18,r,2,(1.0544208940658713e-14, 172.20000000000002),23,-7,13,no,m,6,m,0.6740089000004446,1,81,test2,1,0.6742605999997977,-50.0
4,yyq,f,18,r,2,(121.76378772032349, 121.76378772032349),22,-25,14,no,m,6,m,0.6184427999996842,1,82,test2,1,0.6185654000000795,-50.0
4,yyq,f,18,r,2,(1.0544208940658713e-14, 172.20000000000002),23,-5,12,yes,x,5,x,0.7358830000002854,1,83,test2,1,0.7360694000008152,-50.0
4,yyq,f,18,r,2,(121.76378772032346, -121.76378772032352),28,25,4,yes,x,5,x,0.4574978000000556,1,84,test2,1,0.4575970000005327,-20.0
4,yyq,f,18,r,2,(-172.20000000000002, 2.1088417881317425e-14),25,-25,14,no,m,6,m,0.5506963999996515,1,85,test2,1,0.5508498999997755,-20.0
4,yyq,f,18,r,2,(1.0544208940658713e-14, 172.20000000000002),23,3,1,yes,x,5,x,0.48135909999928117,1,86,test2,1,0.48147119999975985,-42.0
4,yyq,f,18,r,2,(-3.163262682197613e-14, -172.20000000000002),27,-5,12,no,m,6,x,0.5140530999997281,0,87,test2,1,0.5141527999994651,-42.0
4,yyq,f,18,r,2,(-121.76378772032348, 121.76378772032349),24,5,2,yes,x,5,x,0.4736159999993106,1,88,test2,1,0.4739785000001575,-40.0
4,yyq,f,18,r,2,(1.0544208940658713e-14, 172.20000000000002),23,-5,12,yes,x,5,x,0.5115347999999358,1,89,test2,1,0.5119266000001517,-50.0
4,yyq,f,18,r,2,(121.76378772032346, -121.76378772032352),28,-25,14,yes,x,5,x,0.4509782000004634,1,90,test2,1,0.4513618000000861,-70.0
4,yyq,f,18,r,2,(172.20000000000002, 0.0),21,3,1,no,m,6,m,0.56052069999987,1,91,test2,1,0.5611269000000902,-70.0
4,yyq,f,18,r,2,(172.20000000000002, 0.0),21,-25,14,no,m,6,m,0.6986109999998007,1,92,test2,1,0.698713100000532,-70.0
4,yyq,f,18,r,2,(1.0544208940658713e-14, 172.20000000000002),23,5,2,yes,x,5,x,0.48286519999965094,1,93,test2,1,0.48301310000078956,-40.0
4,yyq,f,18,r,2,(-121.76378772032348, 121.76378772032349),24,-5,12,no,m,6,x,0.7582001000000673,0,94,test2,1,0.7584452999999485,-40.0
4,yyq,f,18,r,2,(-172.20000000000002, 2.1088417881317425e-14),25,7,3,yes,x,5,x,0.4247449000004053,1,95,test2,1,0.42502129999957106,-38.0
4,yyq,f,18,r,2,(-121.76378772032352, -121.76378772032348),26,-25,14,no,m,6,x,0.8280963999995947,0,96,test2,1,0.8282252999997581,-38.0
4,yyq,f,18,r,2,(1.0544208940658713e-14, 172.20000000000002),23,-3,11,no,m,6,m,0.5080155000005107,1,1,test1,2,0.5081750999997894,-38.0
4,yyq,f,18,r,2,(1.0544208940658713e-14, 172.20000000000002),23,-25,14,no,m,6,m,0.6452398999999787,1,2,test1,2,0.6454033999998501,-38.0
4,yyq,f,18,r,2,(-121.76378772032348, 121.76378772032349),24,25,4,yes,x,5,x,0.36015950000000885,1,3,test1,2,0.3602810000002137,-20.0
4,yyq,f,18,r,2,(172.20000000000002, 0.0),21,25,4,yes,x,5,x,0.3454162999996697,1,4,test1,2,0.3455171999994491,-20.0
4,yyq,f,18,r,2,(1.0544208940658713e-14, 172.20000000000002),23,-7,13,yes,x,5,x,0.4076716999998098,1,5,test1,2,0.40776870000081544,-52.0
4,yyq,f,18,r,2,(172.20000000000002, 0.0),21,25,4,yes,x,5,x,0.3540410999994492,1,6,test1,2,0.3545040999997582,-20.0
4,yyq,f,18,r,2,(172.20000000000002, 0.0),21,7,3,yes,x,5,x,0.3745657999998002,1,7,test1,2,0.37469119999968825,-38.0
4,yyq,f,18,r,2,(1.0544208940658713e-14, 172.20000000000002),23,-3,11,yes,x,5,x,0.4845519000000422,1,8,test1,2,0.4847772000002806,-48.0
4,yyq,f,18,r,2,(-121.76378772032348, 121.76378772032349),24,-25,14,yes,x,5,x,0.3702690000000075,1,9,test1,2,0.3703806000003169,-70.0
4,yyq,f,18,r,2,(172.20000000000002, 0.0),21,-7,13,no,m,6,m,0.6740874999995867,1,10,test1,2,0.6747165000006135,-70.0
4,yyq,f,18,r,2,(-121.76378772032348, 121.76378772032349),24,-7,13,no,m,6,m,0.5189311000003727,1,11,test1,2,0.5191298999998253,-70.0
4,yyq,f,18,r,2,(121.76378772032346, -121.76378772032352),28,-5,12,no,m,6,m,0.5795331000008446,1,12,test1,2,0.5796708000007129,-70.0
4,yyq,f,18,r,2,(-172.20000000000002, 2.1088417881317425e-14),25,25,4,yes,x,5,x,0.37293789999966975,1,13,test1,2,0.3731334000003699,-20.0
4,yyq,f,18,r,2,(121.76378772032349, 121.76378772032349),22,3,1,no,m,6,m,0.49483189999955357,1,14,test1,2,0.49500239999997575,-20.0
4,yyq,f,18,r,2,(-121.76378772032352, -121.76378772032348),26,7,3,no,m,6,m,0.4950360000002547,1,15,test1,2,0.4954944000000978,-20.0
4,yyq,f,18,r,2,(1.0544208940658713e-14, 172.20000000000002),23,-25,14,yes,x,5,x,0.41503300000022136,1,16,test1,2,0.41525279999950726,-70.0
4,yyq,f,18,r,2,(-121.76378772032348, 121.76378772032349),24,-25,14,yes,x,5,x,0.39982190000046103,1,17,test1,2,0.3999383000000307,-70.0
4,yyq,f,18,r,2,(121.76378772032349, 121.76378772032349),22,3,1,yes,x,5,m,0.49501670000063314,0,18,test1,2,0.4953992000000653,-42.0
4,yyq,f,18,r,2,(1.0544208940658713e-14, 172.20000000000002),23,-7,13,yes,x,5,x,0.4822751000001517,1,19,test1,2,0.48292180000044027,-52.0
4,yyq,f,18,r,2,(-121.76378772032352, -121.76378772032348),26,25,4,yes,x,5,x,0.3597073000000819,1,20,test1,2,0.3598312000003716,-20.0
4,yyq,f,18,r,2,(1.0544208940658713e-14, 172.20000000000002),23,25,4,yes,x,5,x,0.3913970999992671,1,21,test1,2,0.39156049999928655,-20.0
4,yyq,f,18,r,2,(-172.20000000000002, 2.1088417881317425e-14),25,7,3,no,m,6,m,0.7956432000000859,1,22,test1,2,0.7958509999998569,-20.0
4,yyq,f,18,r,2,(121.76378772032349, 121.76378772032349),22,25,4,yes,x,5,x,0.47128329999941343,1,23,test1,2,0.47138150000046153,-20.0
4,yyq,f,18,r,2,(-172.20000000000002, 2.1088417881317425e-14),25,-5,12,yes,x,5,x,0.7361302999997861,1,24,test1,2,0.7362255999996705,-50.0
4,yyq,f,18,r,2,(121.76378772032346, -121.76378772032352),28,3,1,yes,x,5,x,0.635044900000139,1,25,test1,2,0.6352779999997438,-42.0
4,yyq,f,18,r,2,(-3.163262682197613e-14, -172.20000000000002),27,-3,11,no,m,6,m,0.7082196999999724,1,26,test1,2,0.7084445000000414,-42.0
4,yyq,f,18,r,2,(-3.163262682197613e-14, -172.20000000000002),27,-5,12,yes,x,5,x,0.5737010000002556,1,27,test1,2,0.5738466000002518,-50.0
4,yyq,f,18,r,2,(-172.20000000000002, 2.1088417881317425e-14),25,5,2,yes,x,5,x,0.5762274999997317,1,28,test1,2,0.576524099999915,-40.0
4,yyq,f,18,r,2,(121.76378772032346, -121.76378772032352),28,5,2,yes,x,5,x,0.5008575000001656,1,29,test1,2,0.5011576000006244,-40.0
4,yyq,f,18,r,2,(-121.76378772032352, -121.76378772032348),26,-7,13,yes,x,5,x,0.45295399999940855,1,30,test1,2,0.4532272999995257,-52.0
4,yyq,f,18,r,2,(172.20000000000002, 0.0),21,-7,13,yes,x,5,x,0.43521080000027723,1,31,test1,2,0.4353160000000571,-52.0
4,yyq,f,18,r,2,(121.76378772032349, 121.76378772032349),22,25,4,yes,x,5,x,0.48450839999986783,1,32,test1,2,0.4846052000002601,-20.0
4,yyq,f,18,r,2,(-172.20000000000002, 2.1088417881317425e-14),25,-5,12,yes,x,5,x,0.5442332000002352,1,33,test1,2,0.5445303999995303,-50.0
4,yyq,f,18,r,2,(1.0544208940658713e-14, 172.20000000000002),23,7,3,yes,x,5,x,0.5096118999999817,1,34,test1,2,0.5098424000007071,-38.0
4,yyq,f,18,r,2,(-3.163262682197613e-14, -172.20000000000002),27,-7,13,yes,x,5,x,0.4251172000003862,1,35,test1,2,0.42535420000058366,-52.0
4,yyq,f,18,r,2,(-121.76378772032348, 121.76378772032349),24,-3,11,yes,x,5,m,0.5898077000001649,0,36,test1,2,0.5902610999992248,-48.0
4,yyq,f,18,r,2,(-172.20000000000002, 2.1088417881317425e-14),25,25,4,no,m,6,m,0.8386926000002859,1,37,test1,2,0.8388177000006181,-48.0
4,yyq,f,18,r,2,(-121.76378772032352, -121.76378772032348),26,-3,11,yes,x,5,m,0.7341541000005236,0,38,test1,2,0.734279900000729,-48.0
4,yyq,f,18,r,2,(-172.20000000000002, 2.1088417881317425e-14),25,-3,11,no,m,6,m,1.0799909000006664,1,39,test1,2,1.080124799999794,-48.0
4,yyq,f,18,r,2,(-172.20000000000002, 2.1088417881317425e-14),25,7,3,yes,x,5,x,0.5064424000001964,1,40,test1,2,0.5065612999997029,-38.0
4,yyq,f,18,r,2,(121.76378772032349, 121.76378772032349),22,7,3,yes,x,5,x,0.5293706999991628,1,41,test1,2,0.5294682999992801,-38.0
4,yyq,f,18,r,2,(-172.20000000000002, 2.1088417881317425e-14),25,3,1,yes,x,5,x,0.7340472999994745,1,42,test1,2,0.734212800000023,-42.0
4,yyq,f,18,r,2,(1.0544208940658713e-14, 172.20000000000002),23,25,4,no,m,6,m,0.8388598999999886,1,43,test1,2,0.8389753000001292,-42.0
4,yyq,f,18,r,2,(121.76378772032349, 121.76378772032349),22,-3,11,yes,x,5,m,0.8685475000002043,0,44,test1,2,0.8688477999994575,-48.0
4,yyq,f,18,r,2,(172.20000000000002, 0.0),21,25,4,no,m,6,m,0.8824702000001707,1,45,test1,2,0.8825668999998015,-48.0
4,yyq,f,18,r,2,(-172.20000000000002, 2.1088417881317425e-14),25,3,1,no,m,6,m,1.0257911999997305,1,46,test1,2,1.0259132000001046,-48.0
4,yyq,f,18,r,2,(121.76378772032346, -121.76378772032352),28,3,1,no,m,6,m,0.580417000000125,1,47,test1,2,0.580583600000864,-48.0
4,yyq,f,18,r,2,(121.76378772032346, -121.76378772032352),28,5,2,yes,x,5,x,0.6194797000007384,1,48,test1,2,0.6199697000001834,-40.0
4,yyq,f,18,r,2,(-121.76378772032352, -121.76378772032348),26,25,4,no,m,6,m,0.6073940000005678,1,49,test1,2,0.6075453000003108,-40.0
4,yyq,f,18,r,2,(-3.163262682197613e-14, -172.20000000000002),27,5,2,yes,x,5,x,0.6082160000005388,1,50,test1,2,0.608319300000403,-40.0
4,yyq,f,18,r,2,(-121.76378772032348, 121.76378772032349),24,-5,12,yes,x,5,m,0.8440027000006012,0,51,test1,2,0.844580599999972,-50.0
4,yyq,f,18,r,2,(-3.163262682197613e-14, -172.20000000000002),27,7,3,yes,x,5,x,0.8873208000004524,1,52,test1,2,0.8874376000003394,-38.0
4,yyq,f,18,r,2,(-3.163262682197613e-14, -172.20000000000002),27,7,3,no,m,6,m,0.7995662000002994,1,53,test1,2,0.7997356999994736,-38.0
4,yyq,f,18,r,2,(-3.163262682197613e-14, -172.20000000000002),27,3,1,no,m,6,m,0.7154522999999244,1,54,test1,2,0.7157121000000188,-38.0
4,yyq,f,18,r,2,(-121.76378772032352, -121.76378772032348),26,-3,11,yes,x,5,x,0.7465124000000287,1,55,test1,2,0.7466176000007181,-48.0
4,yyq,f,18,r,2,(-3.163262682197613e-14, -172.20000000000002),27,25,4,no,m,6,m,0.6701849999999467,1,56,test1,2,0.6704177999999956,-48.0
4,yyq,f,18,r,2,(121.76378772032346, -121.76378772032352),28,7,3,no,m,6,m,0.7243856000004598,1,57,test1,2,0.7245447000004788,-48.0
4,yyq,f,18,r,2,(-121.76378772032348, 121.76378772032349),24,3,1,no,m,6,m,0.6966756000001624,1,58,test1,2,0.6968027999992046,-48.0
4,yyq,f,18,r,2,(121.76378772032349, 121.76378772032349),22,5,2,no,m,6,m,0.7268506999998863,1,59,test1,2,0.7270566999995935,-48.0
4,yyq,f,18,r,2,(172.20000000000002, 0.0),21,7,3,no,m,6,m,0.6562666999998328,1,60,test1,2,0.6564191999996183,-48.0
4,yyq,f,18,r,2,(-121.76378772032348, 121.76378772032349),24,-25,14,no,m,6,x,0.5722964000005959,0,61,test1,2,0.5724717000002784,-48.0
4,yyq,f,18,r,2,(-121.76378772032348, 121.76378772032349),24,5,2,yes,x,5,x,0.5604759999996531,1,62,test1,2,0.5606588000000556,-40.0
4,yyq,f,18,r,2,(-121.76378772032348, 121.76378772032349),24,-3,11,yes,x,5,m,0.6711290000002919,0,63,test1,2,0.6716293999998015,-48.0
4,yyq,f,18,r,2,(-172.20000000000002, 2.1088417881317425e-14),25,-25,14,yes,x,5,x,0.43652430000020104,1,64,test1,2,0.4366851000004317,-70.0
4,yyq,f,18,r,2,(-172.20000000000002, 2.1088417881317425e-14),25,-7,13,yes,x,5,x,0.5913026000007449,1,65,test1,2,0.5914230999997017,-52.0
4,yyq,f,18,r,2,(172.20000000000002, 0.0),21,-3,11,yes,x,5,x,0.5407315999991624,1,66,test1,2,0.5408324999998513,-48.0
4,yyq,f,18,r,2,(121.76378772032346, -121.76378772032352),28,25,4,no,m,6,x,0.5774921000001996,0,67,test1,2,0.5777239999997619,-48.0
4,yyq,f,18,r,2,(-121.76378772032352, -121.76378772032348),26,25,4,yes,x,5,x,0.43751760000031936,1,68,test1,2,0.43766429999959655,-20.0
4,yyq,f,18,r,2,(121.76378772032346, -121.76378772032352),28,7,3,yes,x,5,x,0.6162752000000182,1,69,test1,2,0.6163774999995439,-38.0
4,yyq,f,18,r,2,(-121.76378772032348, 121.76378772032349),24,7,3,no,m,6,m,0.6619578999998339,1,70,test1,2,0.6621278999991773,-38.0
4,yyq,f,18,r,2,(-121.76378772032352, -121.76378772032348),26,-25,14,yes,x,5,x,0.45833029999994324,1,71,test1,2,0.45847909999974945,-70.0
4,yyq,f,18,r,2,(121.76378772032346, -121.76378772032352),28,-3,11,yes,x,5,x,0.5865514999995867,1,72,test1,2,0.5868742000002385,-48.0
4,yyq,f,18,r,2,(-121.76378772032352, -121.76378772032348),26,3,1,no,m,6,m,0.5666904999998224,1,73,test1,2,0.5669957000000068,-48.0
4,yyq,f,18,r,2,(-121.76378772032352, -121.76378772032348),26,5,2,yes,x,5,x,0.4753425999997489,1,74,test1,2,0.47564319999946747,-40.0
4,yyq,f,18,r,2,(-172.20000000000002, 2.1088417881317425e-14),25,3,1,yes,x,5,m,0.7703140000003259,0,75,test1,2,0.770443499999601,-42.0
4,yyq,f,18,r,2,(121.76378772032349, 121.76378772032349),22,5,2,yes,x,5,x,0.9192753999996057,1,76,test1,2,0.9196441999993112,-40.0
4,yyq,f,18,r,2,(-172.20000000000002, 2.1088417881317425e-14),25,5,2,no,m,6,m,0.5527185999999347,1,77,test1,2,0.5528786000004402,-40.0
4,yyq,f,18,r,2,(121.76378772032346, -121.76378772032352),28,-5,12,yes,x,5,m,0.5790335000001505,0,78,test1,2,0.5791296999996121,-50.0
4,yyq,f,18,r,2,(-121.76378772032352, -121.76378772032348),26,5,2,no,m,6,m,0.6955868000004557,1,79,test1,2,0.6957249000006414,-50.0
4,yyq,f,18,r,2,(172.20000000000002, 0.0),21,5,2,no,m,6,m,0.5585160000000542,1,80,test1,2,0.5586487000000488,-50.0
4,yyq,f,18,r,2,(121.76378772032349, 121.76378772032349),22,-5,12,yes,x,5,x,0.5489345000005414,1,81,test1,2,0.5490347000004476,-50.0
4,yyq,f,18,r,2,(121.76378772032349, 121.76378772032349),22,-25,14,yes,x,5,x,0.4733977000005325,1,82,test1,2,0.4736237999995865,-70.0
4,yyq,f,18,r,2,(172.20000000000002, 0.0),21,-5,12,yes,x,5,x,0.48461520000000746,1,83,test1,2,0.4848658000000796,-50.0
4,yyq,f,18,r,2,(1.0544208940658713e-14, 172.20000000000002),23,7,3,yes,x,5,x,0.43687769999996817,1,84,test1,2,0.4369794999993246,-38.0
4,yyq,f,18,r,2,(172.20000000000002, 0.0),21,-7,13,yes,x,5,x,0.6106085999999777,1,85,test1,2,0.610862300000008,-52.0
4,yyq,f,18,r,2,(-121.76378772032352, -121.76378772032348),26,5,2,yes,x,5,m,0.6476926000004823,0,86,test1,2,0.6478465999998662,-40.0
4,yyq,f,18,r,2,(-121.76378772032348, 121.76378772032349),24,-7,13,yes,x,5,x,0.6470453000001726,1,87,test1,2,0.647247800000514,-52.0
4,yyq,f,18,r,2,(1.0544208940658713e-14, 172.20000000000002),23,5,2,no,m,6,m,0.7393129999991288,1,88,test1,2,0.739408899999944,-52.0
4,yyq,f,18,r,2,(-172.20000000000002, 2.1088417881317425e-14),25,5,2,yes,x,5,m,0.7105820999995558,0,89,test1,2,0.71072439999989,-40.0
4,yyq,f,18,r,2,(-3.163262682197613e-14, -172.20000000000002),27,-7,13,no,m,6,m,0.8437420999998722,1,90,test1,2,0.8445490000003701,-40.0
4,yyq,f,18,r,2,(-3.163262682197613e-14, -172.20000000000002),27,5,2,yes,x,5,x,0.5488826999999219,1,91,test1,2,0.5490018999998938,-40.0
4,yyq,f,18,r,2,(-3.163262682197613e-14, -172.20000000000002),27,5,2,no,m,6,m,0.6259674999992058,1,92,test1,2,0.6260917999998128,-40.0
4,yyq,f,18,r,2,(172.20000000000002, 0.0),21,5,2,yes,x,5,x,0.6120091000002503,1,93,test1,2,0.6121552999993582,-40.0
4,yyq,f,18,r,2,(-172.20000000000002, 2.1088417881317425e-14),25,-25,14,yes,x,5,x,0.5980310000004465,1,94,test1,2,0.5983664999994289,-70.0
4,yyq,f,18,r,2,(-172.20000000000002, 2.1088417881317425e-14),25,-7,13,no,m,6,m,0.5697367000002487,1,95,test1,2,0.5699021999998877,-70.0
4,yyq,f,18,r,2,(121.76378772032346, -121.76378772032352),28,5,2,no,m,6,m,0.5957717000001139,1,96,test1,2,0.5959955999996964,-70.0
4,yyq,f,18,r,2,(1.0544208940658713e-14, 172.20000000000002),23,25,4,yes,x,5,x,0.4418471999997564,1,1,test2,2,0.44202150000000984,-20.0
4,yyq,f,18,r,2,(-121.76378772032352, -121.76378772032348),26,-5,12,yes,x,5,m,0.6344058999993649,0,2,test2,2,0.6345230999995692,-50.0
4,yyq,f,18,r,2,(172.20000000000002, 0.0),21,7,3,yes,x,5,x,0.4473947999995289,1,3,test2,2,0.447553599999992,-38.0
4,yyq,f,18,r,2,(-3.163262682197613e-14, -172.20000000000002),27,3,1,yes,x,5,x,0.544326600000204,1,4,test2,2,0.5447004999996352,-42.0
4,yyq,f,18,r,2,(-3.163262682197613e-14, -172.20000000000002),27,-3,11,yes,x,5,x,0.6437505999992936,1,5,test2,2,0.6441760999996404,-48.0
4,yyq,f,18,r,2,(121.76378772032349, 121.76378772032349),22,-5,12,no,m,6,m,0.5647917999995116,1,6,test2,2,0.5649199999998018,-48.0
4,yyq,f,18,r,2,(121.76378772032346, -121.76378772032352),28,-7,13,no,m,6,x,0.6269564000003811,0,7,test2,2,0.6270871999995506,-48.0
4,yyq,f,18,r,2,(121.76378772032349, 121.76378772032349),22,5,2,yes,x,5,x,0.5251352000004772,1,8,test2,2,0.5252676999998585,-40.0
4,yyq,f,18,r,2,(121.76378772032346, -121.76378772032352),28,-3,11,no,m,6,m,0.5924771999998484,1,9,test2,2,0.5926837999995769,-40.0
4,yyq,f,18,r,2,(172.20000000000002, 0.0),21,-25,14,yes,x,5,x,0.4337939000006372,1,10,test2,2,0.4338889000000563,-70.0
4,yyq,f,18,r,2,(-3.163262682197613e-14, -172.20000000000002),27,7,3,yes,x,5,x,0.49509909999960655,1,11,test2,2,0.4953464999998687,-38.0
4,yyq,f,18,r,2,(-172.20000000000002, 2.1088417881317425e-14),25,-5,12,no,m,6,m,0.8149446000006719,1,12,test2,2,0.8150883000007525,-38.0
4,yyq,f,18,r,2,(172.20000000000002, 0.0),21,-3,11,no,m,6,m,0.6406461999995372,1,13,test2,2,0.6407771000003777,-38.0
4,yyq,f,18,r,2,(-121.76378772032352, -121.76378772032348),26,-3,11,no,m,6,m,0.5622677999999723,1,14,test2,2,0.5625780000000304,-38.0
4,yyq,f,18,r,2,(-121.76378772032352, -121.76378772032348),26,3,1,yes,x,5,m,0.7290423000004012,0,15,test2,2,0.7292767000008098,-42.0
4,yyq,f,18,r,2,(-172.20000000000002, 2.1088417881317425e-14),25,-3,11,yes,x,5,m,0.676697800000511,0,16,test2,2,0.6768511000000217,-48.0
4,yyq,f,18,r,2,(121.76378772032346, -121.76378772032352),28,-7,13,yes,x,5,x,0.5670727999995506,1,17,test2,2,0.5671697999996468,-52.0
4,yyq,f,18,r,2,(-121.76378772032352, -121.76378772032348),26,-7,13,yes,x,5,x,0.7457825999999841,1,18,test2,2,0.7461286999996446,-52.0
4,yyq,f,18,r,2,(-172.20000000000002, 2.1088417881317425e-14),25,-7,13,yes,x,5,x,0.6050230999999258,1,19,test2,2,0.6051886999994167,-52.0
4,yyq,f,18,r,2,(121.76378772032349, 121.76378772032349),22,-7,13,yes,x,5,x,0.6122151000008671,1,20,test2,2,0.6125894000006156,-52.0
4,yyq,f,18,r,2,(172.20000000000002, 0.0),21,5,2,yes,x,5,m,0.76108000000022,0,21,test2,2,0.7612141000008705,-40.0
4,yyq,f,18,r,2,(-3.163262682197613e-14, -172.20000000000002),27,-3,11,yes,x,5,m,0.8340330000000904,0,22,test2,2,0.8341584999998304,-48.0
4,yyq,f,18,r,2,(121.76378772032346, -121.76378772032352),28,3,1,yes,x,5,x,0.8760554000000411,1,23,test2,2,0.8761588999996093,-42.0
4,yyq,f,18,r,2,(121.76378772032349, 121.76378772032349),22,7,3,no,m,6,m,0.7170244000008097,1,24,test2,2,0.7172362000001158,-42.0
4,yyq,f,18,r,2,(-121.76378772032352, -121.76378772032348),26,7,3,yes,x,5,x,0.9711563000000751,1,25,test2,2,0.9717588999992586,-38.0
4,yyq,f,18,r,2,(-3.163262682197613e-14, -172.20000000000002),27,-5,12,yes,x,5,x,0.48621860000002926,1,26,test2,2,0.4863194999998086,-50.0
4,yyq,f,18,r,2,(-121.76378772032352, -121.76378772032348),26,7,3,yes,x,5,x,0.48925210000015795,1,27,test2,2,0.48946000000069034,-38.0
4,yyq,f,18,r,2,(172.20000000000002, 0.0),21,-3,11,yes,x,5,m,0.5748484999994616,0,28,test2,2,0.57499689999986,-48.0
4,yyq,f,18,r,2,(-3.163262682197613e-14, -172.20000000000002),27,25,4,yes,x,5,x,0.47676920000048995,1,29,test2,2,0.47686780000003637,-20.0
4,yyq,f,18,r,2,(172.20000000000002, 0.0),21,-5,12,no,m,6,x,0.7747240999997302,0,30,test2,2,0.7750136999993629,-20.0
4,yyq,f,18,r,2,(-121.76378772032352, -121.76378772032348),26,-25,14,yes,x,5,x,0.5920397999998386,1,31,test2,2,0.5922544000004564,-70.0
4,yyq,f,18,r,2,(-172.20000000000002, 2.1088417881317425e-14),25,25,4,yes,x,5,x,0.5585515000002488,1,32,test2,2,0.5587787999993452,-20.0
4,yyq,f,18,r,2,(121.76378772032349, 121.76378772032349),22,-3,11,no,m,6,m,0.7257589000000735,1,33,test2,2,0.7258718000002773,-20.0
4,yyq,f,18,r,2,(121.76378772032349, 121.76378772032349),22,-7,13,no,m,6,m,0.5517835000000559,1,34,test2,2,0.5518987000004927,-20.0
4,yyq,f,18,r,2,(-172.20000000000002, 2.1088417881317425e-14),25,-3,11,yes,x,5,m,0.6258692000001247,0,35,test2,2,0.6259675999999672,-48.0
4,yyq,f,18,r,2,(1.0544208940658713e-14, 172.20000000000002),23,-3,11,yes,x,5,x,0.7383240999997724,1,36,test2,2,0.7387097999999241,-48.0
4,yyq,f,18,r,2,(121.76378772032349, 121.76378772032349),22,25,4,no,m,6,m,0.635119599999598,1,37,test2,2,0.6356402999999773,-48.0
4,yyq,f,18,r,2,(-3.163262682197613e-14, -172.20000000000002),27,-7,13,yes,x,5,x,0.4462813999998616,1,38,test2,2,0.4465176000003339,-52.0
4,yyq,f,18,r,2,(-121.76378772032348, 121.76378772032349),24,3,1,yes,x,5,x,0.617306500000268,1,39,test2,2,0.617468600000393,-42.0
4,yyq,f,18,r,2,(1.0544208940658713e-14, 172.20000000000002),23,3,1,yes,x,5,x,0.5590059000005567,1,40,test2,2,0.5591064000000188,-42.0
4,yyq,f,18,r,2,(-121.76378772032348, 121.76378772032349),24,-5,12,yes,x,5,x,0.4810256999999183,1,41,test2,2,0.48125179999988177,-50.0
4,yyq,f,18,r,2,(121.76378772032346, -121.76378772032352),28,-25,14,yes,x,5,x,0.4748856000005617,1,42,test2,2,0.4753070000006119,-70.0
4,yyq,f,18,r,2,(-121.76378772032348, 121.76378772032349),24,-3,11,no,m,6,m,0.7256695000005493,1,43,test2,2,0.7260012999995524,-70.0
4,yyq,f,18,r,2,(121.76378772032346, -121.76378772032352),28,7,3,yes,x,5,x,0.8824264000004405,1,44,test2,2,0.88272489999963,-38.0
4,yyq,f,18,r,2,(121.76378772032346, -121.76378772032352),28,-3,11,yes,x,5,m,0.7833261000005223,0,45,test2,2,0.783447900000283,-48.0
4,yyq,f,18,r,2,(121.76378772032346, -121.76378772032352),28,-25,14,no,m,6,m,0.8723866000000271,1,46,test2,2,0.8724848000001657,-48.0
4,yyq,f,18,r,2,(172.20000000000002, 0.0),21,-25,14,yes,x,5,x,0.49922760000026756,1,47,test2,2,0.49988180000036664,-70.0
4,yyq,f,18,r,2,(-121.76378772032352, -121.76378772032348),26,-5,12,no,m,6,m,0.8176755999993475,1,48,test2,2,0.8177760000007765,-70.0
4,yyq,f,18,r,2,(121.76378772032346, -121.76378772032352),28,-5,12,yes,x,5,x,1.034827899999982,1,49,test2,2,1.0349562999999762,-50.0
4,yyq,f,18,r,2,(-3.163262682197613e-14, -172.20000000000002),27,-25,14,yes,x,5,x,0.6628028000004633,1,50,test2,2,0.6629016000006231,-70.0
4,yyq,f,18,r,2,(-121.76378772032348, 121.76378772032349),24,7,3,yes,x,5,x,0.7703363000000536,1,51,test2,2,0.7709875999998985,-38.0
4,yyq,f,18,r,2,(-121.76378772032352, -121.76378772032348),26,-7,13,no,m,6,m,0.6017234000000826,1,52,test2,2,0.6018256000006659,-38.0
4,yyq,f,18,r,2,(172.20000000000002, 0.0),21,3,1,yes,x,5,x,0.6618588999999702,1,53,test2,2,0.6619811000000482,-42.0
4,yyq,f,18,r,2,(-121.76378772032348, 121.76378772032349),24,-7,13,yes,x,5,x,0.7427514999999403,1,54,test2,2,0.7428506000005655,-52.0
4,yyq,f,18,r,2,(1.0544208940658713e-14, 172.20000000000002),23,5,2,yes,x,5,x,0.5817956999999296,1,55,test2,2,0.5818926000001738,-40.0
4,yyq,f,18,r,2,(172.20000000000002, 0.0),21,-5,12,yes,x,5,x,0.7030784999997195,1,56,test2,2,0.7033873999998832,-50.0
4,yyq,f,18,r,2,(1.0544208940658713e-14, 172.20000000000002),23,-25,14,yes,x,5,x,0.6230945000006614,1,57,test2,2,0.6234489999997095,-70.0
4,yyq,f,18,r,2,(121.76378772032349, 121.76378772032349),22,-7,13,yes,x,5,x,0.8421275000000605,1,58,test2,2,0.8425367999998343,-52.0
4,yyq,f,18,r,2,(121.76378772032349, 121.76378772032349),22,-25,14,yes,x,5,x,0.48896119999972143,1,59,test2,2,0.48908790000041336,-70.0
4,yyq,f,18,r,2,(-121.76378772032348, 121.76378772032349),24,5,2,no,m,6,x,0.7423447999999553,0,60,test2,2,0.7426219999997556,-70.0
4,yyq,f,18,r,2,(121.76378772032349, 121.76378772032349),22,-5,12,yes,x,5,x,0.4917365000001155,1,61,test2,2,0.4918353000002753,-50.0
4,yyq,f,18,r,2,(1.0544208940658713e-14, 172.20000000000002),23,3,1,no,m,6,m,0.7619462000002386,1,62,test2,2,0.7624923000003037,-50.0
4,yyq,f,18,r,2,(-121.76378772032348, 121.76378772032349),24,3,1,yes,x,5,m,0.8475581000002421,0,63,test2,2,0.8478442000005089,-42.0
4,yyq,f,18,r,2,(-3.163262682197613e-14, -172.20000000000002),27,-25,14,yes,x,5,x,0.6001214999996591,1,64,test2,2,0.600636599999234,-70.0
4,yyq,f,18,r,2,(121.76378772032349, 121.76378772032349),22,3,1,yes,x,5,m,0.6769245999994382,0,65,test2,2,0.6772571000001335,-42.0
4,yyq,f,18,r,2,(-121.76378772032348, 121.76378772032349),24,25,4,no,m,6,x,0.996862200000578,0,66,test2,2,0.9973614999998972,-42.0
4,yyq,f,18,r,2,(121.76378772032349, 121.76378772032349),22,-3,11,yes,x,5,x,0.7918743000000177,1,67,test2,2,0.7920013000002655,-48.0
4,yyq,f,18,r,2,(172.20000000000002, 0.0),21,3,1,yes,x,5,x,0.7655880999991496,1,68,test2,2,0.7656889999998384,-42.0
4,yyq,f,18,r,2,(1.0544208940658713e-14, 172.20000000000002),23,-5,12,no,m,6,x,0.8719221999999718,0,69,test2,2,0.8720253999999841,-42.0
4,yyq,f,18,r,2,(-3.163262682197613e-14, -172.20000000000002),27,3,1,yes,x,5,x,0.5555560000002515,1,70,test2,2,0.5557723000001715,-42.0
4,yyq,f,18,r,2,(121.76378772032346, -121.76378772032352),28,25,4,yes,x,5,x,0.9966003999998065,1,71,test2,2,0.9968790000002627,-20.0
4,yyq,f,18,r,2,(-3.163262682197613e-14, -172.20000000000002),27,-25,14,no,m,6,x,0.7189115000001038,0,72,test2,2,0.7190089999994598,-20.0
4,yyq,f,18,r,2,(121.76378772032349, 121.76378772032349),22,7,3,yes,x,5,x,0.43291320000025735,1,73,test2,2,0.4331210000000283,-38.0
4,yyq,f,18,r,2,(-121.76378772032352, -121.76378772032348),26,3,1,yes,x,5,m,0.8961712999998781,0,74,test2,2,0.8962974000005488,-42.0
4,yyq,f,18,r,2,(-3.163262682197613e-14, -172.20000000000002),27,25,4,yes,x,5,x,0.5409710000003543,1,75,test2,2,0.5413764000004448,-20.0
4,yyq,f,18,r,2,(121.76378772032346, -121.76378772032352),28,-7,13,yes,x,5,m,0.9958773999996993,0,76,test2,2,0.9965293000004749,-52.0
4,yyq,f,18,r,2,(-121.76378772032348, 121.76378772032349),24,7,3,yes,x,5,x,0.837894100000085,1,77,test2,2,0.8380238999998255,-38.0
4,yyq,f,18,r,2,(-121.76378772032348, 121.76378772032349),24,25,4,yes,x,5,x,0.605972300000758,1,78,test2,2,0.606192799999917,-20.0
4,yyq,f,18,r,2,(-121.76378772032352, -121.76378772032348),26,-5,12,yes,x,5,m,0.936834799999815,0,79,test2,2,0.9369344000006095,-50.0
4,yyq,f,18,r,2,(1.0544208940658713e-14, 172.20000000000002),23,7,3,no,m,6,x,1.1512495999995735,0,80,test2,2,1.1513616000002003,-50.0
4,yyq,f,18,r,2,(1.0544208940658713e-14, 172.20000000000002),23,-7,13,no,m,6,m,0.6782260999998471,1,81,test2,2,0.6785153999999238,-50.0
4,yyq,f,18,r,2,(121.76378772032349, 121.76378772032349),22,-25,14,no,m,6,m,0.9650069999997868,1,82,test2,2,0.9651765000007799,-50.0
4,yyq,f,18,r,2,(1.0544208940658713e-14, 172.20000000000002),23,-5,12,yes,x,5,m,0.6218377000004693,0,83,test2,2,0.6219372000005023,-50.0
4,yyq,f,18,r,2,(121.76378772032346, -121.76378772032352),28,25,4,yes,x,5,x,0.42832389999966836,1,84,test2,2,0.42842339999970136,-20.0
4,yyq,f,18,r,2,(-172.20000000000002, 2.1088417881317425e-14),25,-25,14,no,m,6,m,0.754112300000088,1,85,test2,2,0.7542935000001307,-20.0
4,yyq,f,18,r,2,(1.0544208940658713e-14, 172.20000000000002),23,3,1,yes,x,5,x,0.9786603000002287,1,86,test2,2,0.9788908999998966,-42.0
4,yyq,f,18,r,2,(-3.163262682197613e-14, -172.20000000000002),27,-5,12,no,m,6,x,1.192204099999799,0,87,test2,2,1.1924162000004799,-42.0
4,yyq,f,18,r,2,(-121.76378772032348, 121.76378772032349),24,5,2,yes,x,5,m,0.6988624999994499,0,88,test2,2,0.6990971999994144,-40.0
4,yyq,f,18,r,2,(1.0544208940658713e-14, 172.20000000000002),23,-5,12,yes,x,5,x,1.0254677999992055,1,89,test2,2,1.0255852999998751,-50.0
4,yyq,f,18,r,2,(121.76378772032346, -121.76378772032352),28,-25,14,yes,x,5,x,0.6798214999998891,1,90,test2,2,0.6801721000001635,-70.0
4,yyq,f,18,r,2,(172.20000000000002, 0.0),21,3,1,no,m,6,m,0.8362401000003956,1,91,test2,2,0.8363393999998152,-70.0
4,yyq,f,18,r,2,(172.20000000000002, 0.0),21,-25,14,no,m,6,m,0.6742637999996077,1,92,test2,2,0.6744158999999854,-70.0
4,yyq,f,18,r,2,(1.0544208940658713e-14, 172.20000000000002),23,5,2,yes,x,5,x,0.603627299999971,1,93,test2,2,0.6038134000000355,-40.0
4,yyq,f,18,r,2,(-121.76378772032348, 121.76378772032349),24,-5,12,no,m,6,m,0.5907037999995737,1,94,test2,2,0.5908237000003282,-40.0
4,yyq,f,18,r,2,(-172.20000000000002, 2.1088417881317425e-14),25,7,3,yes,x,5,x,0.48586539999996603,1,95,test2,2,0.48601979999966716,-38.0
4,yyq,f,18,r,2,(-121.76378772032352, -121.76378772032348),26,-25,14,no,m,6,x,0.6082041999998182,0,96,test2,2,0.6083300999998755,-38.0
4,yyq,f,18,r,2,(1.0544208940658713e-14, 172.20000000000002),23,-3,11,no,m,6,m,0.8017647999995461,1,1,test1,3,0.8019332000003487,-38.0
4,yyq,f,18,r,2,(1.0544208940658713e-14, 172.20000000000002),23,-25,14,no,m,6,m,0.5825770000001285,1,2,test1,3,0.5826733000003514,-38.0
4,yyq,f,18,r,2,(-121.76378772032348, 121.76378772032349),24,25,4,yes,x,5,x,0.3462119999994684,1,3,test1,3,0.34634039999946253,-20.0
4,yyq,f,18,r,2,(172.20000000000002, 0.0),21,25,4,yes,x,5,x,0.3762582999997903,1,4,test1,3,0.3764171000002534,-20.0
4,yyq,f,18,r,2,(1.0544208940658713e-14, 172.20000000000002),23,-7,13,yes,x,5,x,0.347919599999841,1,5,test1,3,0.34804540000004636,-52.0
4,yyq,f,18,r,2,(172.20000000000002, 0.0),21,25,4,yes,x,5,x,0.34025239999937185,1,6,test1,3,0.34059849999994185,-20.0
4,yyq,f,18,r,2,(172.20000000000002, 0.0),21,7,3,yes,x,5,x,0.3705190999999104,1,7,test1,3,0.3706405000002633,-38.0
4,yyq,f,18,r,2,(1.0544208940658713e-14, 172.20000000000002),23,-3,11,yes,x,5,x,0.6053937000006044,1,8,test1,3,0.6057135999999446,-48.0
4,yyq,f,18,r,2,(-121.76378772032348, 121.76378772032349),24,-25,14,yes,x,5,x,0.44645110000055865,1,9,test1,3,0.44679959999939456,-70.0
4,yyq,f,18,r,2,(172.20000000000002, 0.0),21,-7,13,no,m,6,m,0.615042600000379,1,10,test1,3,0.6153284000001804,-70.0
4,yyq,f,18,r,2,(-121.76378772032348, 121.76378772032349),24,-7,13,no,m,6,x,0.6865811000006943,0,11,test1,3,0.6867102999995041,-70.0
4,yyq,f,18,r,2,(121.76378772032346, -121.76378772032352),28,-5,12,no,m,6,m,0.5680340999997497,1,12,test1,3,0.5683766000001924,-70.0
4,yyq,f,18,r,2,(-172.20000000000002, 2.1088417881317425e-14),25,25,4,yes,x,5,x,0.5176749000002019,1,13,test1,3,0.5183443999994779,-20.0
4,yyq,f,18,r,2,(121.76378772032349, 121.76378772032349),22,3,1,no,m,6,m,0.6098400999999285,1,14,test1,3,0.6101977999996961,-20.0
4,yyq,f,18,r,2,(-121.76378772032352, -121.76378772032348),26,7,3,no,m,6,m,0.5900478000003204,1,15,test1,3,0.5905563999995138,-20.0
4,yyq,f,18,r,2,(1.0544208940658713e-14, 172.20000000000002),23,-25,14,yes,x,5,x,0.49005420000048616,1,16,test1,3,0.49018160000014177,-70.0
4,yyq,f,18,r,2,(-121.76378772032348, 121.76378772032349),24,-25,14,yes,x,5,x,0.5972087000000101,1,17,test1,3,0.5975140999998985,-70.0
4,yyq,f,18,r,2,(121.76378772032349, 121.76378772032349),22,3,1,yes,x,5,m,0.6706977000003462,0,18,test1,3,0.6708021999993434,-42.0
4,yyq,f,18,r,2,(1.0544208940658713e-14, 172.20000000000002),23,-7,13,yes,x,5,x,0.7885749999995824,1,19,test1,3,0.7888334999997824,-52.0
4,yyq,f,18,r,2,(-121.76378772032352, -121.76378772032348),26,25,4,yes,x,5,x,0.6444545000003927,1,20,test1,3,0.6446250999997574,-20.0
4,yyq,f,18,r,2,(1.0544208940658713e-14, 172.20000000000002),23,25,4,yes,x,5,x,0.4764757000002646,1,21,test1,3,0.4767108999994889,-20.0
4,yyq,f,18,r,2,(-172.20000000000002, 2.1088417881317425e-14),25,7,3,no,m,6,m,0.7914582000003065,1,22,test1,3,0.7916092000004937,-20.0
4,yyq,f,18,r,2,(121.76378772032349, 121.76378772032349),22,25,4,yes,x,5,x,0.7630638999999064,1,23,test1,3,0.7633434999997917,-20.0
4,yyq,f,18,r,2,(-172.20000000000002, 2.1088417881317425e-14),25,-5,12,yes,x,5,x,0.5754502999998294,1,24,test1,3,0.5758249999998952,-50.0
4,yyq,f,18,r,2,(121.76378772032346, -121.76378772032352),28,3,1,yes,x,5,x,0.729981399999815,1,25,test1,3,0.7302548999996361,-42.0
4,yyq,f,18,r,2,(-3.163262682197613e-14, -172.20000000000002),27,-3,11,no,m,6,m,1.0080510999996477,1,26,test1,3,1.0082185999999638,-42.0
4,yyq,f,18,r,2,(-3.163262682197613e-14, -172.20000000000002),27,-5,12,yes,x,5,x,1.274057399999947,1,27,test1,3,1.2742664999996123,-50.0
4,yyq,f,18,r,2,(-172.20000000000002, 2.1088417881317425e-14),25,5,2,yes,x,5,m,0.953519800000322,0,28,test1,3,0.9536211999993611,-40.0
4,yyq,f,18,r,2,(121.76378772032346, -121.76378772032352),28,5,2,yes,x,5,m,1.0649376999999731,0,29,test1,3,1.0652657999999064,-40.0
4,yyq,f,18,r,2,(-121.76378772032352, -121.76378772032348),26,-7,13,yes,x,5,m,1.0443742999996175,0,30,test1,3,1.0444902999997794,-52.0
4,yyq,f,18,r,2,(172.20000000000002, 0.0),21,-7,13,yes,x,5,x,0.774294099999679,1,31,test1,3,0.7745974999997998,-52.0
4,yyq,f,18,r,2,(121.76378772032349, 121.76378772032349),22,25,4,yes,x,5,m,0.9116647000000739,0,32,test1,3,0.9117677000003823,-20.0
4,yyq,f,18,r,2,(-172.20000000000002, 2.1088417881317425e-14),25,-5,12,yes,x,5,m,0.6041849999992337,0,33,test1,3,0.6047331999998278,-50.0
4,yyq,f,18,r,2,(1.0544208940658713e-14, 172.20000000000002),23,7,3,yes,x,5,x,0.5941817000002629,1,34,test1,3,0.5948712999997952,-38.0
4,yyq,f,18,r,2,(-3.163262682197613e-14, -172.20000000000002),27,-7,13,yes,x,5,x,0.8605343000008361,1,35,test1,3,0.8606495000003633,-52.0
4,yyq,f,18,r,2,(-121.76378772032348, 121.76378772032349),24,-3,11,yes,x,5,m,1.7515745999999126,0,36,test1,3,1.7519317000005685,-48.0
4,yyq,f,18,r,2,(-172.20000000000002, 2.1088417881317425e-14),25,25,4,no,m,6,x,0.8766742999996495,0,37,test1,3,0.8769045999997616,-48.0
4,yyq,f,18,r,2,(-121.76378772032352, -121.76378772032348),26,-3,11,yes,x,5,m,0.686497299999246,0,38,test1,3,0.6866024000000834,-48.0
4,yyq,f,18,r,2,(-172.20000000000002, 2.1088417881317425e-14),25,-3,11,no,m,6,m,0.5890930999994453,1,39,test1,3,0.5892211000000316,-48.0
4,yyq,f,18,r,2,(-172.20000000000002, 2.1088417881317425e-14),25,7,3,yes,x,5,x,0.49056649999965884,1,40,test1,3,0.4907819999998537,-38.0
4,yyq,f,18,r,2,(121.76378772032349, 121.76378772032349),22,7,3,yes,x,5,x,0.5833083999996234,1,41,test1,3,0.5835100000003877,-38.0
4,yyq,f,18,r,2,(-172.20000000000002, 2.1088417881317425e-14),25,3,1,yes,x,5,x,0.6749673000003895,1,42,test1,3,0.6752373999997872,-42.0
4,yyq,f,18,r,2,(1.0544208940658713e-14, 172.20000000000002),23,25,4,no,m,6,x,0.6714085000003251,0,43,test1,3,0.6717467999997098,-42.0
4,yyq,f,18,r,2,(121.76378772032349, 121.76378772032349),22,-3,11,yes,x,5,x,0.6176370999992287,1,44,test1,3,0.6178712000000814,-48.0
4,yyq,f,18,r,2,(172.20000000000002, 0.0),21,25,4,no,m,6,m,0.946978200000558,1,45,test1,3,0.947216099999423,-48.0
4,yyq,f,18,r,2,(-172.20000000000002, 2.1088417881317425e-14),25,3,1,no,m,6,m,0.6768277000001035,1,46,test1,3,0.6770533999997497,-48.0
4,yyq,f,18,r,2,(121.76378772032346, -121.76378772032352),28,3,1,no,m,6,m,0.9838615999997273,1,47,test1,3,0.9839630000005855,-48.0
4,yyq,f,18,r,2,(121.76378772032346, -121.76378772032352),28,5,2,yes,x,5,m,0.6342841999994562,0,48,test1,3,0.6346817000003284,-40.0
4,yyq,f,18,r,2,(-121.76378772032352, -121.76378772032348),26,25,4,no,m,6,x,0.9935198000002856,0,49,test1,3,0.9940065999999206,-40.0
4,yyq,f,18,r,2,(-3.163262682197613e-14, -172.20000000000002),27,5,2,yes,x,5,m,1.1383191000004445,0,50,test1,3,1.138628300000164,-40.0
4,yyq,f,18,r,2,(-121.76378772032348, 121.76378772032349),24,-5,12,yes,x,5,x,0.4368474000002607,1,51,test1,3,0.4369818999994095,-50.0
4,yyq,f,18,r,2,(-3.163262682197613e-14, -172.20000000000002),27,7,3,yes,x,5,x,0.46101809999981924,1,52,test1,3,0.46165600000040286,-38.0
4,yyq,f,18,r,2,(-3.163262682197613e-14, -172.20000000000002),27,7,3,no,m,6,m,0.7280569000004107,1,53,test1,3,0.7285575000005338,-38.0
4,yyq,f,18,r,2,(-3.163262682197613e-14, -172.20000000000002),27,3,1,no,m,6,m,0.5972263000003295,1,54,test1,3,0.597600600000078,-38.0
4,yyq,f,18,r,2,(-121.76378772032352, -121.76378772032348),26,-3,11,yes,x,5,x,0.5780632000005426,1,55,test1,3,0.5785840000007738,-48.0
4,yyq,f,18,r,2,(-3.163262682197613e-14, -172.20000000000002),27,25,4,no,m,6,x,0.6357456000005186,0,56,test1,3,0.6359801999997217,-48.0
4,yyq,f,18,r,2,(121.76378772032346, -121.76378772032352),28,7,3,no,m,6,m,0.7084235000002082,1,57,test1,3,0.7087339999998221,-48.0
4,yyq,f,18,r,2,(-121.76378772032348, 121.76378772032349),24,3,1,no,m,6,m,0.8587907000000996,1,58,test1,3,0.8589758999996775,-48.0
4,yyq,f,18,r,2,(121.76378772032349, 121.76378772032349),22,5,2,no,m,6,m,1.0953975000002174,1,59,test1,3,1.0960153000005448,-48.0
4,yyq,f,18,r,2,(172.20000000000002, 0.0),21,7,3,no,m,6,m,0.6819691000000603,1,60,test1,3,0.6820709999992687,-48.0
4,yyq,f,18,r,2,(-121.76378772032348, 121.76378772032349),24,-25,14,no,m,6,m,0.7980274000001373,1,61,test1,3,0.7981262000002971,-48.0
4,yyq,f,18,r,2,(-121.76378772032348, 121.76378772032349),24,5,2,yes,x,5,x,0.8600358000003325,1,62,test1,3,0.8601719999996931,-40.0
4,yyq,f,18,r,2,(-121.76378772032348, 121.76378772032349),24,-3,11,yes,x,5,x,0.905477800000881,1,63,test1,3,0.9058742999995957,-48.0
4,yyq,f,18,r,2,(-172.20000000000002, 2.1088417881317425e-14),25,-25,14,yes,x,5,x,0.6112221999992471,1,64,test1,3,0.6116753999995126,-70.0
4,yyq,f,18,r,2,(-172.20000000000002, 2.1088417881317425e-14),25,-7,13,yes,x,5,x,0.5167113999996218,1,65,test1,3,0.5171615999997812,-52.0
4,yyq,f,18,r,2,(172.20000000000002, 0.0),21,-3,11,yes,x,5,x,0.8364753000005294,1,66,test1,3,0.8366825999992216,-48.0
4,yyq,f,18,r,2,(121.76378772032346, -121.76378772032352),28,25,4,no,m,6,m,0.7875574999998207,1,67,test1,3,0.7877889999999752,-48.0
4,yyq,f,18,r,2,(-121.76378772032352, -121.76378772032348),26,25,4,yes,x,5,m,0.8120990999996138,0,68,test1,3,0.8123788000002605,-20.0
4,yyq,f,18,r,2,(121.76378772032346, -121.76378772032352),28,7,3,yes,x,5,x,0.6341542999998637,1,69,test1,3,0.6344519999993281,-38.0
4,yyq,f,18,r,2,(-121.76378772032348, 121.76378772032349),24,7,3,no,m,6,x,1.108358199999202,0,70,test1,3,1.1084573999996792,-38.0
4,yyq,f,18,r,2,(-121.76378772032352, -121.76378772032348),26,-25,14,yes,x,5,x,0.47431570000026113,1,71,test1,3,0.47456119999969815,-70.0
4,yyq,f,18,r,2,(121.76378772032346, -121.76378772032352),28,-3,11,yes,x,5,m,0.893346400000155,0,72,test1,3,0.8937329999998838,-48.0
4,yyq,f,18,r,2,(-121.76378772032352, -121.76378772032348),26,3,1,no,m,6,x,0.6142078000002584,0,73,test1,3,0.6143063999998049,-48.0
4,yyq,f,18,r,2,(-121.76378772032352, -121.76378772032348),26,5,2,yes,x,5,x,0.8134658999997555,1,74,test1,3,0.8136331000005157,-40.0
4,yyq,f,18,r,2,(-172.20000000000002, 2.1088417881317425e-14),25,3,1,yes,x,5,m,0.8804470000004585,0,75,test1,3,0.8806262999996761,-42.0
4,yyq,f,18,r,2,(121.76378772032349, 121.76378772032349),22,5,2,yes,x,5,x,0.8636183999997229,1,76,test1,3,0.8637158999999883,-40.0
4,yyq,f,18,r,2,(-172.20000000000002, 2.1088417881317425e-14),25,5,2,no,m,6,m,0.7618301000002248,1,77,test1,3,0.76198420000037,-40.0
4,yyq,f,18,r,2,(121.76378772032346, -121.76378772032352),28,-5,12,yes,x,5,x,0.607609799999409,1,78,test1,3,0.6081370000001698,-50.0
4,yyq,f,18,r,2,(-121.76378772032352, -121.76378772032348),26,5,2,no,m,6,x,0.755924999999479,0,79,test1,3,0.7561147999995228,-50.0
4,yyq,f,18,r,2,(172.20000000000002, 0.0),21,5,2,no,m,6,x,0.8717436999995698,0,80,test1,3,0.8718631000001551,-50.0
4,yyq,f,18,r,2,(121.76378772032349, 121.76378772032349),22,-5,12,yes,x,5,x,0.5191490000006524,1,81,test1,3,0.5192479999996067,-50.0
4,yyq,f,18,r,2,(121.76378772032349, 121.76378772032349),22,-25,14,yes,x,5,m,0.575180900000305,0,82,test1,3,0.5753599999998187,-70.0
4,yyq,f,18,r,2,(172.20000000000002, 0.0),21,-5,12,yes,x,5,m,1.1235142999994423,0,83,test1,3,1.1237146000003122,-50.0
4,yyq,f,18,r,2,(1.0544208940658713e-14, 172.20000000000002),23,7,3,yes,x,5,x,0.6712652999995044,1,84,test1,3,0.6713792999998986,-38.0
4,yyq,f,18,r,2,(172.20000000000002, 0.0),21,-7,13,yes,x,5,m,0.7894504000005327,0,85,test1,3,0.7895637000001443,-52.0
4,yyq,f,18,r,2,(-121.76378772032352, -121.76378772032348),26,5,2,yes,x,5,m,1.1859133000007205,0,86,test1,3,1.1862522999999783,-40.0
4,yyq,f,18,r,2,(-121.76378772032348, 121.76378772032349),24,-7,13,yes,x,5,m,0.8635830999992322,0,87,test1,3,0.863680800000111,-52.0
4,yyq,f,18,r,2,(1.0544208940658713e-14, 172.20000000000002),23,5,2,no,m,6,m,0.7698960000006991,1,88,test1,3,0.7702419999995982,-52.0
4,yyq,f,18,r,2,(-172.20000000000002, 2.1088417881317425e-14),25,5,2,yes,x,5,m,0.743040899999869,0,89,test1,3,0.7432029999999941,-40.0
4,yyq,f,18,r,2,(-3.163262682197613e-14, -172.20000000000002),27,-7,13,no,m,6,m,0.8443094000003839,1,90,test1,3,0.8444226999999955,-40.0
4,yyq,f,18,r,2,(-3.163262682197613e-14, -172.20000000000002),27,5,2,yes,x,5,None,None,0,91,test1,3,1.980088400000568,-40.0
4,yyq,f,18,r,2,(-3.163262682197613e-14, -172.20000000000002),27,5,2,no,m,6,m,0.5554022000005716,1,92,test1,3,0.5555193999998664,-40.0
4,yyq,f,18,r,2,(172.20000000000002, 0.0),21,5,2,yes,x,5,x,0.6250932000002649,1,93,test1,3,0.6253210000004401,-40.0
4,yyq,f,18,r,2,(-172.20000000000002, 2.1088417881317425e-14),25,-25,14,yes,x,5,x,0.4276741999992737,1,94,test1,3,0.4278528999993796,-70.0
4,yyq,f,18,r,2,(-172.20000000000002, 2.1088417881317425e-14),25,-7,13,no,m,6,m,0.5196523000004163,1,95,test1,3,0.5199989000002461,-70.0
4,yyq,f,18,r,2,(121.76378772032346, -121.76378772032352),28,5,2,no,m,6,m,0.5497075000002951,1,96,test1,3,0.5499371999994764,-70.0
4,yyq,f,18,r,2,(1.0544208940658713e-14, 172.20000000000002),23,25,4,yes,x,5,x,0.48565289999987726,1,1,test2,3,0.4858635000000504,-20.0
4,yyq,f,18,r,2,(-121.76378772032352, -121.76378772032348),26,-5,12,yes,x,5,x,0.551911100000325,1,2,test2,3,0.5521053000002212,-50.0
4,yyq,f,18,r,2,(172.20000000000002, 0.0),21,7,3,yes,x,5,x,0.41932360000009794,1,3,test2,3,0.41942010000002483,-38.0
4,yyq,f,18,r,2,(-3.163262682197613e-14, -172.20000000000002),27,3,1,yes,x,5,m,0.5287045999994007,0,4,test2,3,0.5288055000000895,-42.0
4,yyq,f,18,r,2,(-3.163262682197613e-14, -172.20000000000002),27,-3,11,yes,x,5,x,0.4857606000005035,1,5,test2,3,0.48621800000000803,-48.0
4,yyq,f,18,r,2,(121.76378772032349, 121.76378772032349),22,-5,12,no,m,6,m,0.614744200000132,1,6,test2,3,0.614959400000771,-48.0
4,yyq,f,18,r,2,(121.76378772032346, -121.76378772032352),28,-7,13,no,m,6,m,0.5714520999999877,1,7,test2,3,0.5717515000005733,-48.0
4,yyq,f,18,r,2,(121.76378772032349, 121.76378772032349),22,5,2,yes,x,5,x,0.4916197000002285,1,8,test2,3,0.4926586999999927,-40.0
4,yyq,f,18,r,2,(121.76378772032346, -121.76378772032352),28,-3,11,no,m,6,m,0.5907534000007217,1,9,test2,3,0.5909760000004098,-40.0
4,yyq,f,18,r,2,(172.20000000000002, 0.0),21,-25,14,yes,x,5,x,0.464871299999686,1,10,test2,3,0.46497400000043854,-70.0
4,yyq,f,18,r,2,(-3.163262682197613e-14, -172.20000000000002),27,7,3,yes,x,5,x,0.37988529999984166,1,11,test2,3,0.38006420000056096,-38.0
4,yyq,f,18,r,2,(-172.20000000000002, 2.1088417881317425e-14),25,-5,12,no,m,6,x,0.5771653000001606,0,12,test2,3,0.5773290999995879,-38.0
4,yyq,f,18,r,2,(172.20000000000002, 0.0),21,-3,11,no,m,6,x,0.8600341000001208,0,13,test2,3,0.8601554000006217,-38.0
4,yyq,f,18,r,2,(-121.76378772032352, -121.76378772032348),26,-3,11,no,m,6,m,0.7420421000006172,1,14,test2,3,0.7421598999999333,-38.0
4,yyq,f,18,r,2,(-121.76378772032352, -121.76378772032348),26,3,1,yes,x,5,x,0.597599500000797,1,15,test2,3,0.5979380999997375,-42.0
4,yyq,f,18,r,2,(-172.20000000000002, 2.1088417881317425e-14),25,-3,11,yes,x,5,x,0.6056859000000259,1,16,test2,3,0.6057885000000169,-48.0
4,yyq,f,18,r,2,(121.76378772032346, -121.76378772032352),28,-7,13,yes,x,5,x,0.42492810000021564,1,17,test2,3,0.4252471999998306,-52.0
4,yyq,f,18,r,2,(-121.76378772032352, -121.76378772032348),26,-7,13,yes,x,5,x,0.35684370000035415,1,18,test2,3,0.3570763000006991,-52.0
4,yyq,f,18,r,2,(-172.20000000000002, 2.1088417881317425e-14),25,-7,13,yes,x,5,x,0.38613319999967644,1,19,test2,3,0.3863602000001265,-52.0
4,yyq,f,18,r,2,(121.76378772032349, 121.76378772032349),22,-7,13,yes,x,5,x,0.43497130000014295,1,20,test2,3,0.4352462999995623,-52.0
4,yyq,f,18,r,2,(172.20000000000002, 0.0),21,5,2,yes,x,5,x,0.36857529999997496,1,21,test2,3,0.3688109999993685,-40.0
4,yyq,f,18,r,2,(-3.163262682197613e-14, -172.20000000000002),27,-3,11,yes,x,5,x,0.42560820000016975,1,22,test2,3,0.42592810000041936,-48.0
4,yyq,f,18,r,2,(121.76378772032346, -121.76378772032352),28,3,1,yes,x,5,x,0.5294023000005836,1,23,test2,3,0.5296736999998757,-42.0
4,yyq,f,18,r,2,(121.76378772032349, 121.76378772032349),22,7,3,no,m,6,x,0.46885329999986425,0,24,test2,3,0.4689711000000898,-42.0
4,yyq,f,18,r,2,(-121.76378772032352, -121.76378772032348),26,7,3,yes,x,5,x,0.4309170999995331,1,25,test2,3,0.4315262999998595,-38.0
4,yyq,f,18,r,2,(-3.163262682197613e-14, -172.20000000000002),27,-5,12,yes,x,5,x,0.45707599999968807,1,26,test2,3,0.45718940000006114,-50.0
4,yyq,f,18,r,2,(-121.76378772032352, -121.76378772032348),26,7,3,yes,x,5,x,0.41835790000004636,1,27,test2,3,0.418885400000363,-38.0
4,yyq,f,18,r,2,(172.20000000000002, 0.0),21,-3,11,yes,x,5,x,0.5566523999996207,1,28,test2,3,0.5568841000003886,-48.0
4,yyq,f,18,r,2,(-3.163262682197613e-14, -172.20000000000002),27,25,4,yes,x,5,x,0.403410700000677,1,29,test2,3,0.40358480000031705,-20.0
4,yyq,f,18,r,2,(172.20000000000002, 0.0),21,-5,12,no,m,6,m,0.7383962000003521,1,30,test2,3,0.7385175999997955,-20.0
4,yyq,f,18,r,2,(-121.76378772032352, -121.76378772032348),26,-25,14,yes,x,5,x,0.3707377999999153,1,31,test2,3,0.37083609999990585,-70.0
4,yyq,f,18,r,2,(-172.20000000000002, 2.1088417881317425e-14),25,25,4,yes,x,5,x,0.3886073000003307,1,32,test2,3,0.3888154999995095,-20.0
4,yyq,f,18,r,2,(121.76378772032349, 121.76378772032349),22,-3,11,no,m,6,m,0.6959094999992885,1,33,test2,3,0.6960337000000436,-20.0
4,yyq,f,18,r,2,(121.76378772032349, 121.76378772032349),22,-7,13,no,m,6,m,0.7595113000006677,1,34,test2,3,0.7600216999999247,-20.0
4,yyq,f,18,r,2,(-172.20000000000002, 2.1088417881317425e-14),25,-3,11,yes,x,5,m,0.7760048000000097,0,35,test2,3,0.7762227000002895,-48.0
4,yyq,f,18,r,2,(1.0544208940658713e-14, 172.20000000000002),23,-3,11,yes,x,5,x,0.6891809999997349,1,36,test2,3,0.6898403999994116,-48.0
4,yyq,f,18,r,2,(121.76378772032349, 121.76378772032349),22,25,4,no,m,6,m,0.6124641000005795,1,37,test2,3,0.6125979999997071,-48.0
4,yyq,f,18,r,2,(-3.163262682197613e-14, -172.20000000000002),27,-7,13,yes,x,5,x,0.4307661000002554,1,38,test2,3,0.4312269000001834,-52.0
4,yyq,f,18,r,2,(-121.76378772032348, 121.76378772032349),24,3,1,yes,x,5,x,0.4709728999996514,1,39,test2,3,0.47119930000008026,-42.0
4,yyq,f,18,r,2,(1.0544208940658713e-14, 172.20000000000002),23,3,1,yes,x,5,x,0.3677345999994941,1,40,test2,3,0.3679595000003246,-42.0
4,yyq,f,18,r,2,(-121.76378772032348, 121.76378772032349),24,-5,12,yes,x,5,x,0.4877196000006734,1,41,test2,3,0.4878350999997565,-50.0
4,yyq,f,18,r,2,(121.76378772032346, -121.76378772032352),28,-25,14,yes,x,5,x,0.4146602000000712,1,42,test2,3,0.41476090000014665,-70.0
4,yyq,f,18,r,2,(-121.76378772032348, 121.76378772032349),24,-3,11,no,m,6,m,0.8148750000000291,1,43,test2,3,0.8150804999995671,-70.0
4,yyq,f,18,r,2,(121.76378772032346, -121.76378772032352),28,7,3,yes,x,5,x,0.4938895000004777,1,44,test2,3,0.4939903999993476,-38.0
4,yyq,f,18,r,2,(121.76378772032346, -121.76378772032352),28,-3,11,yes,x,5,m,0.6238139999995838,0,45,test2,3,0.6239126999998916,-48.0
4,yyq,f,18,r,2,(121.76378772032346, -121.76378772032352),28,-25,14,no,m,6,m,0.5315072000003056,1,46,test2,3,0.5316849999999249,-48.0
4,yyq,f,18,r,2,(172.20000000000002, 0.0),21,-25,14,yes,x,5,x,0.421055100000558,1,47,test2,3,0.42125190000024304,-70.0
4,yyq,f,18,r,2,(-121.76378772032352, -121.76378772032348),26,-5,12,no,m,6,x,0.5011858999996548,0,48,test2,3,0.5014154000000417,-70.0
4,yyq,f,18,r,2,(121.76378772032346, -121.76378772032352),28,-5,12,yes,x,5,x,0.5696680999999444,1,49,test2,3,0.5697928999998112,-50.0
4,yyq,f,18,r,2,(-3.163262682197613e-14, -172.20000000000002),27,-25,14,yes,x,5,x,0.481229699999858,1,50,test2,3,0.4815244999999777,-70.0
4,yyq,f,18,r,2,(-121.76378772032348, 121.76378772032349),24,7,3,yes,x,5,x,0.3943417000000409,1,51,test2,3,0.39446349999980157,-38.0
4,yyq,f,18,r,2,(-121.76378772032352, -121.76378772032348),26,-7,13,no,m,6,x,0.5118123000002015,0,52,test2,3,0.5123266000000513,-38.0
4,yyq,f,18,r,2,(172.20000000000002, 0.0),21,3,1,yes,x,5,x,0.5827235999995537,1,53,test2,3,0.5828217999996923,-42.0
4,yyq,f,18,r,2,(-121.76378772032348, 121.76378772032349),24,-7,13,yes,x,5,x,0.8682570000000851,1,54,test2,3,0.8684014000000388,-52.0
4,yyq,f,18,r,2,(1.0544208940658713e-14, 172.20000000000002),23,5,2,yes,x,5,x,0.5779953000001115,1,55,test2,3,0.578173699999752,-40.0
4,yyq,f,18,r,2,(172.20000000000002, 0.0),21,-5,12,yes,x,5,m,0.6678528000002188,0,56,test2,3,0.6687309999997524,-50.0
4,yyq,f,18,r,2,(1.0544208940658713e-14, 172.20000000000002),23,-25,14,yes,x,5,x,0.38888500000030035,1,57,test2,3,0.38898779999999533,-70.0
4,yyq,f,18,r,2,(121.76378772032349, 121.76378772032349),22,-7,13,yes,x,5,x,0.46588359999987006,1,58,test2,3,0.46638609999990877,-52.0
4,yyq,f,18,r,2,(121.76378772032349, 121.76378772032349),22,-25,14,yes,x,5,x,0.3103749000001699,1,59,test2,3,0.3105051000002277,-70.0
4,yyq,f,18,r,2,(-121.76378772032348, 121.76378772032349),24,5,2,no,m,6,m,0.5258765999997195,1,60,test2,3,0.5260922999996183,-70.0
4,yyq,f,18,r,2,(121.76378772032349, 121.76378772032349),22,-5,12,yes,x,5,x,0.4844751999999062,1,61,test2,3,0.4848117999999886,-50.0
4,yyq,f,18,r,2,(1.0544208940658713e-14, 172.20000000000002),23,3,1,no,m,6,m,0.5731273000001238,1,62,test2,3,0.5732519999992292,-50.0
4,yyq,f,18,r,2,(-121.76378772032348, 121.76378772032349),24,3,1,yes,x,5,m,0.550366500000564,0,63,test2,3,0.5504793999998583,-42.0
4,yyq,f,18,r,2,(-3.163262682197613e-14, -172.20000000000002),27,-25,14,yes,x,5,x,0.5138052000002062,1,64,test2,3,0.5138992000001963,-70.0
4,yyq,f,18,r,2,(121.76378772032349, 121.76378772032349),22,3,1,yes,x,5,m,0.7585880000006,0,65,test2,3,0.7588020999992295,-42.0
4,yyq,f,18,r,2,(-121.76378772032348, 121.76378772032349),24,25,4,no,m,6,m,0.6364405000003899,1,66,test2,3,0.6369336000007024,-42.0
4,yyq,f,18,r,2,(121.76378772032349, 121.76378772032349),22,-3,11,yes,x,5,m,1.025726400000167,0,67,test2,3,1.026060499999403,-48.0
4,yyq,f,18,r,2,(172.20000000000002, 0.0),21,3,1,yes,x,5,x,0.6417262000004484,1,68,test2,3,0.6418503000004421,-42.0
4,yyq,f,18,r,2,(1.0544208940658713e-14, 172.20000000000002),23,-5,12,no,m,6,m,0.6529356999999436,1,69,test2,3,0.6531193999999232,-42.0
4,yyq,f,18,r,2,(-3.163262682197613e-14, -172.20000000000002),27,3,1,yes,x,5,m,0.7304022000007535,0,70,test2,3,0.7305966000003536,-42.0
4,yyq,f,18,r,2,(121.76378772032346, -121.76378772032352),28,25,4,yes,x,5,x,0.4475902000003771,1,71,test2,3,0.4477119000002858,-20.0
4,yyq,f,18,r,2,(-3.163262682197613e-14, -172.20000000000002),27,-25,14,no,m,6,m,0.6286399999999048,1,72,test2,3,0.6288924999998926,-20.0
4,yyq,f,18,r,2,(121.76378772032349, 121.76378772032349),22,7,3,yes,x,5,x,0.5919716999997036,1,73,test2,3,0.5921266999994259,-38.0
4,yyq,f,18,r,2,(-121.76378772032352, -121.76378772032348),26,3,1,yes,x,5,m,0.7008600999997725,0,74,test2,3,0.7010718000001361,-42.0
4,yyq,f,18,r,2,(-3.163262682197613e-14, -172.20000000000002),27,25,4,yes,x,5,x,0.4334532000002582,1,75,test2,3,0.43390009999984613,-20.0
4,yyq,f,18,r,2,(121.76378772032346, -121.76378772032352),28,-7,13,yes,x,5,x,0.6554591000003711,1,76,test2,3,0.6560656000001472,-52.0
4,yyq,f,18,r,2,(-121.76378772032348, 121.76378772032349),24,7,3,yes,x,5,x,0.7898174000001745,1,77,test2,3,0.7900439000004553,-38.0
4,yyq,f,18,r,2,(-121.76378772032348, 121.76378772032349),24,25,4,yes,x,5,x,0.5367190999995728,1,78,test2,3,0.5371359000000666,-20.0
4,yyq,f,18,r,2,(-121.76378772032352, -121.76378772032348),26,-5,12,yes,x,5,m,0.6255127000003995,0,79,test2,3,0.6258834000000206,-50.0
4,yyq,f,18,r,2,(1.0544208940658713e-14, 172.20000000000002),23,7,3,no,m,6,m,0.8533897999996043,1,80,test2,3,0.8538754000001063,-50.0
4,yyq,f,18,r,2,(1.0544208940658713e-14, 172.20000000000002),23,-7,13,no,m,6,m,0.5379916000001685,1,81,test2,3,0.5382755999999063,-50.0
4,yyq,f,18,r,2,(121.76378772032349, 121.76378772032349),22,-25,14,no,m,6,m,0.5379023000004963,1,82,test2,3,0.5380232000006799,-50.0
4,yyq,f,18,r,2,(1.0544208940658713e-14, 172.20000000000002),23,-5,12,yes,x,5,x,0.4588774999992893,1,83,test2,3,0.4590945999998439,-50.0
4,yyq,f,18,r,2,(121.76378772032346, -121.76378772032352),28,25,4,yes,x,5,x,0.3538080999996964,1,84,test2,3,0.35403839999980846,-20.0
4,yyq,f,18,r,2,(-172.20000000000002, 2.1088417881317425e-14),25,-25,14,no,m,6,x,0.37443809999967925,0,85,test2,3,0.37512409999999363,-20.0
4,yyq,f,18,r,2,(1.0544208940658713e-14, 172.20000000000002),23,3,1,yes,x,5,x,0.5956900000001042,1,86,test2,3,0.5957926999999472,-42.0
4,yyq,f,18,r,2,(-3.163262682197613e-14, -172.20000000000002),27,-5,12,no,m,6,m,0.7510025999999925,1,87,test2,3,0.7512397000000419,-42.0
4,yyq,f,18,r,2,(-121.76378772032348, 121.76378772032349),24,5,2,yes,x,5,x,0.49527649999981804,1,88,test2,3,0.49569789999986824,-40.0
4,yyq,f,18,r,2,(1.0544208940658713e-14, 172.20000000000002),23,-5,12,yes,x,5,x,0.42119430000002467,1,89,test2,3,0.4217544999992242,-50.0
4,yyq,f,18,r,2,(121.76378772032346, -121.76378772032352),28,-25,14,yes,x,5,x,0.37928180000017164,1,90,test2,3,0.37962289999995846,-70.0
4,yyq,f,18,r,2,(172.20000000000002, 0.0),21,3,1,no,m,6,m,0.5766992000008031,1,91,test2,3,0.5768301999996766,-70.0
4,yyq,f,18,r,2,(172.20000000000002, 0.0),21,-25,14,no,m,6,m,1.125412100000176,1,92,test2,3,1.125651100000141,-70.0
4,yyq,f,18,r,2,(1.0544208940658713e-14, 172.20000000000002),23,5,2,yes,x,5,m,0.9411805999998251,0,93,test2,3,0.9414013999994495,-40.0
4,yyq,f,18,r,2,(-121.76378772032348, 121.76378772032349),24,-5,12,no,m,6,m,1.019145799999933,1,94,test2,3,1.0192758000002868,-40.0
4,yyq,f,18,r,2,(-172.20000000000002, 2.1088417881317425e-14),25,7,3,yes,x,5,x,0.8425509999997303,1,95,test2,3,0.8430071000002499,-38.0
4,yyq,f,18,r,2,(-121.76378772032352, -121.76378772032348),26,-25,14,no,m,6,m,0.6455347000000984,1,96,test2,3,0.6460111999995206,-38.0
4,yyq,f,18,r,2,(1.0544208940658713e-14, 172.20000000000002),23,-3,11,no,m,6,m,0.5676295999992362,1,1,test1,4,0.5677347000000736,-38.0
4,yyq,f,18,r,2,(1.0544208940658713e-14, 172.20000000000002),23,-25,14,no,m,6,m,0.6811420999993061,1,2,test1,4,0.6815212999999858,-38.0
4,yyq,f,18,r,2,(-121.76378772032348, 121.76378772032349),24,25,4,yes,x,5,x,0.3775148000004265,1,3,test1,4,0.37761370000043826,-20.0
4,yyq,f,18,r,2,(172.20000000000002, 0.0),21,25,4,yes,x,5,x,0.3858784000003652,1,4,test1,4,0.38606930000059947,-20.0
4,yyq,f,18,r,2,(1.0544208940658713e-14, 172.20000000000002),23,-7,13,yes,x,5,m,0.44855050000023766,0,5,test1,4,0.44878719999996974,-52.0
4,yyq,f,18,r,2,(172.20000000000002, 0.0),21,25,4,yes,x,5,x,0.3962922000000617,1,6,test1,4,0.39675379999971483,-20.0
4,yyq,f,18,r,2,(172.20000000000002, 0.0),21,7,3,yes,x,5,x,0.6724205000000438,1,7,test1,4,0.672899299999699,-38.0
4,yyq,f,18,r,2,(1.0544208940658713e-14, 172.20000000000002),23,-3,11,yes,x,5,m,0.6857494999994742,0,8,test1,4,0.6859028999997463,-48.0
4,yyq,f,18,r,2,(-121.76378772032348, 121.76378772032349),24,-25,14,yes,x,5,x,0.3754884999998467,1,9,test1,4,0.3757017000007181,-70.0
4,yyq,f,18,r,2,(172.20000000000002, 0.0),21,-7,13,no,m,6,m,0.6541149000004225,1,10,test1,4,0.6543308000000252,-70.0
4,yyq,f,18,r,2,(-121.76378772032348, 121.76378772032349),24,-7,13,no,m,6,m,0.6592025000009016,1,11,test1,4,0.6593603000001167,-70.0
4,yyq,f,18,r,2,(121.76378772032346, -121.76378772032352),28,-5,12,no,m,6,m,0.5803537000001597,1,12,test1,4,0.5804943000002822,-70.0
4,yyq,f,18,r,2,(-172.20000000000002, 2.1088417881317425e-14),25,25,4,yes,x,5,x,0.5395406999996339,1,13,test1,4,0.5397739000000001,-20.0
4,yyq,f,18,r,2,(121.76378772032349, 121.76378772032349),22,3,1,no,m,6,m,0.5975261000003229,1,14,test1,4,0.5977403999995659,-20.0
4,yyq,f,18,r,2,(-121.76378772032352, -121.76378772032348),26,7,3,no,m,6,m,0.5217635999997583,1,15,test1,4,0.5218912999998793,-20.0
4,yyq,f,18,r,2,(1.0544208940658713e-14, 172.20000000000002),23,-25,14,yes,x,5,x,0.44493229999989126,1,16,test1,4,0.44516359999943234,-70.0
4,yyq,f,18,r,2,(-121.76378772032348, 121.76378772032349),24,-25,14,yes,x,5,x,0.700847199999771,1,17,test1,4,0.7009993000001487,-70.0
4,yyq,f,18,r,2,(121.76378772032349, 121.76378772032349),22,3,1,yes,x,5,m,0.872896199999559,0,18,test1,4,0.8730139999997846,-42.0
4,yyq,f,18,r,2,(1.0544208940658713e-14, 172.20000000000002),23,-7,13,yes,x,5,x,0.5404288999998244,1,19,test1,4,0.5405338999999003,-52.0
4,yyq,f,18,r,2,(-121.76378772032352, -121.76378772032348),26,25,4,yes,x,5,m,0.6044050000000425,0,20,test1,4,0.6045350999993389,-20.0
4,yyq,f,18,r,2,(1.0544208940658713e-14, 172.20000000000002),23,25,4,yes,x,5,x,0.42735350000020844,1,21,test1,4,0.42747069999950327,-20.0
4,yyq,f,18,r,2,(-172.20000000000002, 2.1088417881317425e-14),25,7,3,no,m,6,m,0.7183719000004203,1,22,test1,4,0.718504500000563,-20.0
4,yyq,f,18,r,2,(121.76378772032349, 121.76378772032349),22,25,4,yes,x,5,x,0.9191670000000158,1,23,test1,4,0.9192912999997134,-20.0
4,yyq,f,18,r,2,(-172.20000000000002, 2.1088417881317425e-14),25,-5,12,yes,x,5,m,0.7849544999999125,0,24,test1,4,0.7853617999999187,-50.0
4,yyq,f,18,r,2,(121.76378772032346, -121.76378772032352),28,3,1,yes,x,5,m,0.4942369000000326,0,25,test1,4,0.49460410000028787,-42.0
4,yyq,f,18,r,2,(-3.163262682197613e-14, -172.20000000000002),27,-3,11,no,m,6,m,0.5814532000003965,1,26,test1,4,0.5816451999999117,-42.0
4,yyq,f,18,r,2,(-3.163262682197613e-14, -172.20000000000002),27,-5,12,yes,x,5,x,0.40664600000036444,1,27,test1,4,0.40680969999993977,-50.0
4,yyq,f,18,r,2,(-172.20000000000002, 2.1088417881317425e-14),25,5,2,yes,x,5,x,0.39188649999960035,1,28,test1,4,0.3924812999994174,-40.0
4,yyq,f,18,r,2,(121.76378772032346, -121.76378772032352),28,5,2,yes,x,5,x,0.5184046000003946,1,29,test1,4,0.5185166000001118,-40.0
4,yyq,f,18,r,2,(-121.76378772032352, -121.76378772032348),26,-7,13,yes,x,5,m,0.848687599999721,0,30,test1,4,0.848951599999964,-52.0
4,yyq,f,18,r,2,(172.20000000000002, 0.0),21,-7,13,yes,x,5,x,0.5096770999998625,1,31,test1,4,0.5098803000000771,-52.0
4,yyq,f,18,r,2,(121.76378772032349, 121.76378772032349),22,25,4,yes,x,5,x,0.4057639000002382,1,32,test1,4,0.40586999999959517,-20.0
4,yyq,f,18,r,2,(-172.20000000000002, 2.1088417881317425e-14),25,-5,12,yes,x,5,x,0.5183764000003066,1,33,test1,4,0.5185590000000957,-50.0
4,yyq,f,18,r,2,(1.0544208940658713e-14, 172.20000000000002),23,7,3,yes,x,5,m,0.6761169999999765,0,34,test1,4,0.6762300999998843,-38.0
4,yyq,f,18,r,2,(-3.163262682197613e-14, -172.20000000000002),27,-7,13,yes,x,5,m,0.7357493000008617,0,35,test1,4,0.7359216999993805,-52.0
4,yyq,f,18,r,2,(-121.76378772032348, 121.76378772032349),24,-3,11,yes,x,5,x,0.797921000000315,1,36,test1,4,0.7984076999991885,-48.0
4,yyq,f,18,r,2,(-172.20000000000002, 2.1088417881317425e-14),25,25,4,no,m,6,m,0.6374300999996194,1,37,test1,4,0.6376628999996683,-48.0
4,yyq,f,18,r,2,(-121.76378772032352, -121.76378772032348),26,-3,11,yes,x,5,m,0.6306361000006291,0,38,test1,4,0.6307524999992893,-48.0
4,yyq,f,18,r,2,(-172.20000000000002, 2.1088417881317425e-14),25,-3,11,no,m,6,m,0.7083468999999241,1,39,test1,4,0.7088155999999799,-48.0
4,yyq,f,18,r,2,(-172.20000000000002, 2.1088417881317425e-14),25,7,3,yes,x,5,m,0.9861233000001448,0,40,test1,4,0.9862936999998055,-38.0
4,yyq,f,18,r,2,(121.76378772032349, 121.76378772032349),22,7,3,yes,x,5,x,0.5518478000003597,1,41,test1,4,0.5522933000002013,-38.0
4,yyq,f,18,r,2,(-172.20000000000002, 2.1088417881317425e-14),25,3,1,yes,x,5,m,0.834715299999516,0,42,test1,4,0.8353864999999132,-42.0
4,yyq,f,18,r,2,(1.0544208940658713e-14, 172.20000000000002),23,25,4,no,m,6,m,0.5624981000000844,1,43,test1,4,0.5629563000002236,-42.0
4,yyq,f,18,r,2,(121.76378772032349, 121.76378772032349),22,-3,11,yes,x,5,x,0.5435806000004959,1,44,test1,4,0.5439695999994001,-48.0
4,yyq,f,18,r,2,(172.20000000000002, 0.0),21,25,4,no,m,6,x,0.5518867999999202,0,45,test1,4,0.5520178000006126,-48.0
4,yyq,f,18,r,2,(-172.20000000000002, 2.1088417881317425e-14),25,3,1,no,m,6,x,0.5622998999997435,0,46,test1,4,0.5624163000002227,-48.0
4,yyq,f,18,r,2,(121.76378772032346, -121.76378772032352),28,3,1,no,m,6,x,0.4395636999997805,0,47,test1,4,0.43979510000008304,-48.0
4,yyq,f,18,r,2,(121.76378772032346, -121.76378772032352),28,5,2,yes,x,5,m,0.6227169000003414,0,48,test1,4,0.6229667999996309,-40.0
4,yyq,f,18,r,2,(-121.76378772032352, -121.76378772032348),26,25,4,no,m,6,x,0.6611798000003546,0,49,test1,4,0.6614945999999691,-40.0
4,yyq,f,18,r,2,(-3.163262682197613e-14, -172.20000000000002),27,5,2,yes,x,5,x,0.47617020000052435,1,50,test1,4,0.47640449999926204,-40.0
4,yyq,f,18,r,2,(-121.76378772032348, 121.76378772032349),24,-5,12,yes,x,5,x,0.6417466000002605,1,51,test1,4,0.6421024999999645,-50.0
4,yyq,f,18,r,2,(-3.163262682197613e-14, -172.20000000000002),27,7,3,yes,x,5,x,0.7403362000004563,1,52,test1,4,0.7405189999999493,-38.0
4,yyq,f,18,r,2,(-3.163262682197613e-14, -172.20000000000002),27,7,3,no,m,6,x,0.8788893000000826,0,53,test1,4,0.8795425999996951,-38.0
4,yyq,f,18,r,2,(-3.163262682197613e-14, -172.20000000000002),27,3,1,no,m,6,m,0.814547599999969,1,54,test1,4,0.8147788000005676,-38.0
4,yyq,f,18,r,2,(-121.76378772032352, -121.76378772032348),26,-3,11,yes,x,5,x,0.7929139999996551,1,55,test1,4,0.793155399999705,-48.0
4,yyq,f,18,r,2,(-3.163262682197613e-14, -172.20000000000002),27,25,4,no,m,6,m,1.0365723000004436,1,56,test1,4,1.0367691000001287,-48.0
4,yyq,f,18,r,2,(121.76378772032346, -121.76378772032352),28,7,3,no,m,6,x,0.779059800000141,0,57,test1,4,0.7791606000000684,-48.0
4,yyq,f,18,r,2,(-121.76378772032348, 121.76378772032349),24,3,1,no,m,6,m,0.8570682999998098,1,58,test1,4,0.8572818000002371,-48.0
4,yyq,f,18,r,2,(121.76378772032349, 121.76378772032349),22,5,2,no,m,6,x,0.7212231000003158,0,59,test1,4,0.7213542999998026,-48.0
4,yyq,f,18,r,2,(172.20000000000002, 0.0),21,7,3,no,m,6,m,0.6933530999995128,1,60,test1,4,0.6934851000005438,-48.0
4,yyq,f,18,r,2,(-121.76378772032348, 121.76378772032349),24,-25,14,no,m,6,m,0.6034539000002042,1,61,test1,4,0.6035531000006813,-48.0
4,yyq,f,18,r,2,(-121.76378772032348, 121.76378772032349),24,5,2,yes,x,5,x,0.5326807999999801,1,62,test1,4,0.5327834999998231,-40.0
4,yyq,f,18,r,2,(-121.76378772032348, 121.76378772032349),24,-3,11,yes,x,5,x,0.7787225000001854,1,63,test1,4,0.7794732000002114,-48.0
4,yyq,f,18,r,2,(-172.20000000000002, 2.1088417881317425e-14),25,-25,14,yes,x,5,x,0.9051238000001831,1,64,test1,4,0.9057309999998324,-70.0
4,yyq,f,18,r,2,(-172.20000000000002, 2.1088417881317425e-14),25,-7,13,yes,x,5,x,0.8431972999997015,1,65,test1,4,0.8436160000001109,-52.0
4,yyq,f,18,r,2,(172.20000000000002, 0.0),21,-3,11,yes,x,5,x,0.7514100999997027,1,66,test1,4,0.7516443000004074,-48.0
4,yyq,f,18,r,2,(121.76378772032346, -121.76378772032352),28,25,4,no,m,6,m,0.8266998999997668,1,67,test1,4,0.8268018999997366,-48.0
4,yyq,f,18,r,2,(-121.76378772032352, -121.76378772032348),26,25,4,yes,x,5,x,0.7805945000000065,1,68,test1,4,0.7809578000005786,-20.0
4,yyq,f,18,r,2,(121.76378772032346, -121.76378772032352),28,7,3,yes,x,5,None,None,0,69,test1,4,1.9800943000000188,-38.0
4,yyq,f,18,r,2,(-121.76378772032348, 121.76378772032349),24,7,3,no,m,6,m,0.6275641000001997,1,70,test1,4,0.6278290000000197,-38.0
4,yyq,f,18,r,2,(-121.76378772032352, -121.76378772032348),26,-25,14,yes,x,5,x,0.3883501999998771,1,71,test1,4,0.3884561999993821,-70.0
4,yyq,f,18,r,2,(121.76378772032346, -121.76378772032352),28,-3,11,yes,x,5,m,0.5903926000000865,0,72,test1,4,0.5905203000002075,-48.0
4,yyq,f,18,r,2,(-121.76378772032352, -121.76378772032348),26,3,1,no,m,6,x,0.03531999999995605,0,73,test1,4,0.03554739999981393,-48.0
4,yyq,f,18,r,2,(-121.76378772032352, -121.76378772032348),26,5,2,yes,x,5,x,0.5595321000000695,1,74,test1,4,0.559667200000149,-40.0
4,yyq,f,18,r,2,(-172.20000000000002, 2.1088417881317425e-14),25,3,1,yes,x,5,x,0.5511052000001655,1,75,test1,4,0.5513165000002118,-42.0
4,yyq,f,18,r,2,(121.76378772032349, 121.76378772032349),22,5,2,yes,x,5,x,0.7175251999997272,1,76,test1,4,0.7177012000001923,-40.0
4,yyq,f,18,r,2,(-172.20000000000002, 2.1088417881317425e-14),25,5,2,no,m,6,m,1.1066381000000547,1,77,test1,4,1.1067447000004904,-40.0
4,yyq,f,18,r,2,(121.76378772032346, -121.76378772032352),28,-5,12,yes,x,5,x,1.03106519999983,1,78,test1,4,1.0311627999999473,-50.0
4,yyq,f,18,r,2,(-121.76378772032352, -121.76378772032348),26,5,2,no,m,6,m,0.7238386999997601,1,79,test1,4,0.7241249999997308,-50.0
4,yyq,f,18,r,2,(172.20000000000002, 0.0),21,5,2,no,m,6,x,0.6785680000002685,0,80,test1,4,0.67869889999929,-50.0
4,yyq,f,18,r,2,(121.76378772032349, 121.76378772032349),22,-5,12,yes,x,5,m,0.40284559999963676,0,81,test1,4,0.40305760000046575,-50.0
4,yyq,f,18,r,2,(121.76378772032349, 121.76378772032349),22,-25,14,yes,x,5,x,0.4055819999994128,1,82,test1,4,0.4058125999999902,-70.0
4,yyq,f,18,r,2,(172.20000000000002, 0.0),21,-5,12,yes,x,5,x,0.4278629999998884,1,83,test1,4,0.4281868999996732,-50.0
4,yyq,f,18,r,2,(1.0544208940658713e-14, 172.20000000000002),23,7,3,yes,x,5,x,0.46627780000017083,1,84,test1,4,0.46640690000003815,-38.0
4,yyq,f,18,r,2,(172.20000000000002, 0.0),21,-7,13,yes,x,5,x,0.3561458999993192,1,85,test1,4,0.35681840000052034,-52.0
4,yyq,f,18,r,2,(-121.76378772032352, -121.76378772032348),26,5,2,yes,x,5,x,0.5583030999996481,1,86,test1,4,0.5584257000000434,-40.0
4,yyq,f,18,r,2,(-121.76378772032348, 121.76378772032349),24,-7,13,yes,x,5,x,0.820764699999927,1,87,test1,4,0.8208581999997477,-52.0
4,yyq,f,18,r,2,(1.0544208940658713e-14, 172.20000000000002),23,5,2,no,m,6,m,0.6667403000001286,1,88,test1,4,0.6675116999995225,-52.0
4,yyq,f,18,r,2,(-172.20000000000002, 2.1088417881317425e-14),25,5,2,yes,x,5,x,0.9723038000001907,1,89,test1,4,0.9724949999999808,-40.0
4,yyq,f,18,r,2,(-3.163262682197613e-14, -172.20000000000002),27,-7,13,no,m,6,m,0.9438927999999578,1,90,test1,4,0.9439936999997371,-40.0
4,yyq,f,18,r,2,(-3.163262682197613e-14, -172.20000000000002),27,5,2,yes,x,5,m,1.1630895999996937,0,91,test1,4,1.163386699999137,-40.0
4,yyq,f,18,r,2,(-3.163262682197613e-14, -172.20000000000002),27,5,2,no,m,6,m,0.6357760000000781,1,92,test1,4,0.6358762999998362,-40.0
4,yyq,f,18,r,2,(172.20000000000002, 0.0),21,5,2,yes,x,5,x,0.5258822999994663,1,93,test1,4,0.5260499000005439,-40.0
4,yyq,f,18,r,2,(-172.20000000000002, 2.1088417881317425e-14),25,-25,14,yes,x,5,m,1.6071977000001425,0,94,test1,4,1.6074257000000216,-70.0
4,yyq,f,18,r,2,(-172.20000000000002, 2.1088417881317425e-14),25,-7,13,no,m,6,m,0.7142810000004829,1,95,test1,4,0.7144546999998056,-70.0
4,yyq,f,18,r,2,(121.76378772032346, -121.76378772032352),28,5,2,no,m,6,m,0.5925373000000036,1,96,test1,4,0.5927898999998433,-70.0
4,yyq,f,18,r,2,(1.0544208940658713e-14, 172.20000000000002),23,25,4,yes,x,5,x,0.3676939000006314,1,1,test2,4,0.3679863999996087,-20.0
4,yyq,f,18,r,2,(-121.76378772032352, -121.76378772032348),26,-5,12,yes,x,5,x,0.5157902000000831,1,2,test2,4,0.5159001000001808,-50.0
4,yyq,f,18,r,2,(172.20000000000002, 0.0),21,7,3,yes,x,5,x,0.4649971999997433,1,3,test2,4,0.4652067999995779,-38.0
4,yyq,f,18,r,2,(-3.163262682197613e-14, -172.20000000000002),27,3,1,yes,x,5,x,0.505377700000281,1,4,test2,4,0.5057279000002382,-42.0
4,yyq,f,18,r,2,(-3.163262682197613e-14, -172.20000000000002),27,-3,11,yes,x,5,x,0.36463849999927334,1,5,test2,4,0.364875000000211,-48.0
4,yyq,f,18,r,2,(121.76378772032349, 121.76378772032349),22,-5,12,no,m,6,x,0.3904643000005308,0,6,test2,4,0.390698600000178,-48.0
4,yyq,f,18,r,2,(121.76378772032346, -121.76378772032352),28,-7,13,no,m,6,m,0.5216242999995302,1,7,test2,4,0.5219285000002856,-48.0
4,yyq,f,18,r,2,(121.76378772032349, 121.76378772032349),22,5,2,yes,x,5,x,0.35857470000064495,1,8,test2,4,0.3586740999999165,-40.0
4,yyq,f,18,r,2,(121.76378772032346, -121.76378772032352),28,-3,11,no,m,6,m,0.4914547999997012,1,9,test2,4,0.4916600999995353,-40.0
4,yyq,f,18,r,2,(172.20000000000002, 0.0),21,-25,14,yes,x,5,x,0.4255256999995254,1,10,test2,4,0.4258497000000716,-70.0
4,yyq,f,18,r,2,(-3.163262682197613e-14, -172.20000000000002),27,7,3,yes,x,5,x,0.40101709999999,1,11,test2,4,0.4013027000000875,-38.0
4,yyq,f,18,r,2,(-172.20000000000002, 2.1088417881317425e-14),25,-5,12,no,m,6,x,0.41528740000012476,0,12,test2,4,0.4156044999999722,-38.0
4,yyq,f,18,r,2,(172.20000000000002, 0.0),21,-3,11,no,m,6,m,0.6312849000005372,1,13,test2,4,0.6314599000006638,-38.0
4,yyq,f,18,r,2,(-121.76378772032352, -121.76378772032348),26,-3,11,no,m,6,x,0.6051766000000498,0,14,test2,4,0.6052730999999767,-38.0
4,yyq,f,18,r,2,(-121.76378772032352, -121.76378772032348),26,3,1,yes,x,5,m,0.5704987999997684,0,15,test2,4,0.5706411999999546,-42.0
4,yyq,f,18,r,2,(-172.20000000000002, 2.1088417881317425e-14),25,-3,11,yes,x,5,x,0.4448548000000301,1,16,test2,4,0.4449924999998984,-48.0
4,yyq,f,18,r,2,(121.76378772032346, -121.76378772032352),28,-7,13,yes,x,5,x,0.4394150999996782,1,17,test2,4,0.4397140999999465,-52.0
4,yyq,f,18,r,2,(-121.76378772032352, -121.76378772032348),26,-7,13,yes,x,5,x,0.3667525000000751,1,18,test2,4,0.3669179999997141,-52.0
4,yyq,f,18,r,2,(-172.20000000000002, 2.1088417881317425e-14),25,-7,13,yes,x,5,x,0.3601214999998774,1,19,test2,4,0.3602452999994057,-52.0
4,yyq,f,18,r,2,(121.76378772032349, 121.76378772032349),22,-7,13,yes,x,5,x,0.34978549999959796,1,20,test2,4,0.3499331000002712,-52.0
4,yyq,f,18,r,2,(172.20000000000002, 0.0),21,5,2,yes,x,5,x,0.34986730000036914,1,21,test2,4,0.35024519999933545,-40.0
4,yyq,f,18,r,2,(-3.163262682197613e-14, -172.20000000000002),27,-3,11,yes,x,5,x,0.3875626999997621,1,22,test2,4,0.3876596999998583,-48.0
4,yyq,f,18,r,2,(121.76378772032346, -121.76378772032352),28,3,1,yes,x,5,x,0.39376110000011977,1,23,test2,4,0.3943074999997407,-42.0
4,yyq,f,18,r,2,(121.76378772032349, 121.76378772032349),22,7,3,no,m,6,x,0.41191519999938464,0,24,test2,4,0.41242980000060925,-42.0
4,yyq,f,18,r,2,(-121.76378772032352, -121.76378772032348),26,7,3,yes,x,5,x,0.34561180000036984,1,25,test2,4,0.34572539999953733,-38.0
4,yyq,f,18,r,2,(-3.163262682197613e-14, -172.20000000000002),27,-5,12,yes,x,5,x,0.473229000000174,1,26,test2,4,0.47363039999981993,-50.0
4,yyq,f,18,r,2,(-121.76378772032352, -121.76378772032348),26,7,3,yes,x,5,x,0.5267760000006092,1,27,test2,4,0.5273273000002519,-38.0
4,yyq,f,18,r,2,(172.20000000000002, 0.0),21,-3,11,yes,x,5,x,0.5367200000000594,1,28,test2,4,0.5373988000001191,-48.0
4,yyq,f,18,r,2,(-3.163262682197613e-14, -172.20000000000002),27,25,4,yes,x,5,x,0.4219935000000987,1,29,test2,4,0.42222190000029514,-20.0
4,yyq,f,18,r,2,(172.20000000000002, 0.0),21,-5,12,no,m,6,x,0.4307926999999836,0,30,test2,4,0.4308897999999317,-20.0
4,yyq,f,18,r,2,(-121.76378772032352, -121.76378772032348),26,-25,14,yes,x,5,x,0.44497039999987464,1,31,test2,4,0.4454561000002286,-70.0
4,yyq,f,18,r,2,(-172.20000000000002, 2.1088417881317425e-14),25,25,4,yes,x,5,x,0.4319515999995929,1,32,test2,4,0.4321004000003086,-20.0
4,yyq,f,18,r,2,(121.76378772032349, 121.76378772032349),22,-3,11,no,m,6,m,0.634319100000539,1,33,test2,4,0.6344331999998758,-20.0
4,yyq,f,18,r,2,(121.76378772032349, 121.76378772032349),22,-7,13,no,m,6,x,0.4672872000001007,0,34,test2,4,0.4674230999999054,-20.0
4,yyq,f,18,r,2,(-172.20000000000002, 2.1088417881317425e-14),25,-3,11,yes,x,5,x,0.5267296000001807,1,35,test2,4,0.5268257999996422,-48.0
4,yyq,f,18,r,2,(1.0544208940658713e-14, 172.20000000000002),23,-3,11,yes,x,5,m,0.527295600000798,0,36,test2,4,0.5273932999998578,-48.0
4,yyq,f,18,r,2,(121.76378772032349, 121.76378772032349),22,25,4,no,m,6,m,0.5334831999998642,1,37,test2,4,0.5337487999995574,-48.0
4,yyq,f,18,r,2,(-3.163262682197613e-14, -172.20000000000002),27,-7,13,yes,x,5,x,0.4069013999996969,1,38,test2,4,0.4070577000002231,-52.0
4,yyq,f,18,r,2,(-121.76378772032348, 121.76378772032349),24,3,1,yes,x,5,x,0.7097816999994393,1,39,test2,4,0.7098767999996198,-42.0
4,yyq,f,18,r,2,(1.0544208940658713e-14, 172.20000000000002),23,3,1,yes,x,5,x,0.6563046999999642,1,40,test2,4,0.6565925999993851,-42.0
4,yyq,f,18,r,2,(-121.76378772032348, 121.76378772032349),24,-5,12,yes,x,5,x,0.4762751999996908,1,41,test2,4,0.4765853999997489,-50.0
4,yyq,f,18,r,2,(121.76378772032346, -121.76378772032352),28,-25,14,yes,x,5,x,0.4234292999999525,1,42,test2,4,0.4235541000007288,-70.0
4,yyq,f,18,r,2,(-121.76378772032348, 121.76378772032349),24,-3,11,no,m,6,m,0.5069414000008692,1,43,test2,4,0.5072276999999303,-70.0
4,yyq,f,18,r,2,(121.76378772032346, -121.76378772032352),28,7,3,yes,x,5,x,0.3999318000005587,1,44,test2,4,0.4000907999998162,-38.0
4,yyq,f,18,r,2,(121.76378772032346, -121.76378772032352),28,-3,11,yes,x,5,x,0.38620949999949516,1,45,test2,4,0.38648749999993015,-48.0
4,yyq,f,18,r,2,(121.76378772032346, -121.76378772032352),28,-25,14,no,m,6,m,0.6110067999998137,1,46,test2,4,0.6116196999992098,-48.0
4,yyq,f,18,r,2,(172.20000000000002, 0.0),21,-25,14,yes,x,5,x,0.43688680000013846,1,47,test2,4,0.43711119999989023,-70.0
4,yyq,f,18,r,2,(-121.76378772032352, -121.76378772032348),26,-5,12,no,m,6,m,0.5476009000003614,1,48,test2,4,0.5476953999996113,-70.0
4,yyq,f,18,r,2,(121.76378772032346, -121.76378772032352),28,-5,12,yes,x,5,x,0.41550399999960064,1,49,test2,4,0.415959599999951,-50.0
4,yyq,f,18,r,2,(-3.163262682197613e-14, -172.20000000000002),27,-25,14,yes,x,5,x,0.374906999999439,1,50,test2,4,0.3750191999997696,-70.0
4,yyq,f,18,r,2,(-121.76378772032348, 121.76378772032349),24,7,3,yes,x,5,x,0.451951399999416,1,51,test2,4,0.4521912999998676,-38.0
4,yyq,f,18,r,2,(-121.76378772032352, -121.76378772032348),26,-7,13,no,m,6,m,0.6538198000007469,1,52,test2,4,0.6539230999997017,-38.0
4,yyq,f,18,r,2,(172.20000000000002, 0.0),21,3,1,yes,x,5,m,0.6543981999993775,0,53,test2,4,0.6545281999997314,-42.0
4,yyq,f,18,r,2,(-121.76378772032348, 121.76378772032349),24,-7,13,yes,x,5,x,0.35592629999973724,1,54,test2,4,0.3560293000000456,-52.0
4,yyq,f,18,r,2,(1.0544208940658713e-14, 172.20000000000002),23,5,2,yes,x,5,x,0.5667710000006991,1,55,test2,4,0.567088299999341,-40.0
4,yyq,f,18,r,2,(172.20000000000002, 0.0),21,-5,12,yes,x,5,x,0.3930496000002677,1,56,test2,4,0.3932920000006561,-50.0
4,yyq,f,18,r,2,(1.0544208940658713e-14, 172.20000000000002),23,-25,14,yes,x,5,x,0.39284439999937604,1,57,test2,4,0.3931077000006553,-70.0
4,yyq,f,18,r,2,(121.76378772032349, 121.76378772032349),22,-7,13,yes,x,5,x,0.40542349999941507,1,58,test2,4,0.40620810000018537,-52.0
4,yyq,f,18,r,2,(121.76378772032349, 121.76378772032349),22,-25,14,yes,x,5,x,0.32308929999999236,1,59,test2,4,0.323246900000413,-70.0
4,yyq,f,18,r,2,(-121.76378772032348, 121.76378772032349),24,5,2,no,m,6,x,0.3134773000001587,0,60,test2,4,0.31359820000034233,-70.0
4,yyq,f,18,r,2,(121.76378772032349, 121.76378772032349),22,-5,12,yes,x,5,x,0.38362710000001243,1,61,test2,4,0.38381630000003497,-50.0
4,yyq,f,18,r,2,(1.0544208940658713e-14, 172.20000000000002),23,3,1,no,m,6,x,0.4218345999997837,0,62,test2,4,0.422066399999494,-50.0
4,yyq,f,18,r,2,(-121.76378772032348, 121.76378772032349),24,3,1,yes,x,5,x,0.4775766000002477,1,63,test2,4,0.47767299999941315,-42.0
4,yyq,f,18,r,2,(-3.163262682197613e-14, -172.20000000000002),27,-25,14,yes,x,5,x,0.3733041999994384,1,64,test2,4,0.3737911999996868,-70.0
4,yyq,f,18,r,2,(121.76378772032349, 121.76378772032349),22,3,1,yes,x,5,x,0.37074180000035994,1,65,test2,4,0.3708682000005865,-42.0
4,yyq,f,18,r,2,(-121.76378772032348, 121.76378772032349),24,25,4,no,m,6,m,0.5511414000002333,1,66,test2,4,0.551245800000288,-42.0
4,yyq,f,18,r,2,(121.76378772032349, 121.76378772032349),22,-3,11,yes,x,5,x,0.4653727999993862,1,67,test2,4,0.46572250000008353,-48.0
4,yyq,f,18,r,2,(172.20000000000002, 0.0),21,3,1,yes,x,5,m,0.5571548999996594,0,68,test2,4,0.5572707999999693,-42.0
4,yyq,f,18,r,2,(1.0544208940658713e-14, 172.20000000000002),23,-5,12,no,m,6,m,0.6996834999999919,1,69,test2,4,0.6998385999995662,-42.0
4,yyq,f,18,r,2,(-3.163262682197613e-14, -172.20000000000002),27,3,1,yes,x,5,x,0.4647146999996039,1,70,test2,4,0.46534279999923456,-42.0
4,yyq,f,18,r,2,(121.76378772032346, -121.76378772032352),28,25,4,yes,x,5,x,0.4049364999991667,1,71,test2,4,0.405399799999941,-20.0
4,yyq,f,18,r,2,(-3.163262682197613e-14, -172.20000000000002),27,-25,14,no,m,6,m,0.6190181000001758,1,72,test2,4,0.6194959000004019,-20.0
4,yyq,f,18,r,2,(121.76378772032349, 121.76378772032349),22,7,3,yes,x,5,x,0.3984153999999762,1,73,test2,4,0.3985818000001018,-38.0
4,yyq,f,18,r,2,(-121.76378772032352, -121.76378772032348),26,3,1,yes,x,5,x,0.6458533000004536,1,74,test2,4,0.6460836999995081,-42.0
4,yyq,f,18,r,2,(-3.163262682197613e-14, -172.20000000000002),27,25,4,yes,x,5,x,0.44933920000039507,1,75,test2,4,0.4495028999990609,-20.0
4,yyq,f,18,r,2,(121.76378772032346, -121.76378772032352),28,-7,13,yes,x,5,x,0.42534400000113237,1,76,test2,4,0.42557660000056785,-52.0
4,yyq,f,18,r,2,(-121.76378772032348, 121.76378772032349),24,7,3,yes,x,5,x,0.42578150000008463,1,77,test2,4,0.42591279999942344,-38.0
4,yyq,f,18,r,2,(-121.76378772032348, 121.76378772032349),24,25,4,yes,x,5,x,0.38530809999974736,1,78,test2,4,0.3855853000004572,-20.0
4,yyq,f,18,r,2,(-121.76378772032352, -121.76378772032348),26,-5,12,yes,x,5,m,0.6445471000006364,0,79,test2,4,0.6446945000006963,-50.0
4,yyq,f,18,r,2,(1.0544208940658713e-14, 172.20000000000002),23,7,3,no,m,6,m,0.6684103000006871,1,80,test2,4,0.6685637999999017,-50.0
4,yyq,f,18,r,2,(1.0544208940658713e-14, 172.20000000000002),23,-7,13,no,m,6,m,0.6708163999992394,1,81,test2,4,0.6709127999984048,-50.0
4,yyq,f,18,r,2,(121.76378772032349, 121.76378772032349),22,-25,14,no,m,6,m,0.5716514000014286,1,82,test2,4,0.57193819999884,-50.0
