subj_id,subj_name,subj_gender ,subj_age,subj_handedness,subj_runNum,tar_l_x,tar_l_y,loc_code,tar_ori,tar_code,tar_pre ,cor_response,pre_code,subj_response,RT,correct,trial_num,type,bloc_num,dur, real_tar
4,yyq,f,18,r,1,(1.0544208940658713e-14, 172.20000000000002),23,3,1,yes,x,5,m,1.0491564999992988,0,1,prac,0,1.0492795999998634,-42.0
4,yyq,f,18,r,1,(-121.76378772032352, -121.76378772032348),26,25,4,yes,x,5,m,0.6740724999999657,0,2,prac,0,0.6744784000002255,-20.0
4,yyq,f,18,r,1,(121.76378772032349, 121.76378772032349),22,-25,14,yes,x,5,x,0.8307910000003176,1,3,prac,0,0.8308985000003304,-70.0
4,yyq,f,18,r,1,(121.76378772032346, -121.76378772032352),28,7,3,yes,x,5,m,0.6798813000004884,0,4,prac,0,0.680534500000249,-38.0
4,yyq,f,18,r,1,(-121.76378772032352, -121.76378772032348),26,-3,11,yes,x,5,m,0.5758200999998735,0,5,prac,0,0.5761602000002313,-48.0
4,yyq,f,18,r,1,(-121.76378772032348, 121.76378772032349),24,-3,11,yes,x,5,m,0.5740337000006548,0,6,prac,0,0.574448599999414,-48.0
4,yyq,f,18,r,1,(121.76378772032349, 121.76378772032349),22,-3,11,no,m,6,m,0.7364152999998623,1,7,prac,0,0.7366484000003766,-48.0
4,yyq,f,18,r,1,(-172.20000000000002, 2.1088417881317425e-14),25,-3,11,yes,x,5,m,0.6586372000001575,0,8,prac,0,0.658735500000148,-48.0
4,yyq,f,18,r,1,(-121.76378772032352, -121.76378772032348),26,-7,13,yes,x,5,m,0.4686658000000534,0,9,prac,0,0.4695366000005379,-52.0
4,yyq,f,18,r,1,(-3.163262682197613e-14, -172.20000000000002),27,-25,14,yes,x,5,x,0.41970519999995304,1,10,prac,0,0.41980859999966924,-70.0
4,yyq,f,18,r,1,(-121.76378772032348, 121.76378772032349),24,-3,11,yes,x,5,m,0.6014200999998138,0,11,prac,0,0.6015704999999798,-48.0
4,yyq,f,18,r,1,(121.76378772032346, -121.76378772032352),28,3,1,yes,x,5,m,0.6402932000000874,0,12,prac,0,0.6405974999997852,-42.0
4,yyq,f,18,r,1,(-121.76378772032348, 121.76378772032349),24,-5,12,yes,x,5,m,0.6543176999994103,0,13,prac,0,0.6544384000007994,-50.0
4,yyq,f,18,r,1,(-172.20000000000002, 2.1088417881317425e-14),25,-25,14,yes,x,5,x,0.4746101999999155,1,14,prac,0,0.4749504999999772,-70.0
4,yyq,f,18,r,1,(-3.163262682197613e-14, -172.20000000000002),27,-3,11,yes,x,5,m,0.6448043999998845,0,15,prac,0,0.6450947000002998,-48.0
4,yyq,f,18,r,1,(121.76378772032349, 121.76378772032349),22,7,3,no,m,6,m,0.7106408999998166,1,16,prac,0,0.7107596999994712,-48.0
4,yyq,f,18,r,1,(1.0544208940658713e-14, 172.20000000000002),23,-5,12,yes,x,5,x,0.6968729000000167,1,17,prac,0,0.6969816000000719,-50.0
4,yyq,f,18,r,1,(-121.76378772032352, -121.76378772032348),26,7,3,yes,x,5,x,0.5465117000003374,1,18,prac,0,0.5467307999997502,-38.0
4,yyq,f,18,r,1,(-172.20000000000002, 2.1088417881317425e-14),25,5,2,yes,x,5,x,0.4893738000000667,1,19,prac,0,0.4895745000003444,-40.0
4,yyq,f,18,r,1,(-121.76378772032348, 121.76378772032349),24,25,4,yes,x,5,x,0.5314298000002964,1,20,prac,0,0.5316001000001052,-20.0
4,yyq,f,18,r,1,(121.76378772032346, -121.76378772032352),28,7,3,no,m,6,m,0.9309173000001465,1,1,test1,1,0.9314434999996593,-20.0
4,yyq,f,18,r,1,(121.76378772032349, 121.76378772032349),22,-5,12,yes,x,5,x,0.6029087999995681,1,2,test1,1,0.6030664999998407,-50.0
4,yyq,f,18,r,1,(-3.163262682197613e-14, -172.20000000000002),27,-25,14,yes,x,5,x,0.49592329999995854,1,3,test1,1,0.49608489999991434,-70.0
4,yyq,f,18,r,1,(-172.20000000000002, 2.1088417881317425e-14),25,-5,12,no,m,6,m,0.626427700000022,1,4,test1,1,0.6266490000007252,-70.0
4,yyq,f,18,r,1,(-121.76378772032352, -121.76378772032348),26,7,3,no,m,6,m,0.6155003000003489,1,5,test1,1,0.6156585000007908,-70.0
4,yyq,f,18,r,1,(-3.163262682197613e-14, -172.20000000000002),27,-5,12,no,m,6,m,0.6117505000001984,1,6,test1,1,0.6119843999995283,-70.0
4,yyq,f,18,r,1,(-121.76378772032348, 121.76378772032349),24,-5,12,yes,x,5,m,0.4676430999998047,0,7,test1,1,0.46812820000013744,-50.0
4,yyq,f,18,r,1,(-121.76378772032352, -121.76378772032348),26,25,4,yes,x,5,x,0.49097320000055333,1,8,test1,1,0.4911984999998822,-20.0
4,yyq,f,18,r,1,(-121.76378772032348, 121.76378772032349),24,25,4,no,m,6,m,0.4944647000002078,1,9,test1,1,0.4945647000004101,-20.0
4,yyq,f,18,r,1,(172.20000000000002, 0.0),21,25,4,yes,x,5,x,0.4837531000002855,1,10,test1,1,0.48429920000035054,-20.0
4,yyq,f,18,r,1,(121.76378772032349, 121.76378772032349),22,-3,11,yes,x,5,m,0.4925365999997666,0,11,test1,1,0.4927338999996209,-48.0
4,yyq,f,18,r,1,(172.20000000000002, 0.0),21,-3,11,yes,x,5,m,0.5334312999993926,0,12,test1,1,0.5335304000000178,-48.0
4,yyq,f,18,r,1,(172.20000000000002, 0.0),21,-7,13,no,m,6,m,0.5317592999999761,1,13,test1,1,0.5321061000004192,-48.0
4,yyq,f,18,r,1,(-3.163262682197613e-14, -172.20000000000002),27,7,3,yes,x,5,x,0.5025359000001117,1,14,test1,1,0.5029230000000098,-38.0
4,yyq,f,18,r,1,(172.20000000000002, 0.0),21,-3,11,no,m,6,m,0.4480225999996037,1,15,test1,1,0.4481210000003557,-38.0
4,yyq,f,18,r,1,(-121.76378772032348, 121.76378772032349),24,5,2,yes,x,5,x,0.4425839999994423,1,16,test1,1,0.4428087999995114,-40.0
4,yyq,f,18,r,1,(1.0544208940658713e-14, 172.20000000000002),23,5,2,yes,x,5,x,0.5375260000000708,1,17,test1,1,0.5376790999998775,-40.0
4,yyq,f,18,r,1,(-121.76378772032352, -121.76378772032348),26,5,2,yes,x,5,x,0.4827722999998514,1,18,test1,1,0.4831278999999995,-40.0
4,yyq,f,18,r,1,(-121.76378772032352, -121.76378772032348),26,25,4,yes,x,5,x,0.46873299999970186,1,19,test1,1,0.46885199999996985,-20.0
4,yyq,f,18,r,1,(-172.20000000000002, 2.1088417881317425e-14),25,7,3,yes,x,5,x,0.42858799999976327,1,20,test1,1,0.4288133000000016,-38.0
4,yyq,f,18,r,1,(1.0544208940658713e-14, 172.20000000000002),23,7,3,yes,x,5,x,0.5781276000006983,1,21,test1,1,0.5782851000003575,-38.0
4,yyq,f,18,r,1,(121.76378772032346, -121.76378772032352),28,-25,14,yes,x,5,x,0.3963917000000947,1,22,test1,1,0.3964953000004243,-70.0
4,yyq,f,18,r,1,(-121.76378772032348, 121.76378772032349),24,-5,12,no,m,6,m,0.5329927000002499,1,23,test1,1,0.533227299999453,-70.0
4,yyq,f,18,r,1,(1.0544208940658713e-14, 172.20000000000002),23,-25,14,yes,x,5,x,0.4352280000002793,1,24,test1,1,0.43563189999986207,-70.0
4,yyq,f,18,r,1,(-121.76378772032348, 121.76378772032349),24,5,2,yes,x,5,x,0.4967674999998053,1,25,test1,1,0.4969670999998925,-40.0
4,yyq,f,18,r,1,(-121.76378772032352, -121.76378772032348),26,7,3,yes,x,5,x,0.4343853999998828,1,26,test1,1,0.43480600000020786,-38.0
4,yyq,f,18,r,1,(121.76378772032346, -121.76378772032352),28,3,1,no,m,6,x,0.40114989999983663,0,27,test1,1,0.40124699999978475,-38.0
4,yyq,f,18,r,1,(-121.76378772032352, -121.76378772032348),26,-3,11,yes,x,5,x,0.6594789000000674,1,28,test1,1,0.6596086000008654,-48.0
4,yyq,f,18,r,1,(172.20000000000002, 0.0),21,25,4,no,m,6,x,0.5259234000004653,0,29,test1,1,0.5260833000002094,-48.0
4,yyq,f,18,r,1,(172.20000000000002, 0.0),21,5,2,yes,x,5,x,0.641736900000069,1,30,test1,1,0.6419368000006216,-40.0
4,yyq,f,18,r,1,(121.76378772032346, -121.76378772032352),28,-3,11,no,m,6,m,0.45039840000026743,1,31,test1,1,0.45065020000038203,-40.0
4,yyq,f,18,r,1,(121.76378772032346, -121.76378772032352),28,-25,14,no,m,6,m,0.6598122999994303,1,32,test1,1,0.6599405999995724,-40.0
4,yyq,f,18,r,1,(-3.163262682197613e-14, -172.20000000000002),27,-5,12,yes,x,5,x,0.6234227000004466,1,33,test1,1,0.6236539000001358,-50.0
4,yyq,f,18,r,1,(-121.76378772032352, -121.76378772032348),26,7,3,yes,x,5,x,0.4923910999996224,1,34,test1,1,0.4924877000003107,-38.0
4,yyq,f,18,r,1,(-172.20000000000002, 2.1088417881317425e-14),25,-3,11,no,m,6,m,0.6700162999995882,1,35,test1,1,0.6702411999995093,-38.0
4,yyq,f,18,r,1,(-121.76378772032348, 121.76378772032349),24,-25,14,yes,x,5,x,0.47399660000064614,1,36,test1,1,0.4742655999998533,-70.0
4,yyq,f,18,r,1,(-3.163262682197613e-14, -172.20000000000002),27,-7,13,yes,x,5,x,0.5380027000001064,1,37,test1,1,0.5382921999998871,-52.0
4,yyq,f,18,r,1,(1.0544208940658713e-14, 172.20000000000002),23,-5,12,yes,x,5,m,0.6415466000007655,0,38,test1,1,0.6419953999993595,-50.0
4,yyq,f,18,r,1,(172.20000000000002, 0.0),21,-7,13,yes,x,5,x,0.568413199999668,1,39,test1,1,0.5688087999997151,-52.0
4,yyq,f,18,r,1,(121.76378772032349, 121.76378772032349),22,-25,14,no,m,6,m,0.5383228999999119,1,40,test1,1,0.5387347999994745,-52.0
4,yyq,f,18,r,1,(-121.76378772032348, 121.76378772032349),24,-25,14,no,m,6,m,0.5644633000001704,1,41,test1,1,0.5646842000005563,-52.0
4,yyq,f,18,r,1,(121.76378772032349, 121.76378772032349),22,7,3,no,m,6,m,0.5746387999997751,1,42,test1,1,0.5752314000001206,-52.0
4,yyq,f,18,r,1,(1.0544208940658713e-14, 172.20000000000002),23,-5,12,yes,x,5,x,0.5107093999995413,1,43,test1,1,0.5108116999999766,-50.0
4,yyq,f,18,r,1,(1.0544208940658713e-14, 172.20000000000002),23,-3,11,yes,x,5,x,0.4647713999993357,1,44,test1,1,0.46491059999971185,-48.0
4,yyq,f,18,r,1,(121.76378772032349, 121.76378772032349),22,-3,11,yes,x,5,x,0.5059846000003745,1,45,test1,1,0.506285200000093,-48.0
4,yyq,f,18,r,1,(172.20000000000002, 0.0),21,25,4,yes,x,5,m,0.5198878999999579,0,46,test1,1,0.520115799999985,-20.0
4,yyq,f,18,r,1,(-121.76378772032352, -121.76378772032348),26,-3,11,yes,x,5,m,0.6490264000003663,0,47,test1,1,0.649219599999924,-48.0
4,yyq,f,18,r,1,(-172.20000000000002, 2.1088417881317425e-14),25,-3,11,yes,x,5,m,0.5373067000000447,0,48,test1,1,0.5374740999995993,-48.0
4,yyq,f,18,r,1,(121.76378772032349, 121.76378772032349),22,25,4,yes,x,5,x,0.4548536000002059,1,49,test1,1,0.4550933000000441,-20.0
4,yyq,f,18,r,1,(-121.76378772032352, -121.76378772032348),26,-7,13,yes,x,5,x,0.49863449999975273,1,50,test1,1,0.49924749999991036,-52.0
4,yyq,f,18,r,1,(-3.163262682197613e-14, -172.20000000000002),27,-3,11,no,m,6,m,0.5060034999996788,1,51,test1,1,0.5062932000000728,-52.0
4,yyq,f,18,r,1,(-121.76378772032348, 121.76378772032349),24,5,2,no,m,6,m,0.47343350000028295,1,52,test1,1,0.4735629999995581,-52.0
4,yyq,f,18,r,1,(121.76378772032346, -121.76378772032352),28,25,4,yes,x,5,m,0.36675990000003367,0,53,test1,1,0.36699180000050546,-20.0
4,yyq,f,18,r,1,(-172.20000000000002, 2.1088417881317425e-14),25,-5,12,yes,x,5,x,0.714102200000525,1,54,test1,1,0.7142173000002003,-50.0
4,yyq,f,18,r,1,(172.20000000000002, 0.0),21,-7,13,yes,x,5,x,0.49303299999974115,1,55,test1,1,0.4931378000001132,-52.0
4,yyq,f,18,r,1,(-121.76378772032352, -121.76378772032348),26,5,2,yes,x,5,m,0.5895158000002994,0,56,test1,1,0.5896210999999312,-40.0
4,yyq,f,18,r,1,(121.76378772032349, 121.76378772032349),22,7,3,yes,x,5,x,0.5822563000001537,1,57,test1,1,0.5825460000005478,-38.0
4,yyq,f,18,r,1,(-172.20000000000002, 2.1088417881317425e-14),25,-5,12,yes,x,5,x,0.5203592999996545,1,58,test1,1,0.520607899999959,-50.0
4,yyq,f,18,r,1,(121.76378772032349, 121.76378772032349),22,5,2,yes,x,5,x,0.5446468999998615,1,59,test1,1,0.544991900000241,-40.0
4,yyq,f,18,r,1,(1.0544208940658713e-14, 172.20000000000002),23,-25,14,yes,x,5,x,0.4798990000008416,1,60,test1,1,0.4800689000003331,-70.0
4,yyq,f,18,r,1,(121.76378772032346, -121.76378772032352),28,25,4,yes,x,5,x,0.41767540000000736,1,61,test1,1,0.4179002999999284,-20.0
4,yyq,f,18,r,1,(121.76378772032346, -121.76378772032352),28,3,1,yes,x,5,m,0.5828045999996903,0,62,test1,1,0.5829740999997739,-42.0
4,yyq,f,18,r,1,(121.76378772032346, -121.76378772032352),28,25,4,no,m,6,m,0.5692140000001018,1,63,test1,1,0.5695159000006242,-42.0
4,yyq,f,18,r,1,(-121.76378772032352, -121.76378772032348),26,3,1,yes,x,5,m,0.6162206999997579,0,64,test1,1,0.6171316999998453,-42.0
4,yyq,f,18,r,1,(121.76378772032346, -121.76378772032352),28,7,3,yes,x,5,m,0.536912200000188,0,65,test1,1,0.5370115000005171,-38.0
4,yyq,f,18,r,1,(-121.76378772032348, 121.76378772032349),24,-3,11,yes,x,5,m,0.48691859999962617,0,66,test1,1,0.48712390000036976,-48.0
4,yyq,f,18,r,1,(121.76378772032349, 121.76378772032349),22,25,4,no,m,6,m,0.49167579999993904,1,67,test1,1,0.49198080000041955,-48.0
4,yyq,f,18,r,1,(-172.20000000000002, 2.1088417881317425e-14),25,-25,14,no,m,6,m,0.564369099999567,1,68,test1,1,0.5645913999996992,-48.0
4,yyq,f,18,r,1,(-121.76378772032348, 121.76378772032349),24,-7,13,no,m,6,x,0.4746638999995412,0,69,test1,1,0.47497999999995955,-48.0
4,yyq,f,18,r,1,(-3.163262682197613e-14, -172.20000000000002),27,25,4,yes,x,5,m,0.4339428000002954,0,70,test1,1,0.43417050000061863,-20.0
4,yyq,f,18,r,1,(-121.76378772032352, -121.76378772032348),26,3,1,no,m,6,m,0.6408465000004071,1,71,test1,1,0.6409737999993013,-20.0
4,yyq,f,18,r,1,(-121.76378772032352, -121.76378772032348),26,-5,12,no,m,6,m,0.655107799999314,1,72,test1,1,0.6553428000006534,-20.0
4,yyq,f,18,r,1,(-3.163262682197613e-14, -172.20000000000002),27,-25,14,yes,x,5,x,0.5109116000003269,1,73,test1,1,0.5112079999998969,-70.0
4,yyq,f,18,r,1,(-3.163262682197613e-14, -172.20000000000002),27,5,2,no,m,6,m,0.49896650000027876,1,74,test1,1,0.49909569999999803,-70.0
4,yyq,f,18,r,1,(1.0544208940658713e-14, 172.20000000000002),23,7,3,no,m,6,m,0.48125269999945886,1,75,test1,1,0.4817443000001731,-70.0
4,yyq,f,18,r,1,(121.76378772032349, 121.76378772032349),22,-5,12,no,m,6,m,0.4712740000004487,1,76,test1,1,0.471764500000063,-70.0
4,yyq,f,18,r,1,(172.20000000000002, 0.0),21,5,2,yes,x,5,x,0.5401647999997294,1,77,test1,1,0.5402895999995962,-40.0
4,yyq,f,18,r,1,(-3.163262682197613e-14, -172.20000000000002),27,3,1,yes,x,5,m,0.6146819999994477,0,78,test1,1,0.6147853000002215,-42.0
4,yyq,f,18,r,1,(-121.76378772032352, -121.76378772032348),26,-3,11,no,m,6,m,0.5712054000005082,1,79,test1,1,0.5715128000001641,-42.0
4,yyq,f,18,r,1,(121.76378772032349, 121.76378772032349),22,3,1,no,m,6,m,0.4975000000004002,1,80,test1,1,0.4976345000004585,-42.0
4,yyq,f,18,r,1,(-172.20000000000002, 2.1088417881317425e-14),25,-7,13,yes,x,5,x,0.4349732999999105,1,81,test1,1,0.4352812000006452,-52.0
4,yyq,f,18,r,1,(121.76378772032346, -121.76378772032352),28,-3,11,yes,x,5,x,0.6866937000004327,1,82,test1,1,0.687228500000856,-48.0
4,yyq,f,18,r,1,(1.0544208940658713e-14, 172.20000000000002),23,25,4,yes,x,5,x,0.41915700000026845,1,83,test1,1,0.41937119999965944,-20.0
4,yyq,f,18,r,1,(1.0544208940658713e-14, 172.20000000000002),23,3,1,no,m,6,m,0.4750530000001163,1,84,test1,1,0.4755813000001581,-20.0
4,yyq,f,18,r,1,(121.76378772032346, -121.76378772032352),28,-5,12,no,m,6,m,0.5378956000004109,1,85,test1,1,0.5381846999998743,-20.0
4,yyq,f,18,r,1,(-172.20000000000002, 2.1088417881317425e-14),25,7,3,yes,x,5,x,0.42691520000062155,1,86,test1,1,0.4275918000003003,-38.0
4,yyq,f,18,r,1,(121.76378772032349, 121.76378772032349),22,-25,14,yes,x,5,x,0.4583813999997801,1,87,test1,1,0.4586760000001959,-70.0
4,yyq,f,18,r,1,(121.76378772032349, 121.76378772032349),22,-5,12,yes,x,5,x,0.4675995999996303,1,88,test1,1,0.46785799999997835,-50.0
4,yyq,f,18,r,1,(-3.163262682197613e-14, -172.20000000000002),27,-25,14,no,m,6,m,0.42948840000008204,1,89,test1,1,0.42972550000013143,-50.0
4,yyq,f,18,r,1,(-3.163262682197613e-14, -172.20000000000002),27,5,2,yes,x,5,x,0.5370631999994657,1,90,test1,1,0.5372906000002331,-40.0
4,yyq,f,18,r,1,(1.0544208940658713e-14, 172.20000000000002),23,5,2,yes,x,5,x,0.5362426000001506,1,91,test1,1,0.5368698000002041,-40.0
4,yyq,f,18,r,1,(-121.76378772032348, 121.76378772032349),24,7,3,yes,x,5,x,0.4478649000002406,1,92,test1,1,0.44844860000011977,-38.0
4,yyq,f,18,r,1,(172.20000000000002, 0.0),21,7,3,no,m,6,m,0.5335304999998698,1,93,test1,1,0.5339443000002575,-38.0
4,yyq,f,18,r,1,(-121.76378772032348, 121.76378772032349),24,25,4,yes,x,5,x,0.4852276999999958,1,94,test1,1,0.48548510000000533,-20.0
4,yyq,f,18,r,1,(1.0544208940658713e-14, 172.20000000000002),23,-7,13,no,m,6,m,0.5692561999994723,1,95,test1,1,0.5693555000007109,-20.0
4,yyq,f,18,r,1,(-121.76378772032348, 121.76378772032349),24,3,1,yes,x,5,x,0.5473861999998917,1,96,test1,1,0.5476286000002801,-42.0
4,yyq,f,18,r,1,(1.0544208940658713e-14, 172.20000000000002),23,-5,12,no,m,6,m,0.6109277000005022,1,1,test2,1,0.6110312000000704,-42.0
4,yyq,f,18,r,1,(172.20000000000002, 0.0),21,-5,12,yes,x,5,x,0.511193600000297,1,2,test2,1,0.5113092000001416,-50.0
4,yyq,f,18,r,1,(1.0544208940658713e-14, 172.20000000000002),23,-25,14,no,m,6,m,0.5302501000005577,1,3,test2,1,0.5303514999995969,-50.0
4,yyq,f,18,r,1,(121.76378772032349, 121.76378772032349),22,5,2,yes,x,5,x,0.457741299999725,1,4,test2,1,0.45805879999988974,-40.0
4,yyq,f,18,r,1,(121.76378772032346, -121.76378772032352),28,-7,13,yes,x,5,x,0.5270933000001605,1,5,test2,1,0.5272551999996722,-52.0
4,yyq,f,18,r,1,(121.76378772032349, 121.76378772032349),22,-7,13,yes,x,5,x,0.4459458999999697,1,6,test2,1,0.44616929999938293,-52.0
4,yyq,f,18,r,1,(-3.163262682197613e-14, -172.20000000000002),27,25,4,no,m,6,m,0.5919243999996979,1,7,test2,1,0.5922157999993942,-52.0
4,yyq,f,18,r,1,(-3.163262682197613e-14, -172.20000000000002),27,3,1,yes,x,5,m,0.6147729000003892,0,8,test2,1,0.615236300000106,-42.0
4,yyq,f,18,r,1,(-3.163262682197613e-14, -172.20000000000002),27,-7,13,yes,x,5,x,0.5817102999999406,1,9,test2,1,0.5819407999997566,-52.0
4,yyq,f,18,r,1,(-121.76378772032352, -121.76378772032348),26,-25,14,yes,x,5,x,0.4387225999998918,1,10,test2,1,0.438890999999785,-70.0
4,yyq,f,18,r,1,(121.76378772032346, -121.76378772032352),28,-5,12,yes,x,5,x,0.4804392000005464,1,11,test2,1,0.48055569999996806,-50.0
4,yyq,f,18,r,1,(121.76378772032346, -121.76378772032352),28,5,2,yes,x,5,x,0.3741328000005524,1,12,test2,1,0.37454109999998764,-40.0
4,yyq,f,18,r,1,(172.20000000000002, 0.0),21,-3,11,yes,x,5,m,0.4797469999994064,0,13,test2,1,0.4798735000003944,-48.0
4,yyq,f,18,r,1,(-172.20000000000002, 2.1088417881317425e-14),25,-7,13,no,m,6,m,0.48796199999924283,1,14,test2,1,0.4880904000001465,-48.0
4,yyq,f,18,r,1,(-121.76378772032348, 121.76378772032349),24,-25,14,yes,x,5,x,0.38339989999985846,1,15,test2,1,0.38351409999995667,-70.0
4,yyq,f,18,r,1,(-172.20000000000002, 2.1088417881317425e-14),25,-25,14,yes,x,5,x,0.38107510000008915,1,16,test2,1,0.3812908999998399,-70.0
4,yyq,f,18,r,1,(-121.76378772032348, 121.76378772032349),24,-3,11,yes,x,5,m,0.5770991999997932,0,17,test2,1,0.5772192999993422,-48.0
4,yyq,f,18,r,1,(172.20000000000002, 0.0),21,-5,12,no,m,6,x,0.5569986999998946,0,18,test2,1,0.5572438999997757,-48.0
4,yyq,f,18,r,1,(172.20000000000002, 0.0),21,7,3,yes,x,5,x,0.5349457000002076,1,19,test2,1,0.5351558000002115,-38.0
4,yyq,f,18,r,1,(1.0544208940658713e-14, 172.20000000000002),23,7,3,yes,x,5,x,0.4896592999994027,1,20,test2,1,0.4897949999995035,-38.0
4,yyq,f,18,r,1,(172.20000000000002, 0.0),21,-5,12,yes,x,5,x,0.5221357000000353,1,21,test2,1,0.5223009999999704,-50.0
4,yyq,f,18,r,1,(-172.20000000000002, 2.1088417881317425e-14),25,-7,13,yes,x,5,x,0.3790335000003324,1,22,test2,1,0.3791531999995641,-52.0
4,yyq,f,18,r,1,(1.0544208940658713e-14, 172.20000000000002),23,-3,11,yes,x,5,x,0.5275720999998157,1,23,test2,1,0.5278079999998226,-48.0
4,yyq,f,18,r,1,(-121.76378772032348, 121.76378772032349),24,-7,13,yes,x,5,x,0.52205529999992,1,24,test2,1,0.5221538999994664,-52.0
4,yyq,f,18,r,1,(-172.20000000000002, 2.1088417881317425e-14),25,3,1,yes,x,5,x,0.514882899999975,1,25,test2,1,0.5149860999999873,-42.0
4,yyq,f,18,r,1,(-3.163262682197613e-14, -172.20000000000002),27,25,4,yes,x,5,x,0.4395383999999467,1,26,test2,1,0.44034890000057203,-20.0
4,yyq,f,18,r,1,(121.76378772032346, -121.76378772032352),28,-7,13,no,m,6,m,0.49064799999996467,1,27,test2,1,0.4909623000003194,-20.0
4,yyq,f,18,r,1,(-121.76378772032348, 121.76378772032349),24,25,4,yes,x,5,x,0.4279700999995839,1,28,test2,1,0.42825059999995574,-20.0
4,yyq,f,18,r,1,(-172.20000000000002, 2.1088417881317425e-14),25,5,2,no,m,6,m,0.46739830000024085,1,29,test2,1,0.46753389999958017,-20.0
4,yyq,f,18,r,1,(1.0544208940658713e-14, 172.20000000000002),23,25,4,yes,x,5,x,0.44955300000037823,1,30,test2,1,0.44968019999942044,-20.0
4,yyq,f,18,r,1,(-121.76378772032352, -121.76378772032348),26,-25,14,no,m,6,m,0.47180110000044806,1,31,test2,1,0.4721036000000822,-20.0
4,yyq,f,18,r,1,(172.20000000000002, 0.0),21,-25,14,no,m,6,x,0.4730263000001287,0,32,test2,1,0.4732478000005358,-20.0
4,yyq,f,18,r,1,(121.76378772032349, 121.76378772032349),22,3,1,yes,x,5,x,0.6527768000005381,1,33,test2,1,0.6529338999998799,-42.0
4,yyq,f,18,r,1,(-172.20000000000002, 2.1088417881317425e-14),25,3,1,no,m,6,m,0.4953617999999551,1,34,test2,1,0.4959054000000833,-42.0
4,yyq,f,18,r,1,(172.20000000000002, 0.0),21,-25,14,yes,x,5,x,0.44799129999955767,1,35,test2,1,0.44814790000054927,-70.0
4,yyq,f,18,r,1,(121.76378772032346, -121.76378772032352),28,3,1,yes,x,5,m,0.43243010000060167,0,36,test2,1,0.4330165000001216,-42.0
4,yyq,f,18,r,1,(-3.163262682197613e-14, -172.20000000000002),27,5,2,yes,x,5,x,0.5040902999999162,1,37,test2,1,0.5042467000002944,-40.0
4,yyq,f,18,r,1,(-3.163262682197613e-14, -172.20000000000002),27,7,3,no,m,6,m,0.4636381000000256,1,38,test2,1,0.4639117000006081,-40.0
4,yyq,f,18,r,1,(172.20000000000002, 0.0),21,3,1,yes,x,5,x,0.5604718000004141,1,39,test2,1,0.5605875999999625,-42.0
4,yyq,f,18,r,1,(172.20000000000002, 0.0),21,7,3,yes,x,5,x,0.44470369999999093,1,40,test2,1,0.4453000000003158,-38.0
4,yyq,f,18,r,1,(-121.76378772032348, 121.76378772032349),24,-5,12,yes,x,5,x,0.4311167000005298,1,41,test2,1,0.43121270000028744,-50.0
4,yyq,f,18,r,1,(121.76378772032346, -121.76378772032352),28,5,2,no,m,6,m,0.5166484999999739,1,42,test2,1,0.5167784000004758,-50.0
4,yyq,f,18,r,1,(-172.20000000000002, 2.1088417881317425e-14),25,25,4,yes,x,5,x,0.4520005999993373,1,43,test2,1,0.4522027999992133,-20.0
4,yyq,f,18,r,1,(-121.76378772032352, -121.76378772032348),26,-25,14,yes,x,5,x,0.42236720000073547,1,44,test2,1,0.42250029999922845,-70.0
4,yyq,f,18,r,1,(-172.20000000000002, 2.1088417881317425e-14),25,25,4,yes,x,5,x,0.39709080000011454,1,45,test2,1,0.39720369999940885,-20.0
4,yyq,f,18,r,1,(121.76378772032349, 121.76378772032349),22,7,3,yes,x,5,x,0.5091108999995413,1,46,test2,1,0.5094154999997045,-38.0
4,yyq,f,18,r,1,(121.76378772032346, -121.76378772032352),28,5,2,yes,x,5,m,0.6168760999998995,0,47,test2,1,0.6172753000000739,-40.0
4,yyq,f,18,r,1,(-121.76378772032348, 121.76378772032349),24,-7,13,yes,x,5,x,0.4560308999998597,1,48,test2,1,0.45633100000031845,-52.0
4,yyq,f,18,r,1,(-3.163262682197613e-14, -172.20000000000002),27,3,1,no,m,6,m,0.503244800000175,1,49,test2,1,0.5033751999999367,-52.0
4,yyq,f,18,r,1,(1.0544208940658713e-14, 172.20000000000002),23,25,4,no,m,6,m,0.4461378000005425,1,50,test2,1,0.44631010000011884,-52.0
4,yyq,f,18,r,1,(121.76378772032349, 121.76378772032349),22,-7,13,no,m,6,m,0.4430577999992238,1,51,test2,1,0.44337540000014997,-52.0
4,yyq,f,18,r,1,(121.76378772032346, -121.76378772032352),28,-25,14,yes,x,5,x,0.451300299999275,1,52,test2,1,0.4515331000002334,-70.0
4,yyq,f,18,r,1,(-3.163262682197613e-14, -172.20000000000002),27,-3,11,yes,x,5,m,0.5255958000007013,0,53,test2,1,0.5256997000005867,-48.0
4,yyq,f,18,r,1,(172.20000000000002, 0.0),21,3,1,yes,x,5,m,0.5244224000007307,0,54,test2,1,0.5245443999992858,-42.0
4,yyq,f,18,r,1,(-3.163262682197613e-14, -172.20000000000002),27,-7,13,no,m,6,m,0.48005620000003546,1,55,test2,1,0.4801684000003661,-42.0
4,yyq,f,18,r,1,(-172.20000000000002, 2.1088417881317425e-14),25,3,1,yes,x,5,m,0.5612975999993068,0,56,test2,1,0.561607699999513,-42.0
4,yyq,f,18,r,1,(-121.76378772032352, -121.76378772032348),26,-5,12,yes,x,5,x,0.4804873000002772,1,57,test2,1,0.48091220000060275,-50.0
4,yyq,f,18,r,1,(-121.76378772032348, 121.76378772032349),24,7,3,yes,x,5,x,0.4103490999996211,1,58,test2,1,0.4106875999996191,-38.0
4,yyq,f,18,r,1,(121.76378772032346, -121.76378772032352),28,-5,12,yes,x,5,x,0.5904061000001093,1,59,test2,1,0.5911150000001726,-50.0
4,yyq,f,18,r,1,(-121.76378772032348, 121.76378772032349),24,7,3,no,m,6,m,0.8116924000005383,1,60,test2,1,0.8121611000005942,-50.0
4,yyq,f,18,r,1,(1.0544208940658713e-14, 172.20000000000002),23,-3,11,no,m,6,m,0.5246022999999695,1,61,test2,1,0.5247706000000107,-50.0
4,yyq,f,18,r,1,(1.0544208940658713e-14, 172.20000000000002),23,-7,13,yes,x,5,x,0.42864540000027773,1,62,test2,1,0.42882379999991826,-52.0
4,yyq,f,18,r,1,(-172.20000000000002, 2.1088417881317425e-14),25,5,2,yes,x,5,x,0.549403899999561,1,63,test2,1,0.5495333999997456,-40.0
4,yyq,f,18,r,1,(-172.20000000000002, 2.1088417881317425e-14),25,-3,11,yes,x,5,m,0.4888773000002402,0,64,test2,1,0.488981600000443,-48.0
4,yyq,f,18,r,1,(1.0544208940658713e-14, 172.20000000000002),23,5,2,no,m,6,m,0.5823478000002069,1,65,test2,1,0.5825179999992542,-48.0
4,yyq,f,18,r,1,(121.76378772032349, 121.76378772032349),22,3,1,yes,x,5,x,0.49516700000003766,1,66,test2,1,0.49538229999961914,-42.0
4,yyq,f,18,r,1,(-121.76378772032352, -121.76378772032348),26,3,1,yes,x,5,m,0.588073699999768,0,67,test2,1,0.5882933999992019,-42.0
4,yyq,f,18,r,1,(-121.76378772032352, -121.76378772032348),26,-5,12,yes,x,5,x,0.4151565000001938,1,68,test2,1,0.4153206000000864,-50.0
4,yyq,f,18,r,1,(1.0544208940658713e-14, 172.20000000000002),23,-7,13,yes,x,5,x,0.4751840999997512,1,69,test2,1,0.4755342999997083,-52.0
4,yyq,f,18,r,1,(121.76378772032349, 121.76378772032349),22,-3,11,no,m,6,x,0.4806992999992872,0,70,test2,1,0.4808697000007669,-52.0
4,yyq,f,18,r,1,(1.0544208940658713e-14, 172.20000000000002),23,3,1,yes,x,5,x,0.4330135000000155,1,71,test2,1,0.43311369999992166,-42.0
4,yyq,f,18,r,1,(172.20000000000002, 0.0),21,-25,14,yes,x,5,x,0.43062779999945633,1,72,test2,1,0.43072789999951056,-70.0
4,yyq,f,18,r,1,(1.0544208940658713e-14, 172.20000000000002),23,3,1,yes,x,5,x,0.4787679000000935,1,73,test2,1,0.4789576000002853,-42.0
4,yyq,f,18,r,1,(-121.76378772032352, -121.76378772032348),26,5,2,no,m,6,x,0.6176531999999497,0,74,test2,1,0.6178262000003087,-42.0
4,yyq,f,18,r,1,(-172.20000000000002, 2.1088417881317425e-14),25,7,3,no,m,6,x,0.5490530000006402,0,75,test2,1,0.5492974999997386,-42.0
4,yyq,f,18,r,1,(-121.76378772032352, -121.76378772032348),26,25,4,no,m,6,x,0.4955973999994967,0,76,test2,1,0.4962722999998732,-42.0
4,yyq,f,18,r,1,(121.76378772032346, -121.76378772032352),28,7,3,yes,x,5,x,0.46394129999953293,1,77,test2,1,0.46423030000005383,-38.0
4,yyq,f,18,r,1,(-121.76378772032348, 121.76378772032349),24,3,1,yes,x,5,m,0.4695502000004126,0,78,test2,1,0.46970599999986007,-42.0
4,yyq,f,18,r,1,(172.20000000000002, 0.0),21,5,2,no,m,6,x,0.6332345999999234,0,79,test2,1,0.6333583000005092,-42.0
4,yyq,f,18,r,1,(-3.163262682197613e-14, -172.20000000000002),27,-5,12,yes,x,5,x,0.5086870999994062,1,80,test2,1,0.5089162000003853,-50.0
4,yyq,f,18,r,1,(-121.76378772032348, 121.76378772032349),24,3,1,no,m,6,m,0.6171918000000005,1,81,test2,1,0.6177305999999589,-50.0
4,yyq,f,18,r,1,(172.20000000000002, 0.0),21,3,1,no,m,6,m,0.5780813999999737,1,82,test2,1,0.578184500000134,-50.0
4,yyq,f,18,r,1,(121.76378772032349, 121.76378772032349),22,-7,13,yes,x,5,x,0.50209729999915,1,83,test2,1,0.5022626999998465,-52.0
4,yyq,f,18,r,1,(121.76378772032349, 121.76378772032349),22,25,4,yes,x,5,x,0.3979230999993888,1,84,test2,1,0.3983335000002626,-20.0
4,yyq,f,18,r,1,(-172.20000000000002, 2.1088417881317425e-14),25,5,2,yes,x,5,x,0.4772764000008465,1,85,test2,1,0.4774424999995972,-40.0
4,yyq,f,18,r,1,(-3.163262682197613e-14, -172.20000000000002),27,7,3,yes,x,5,x,0.4156186999998681,1,86,test2,1,0.415831999999682,-38.0
4,yyq,f,18,r,1,(-121.76378772032348, 121.76378772032349),24,-3,11,no,m,6,m,0.5098616999994192,1,87,test2,1,0.5103376999995817,-38.0
4,yyq,f,18,r,1,(121.76378772032346, -121.76378772032352),28,-3,11,yes,x,5,x,0.3925198000006276,1,88,test2,1,0.39333819999956177,-48.0
4,yyq,f,18,r,1,(121.76378772032346, -121.76378772032352),28,-7,13,yes,x,5,x,0.4428465999999389,1,89,test2,1,0.44306980000055773,-52.0
4,yyq,f,18,r,1,(-3.163262682197613e-14, -172.20000000000002),27,-3,11,yes,x,5,x,0.5886541999998371,1,90,test2,1,0.5887542999998914,-48.0
4,yyq,f,18,r,1,(-172.20000000000002, 2.1088417881317425e-14),25,25,4,no,m,6,m,0.48576649999995425,1,91,test2,1,0.4859056999994209,-48.0
4,yyq,f,18,r,1,(-121.76378772032352, -121.76378772032348),26,-7,13,no,m,6,x,0.3876718000001347,0,92,test2,1,0.387951300000168,-48.0
4,yyq,f,18,r,1,(121.76378772032349, 121.76378772032349),22,5,2,no,m,6,m,0.5122789999995803,1,93,test2,1,0.5125469999993584,-48.0
4,yyq,f,18,r,1,(121.76378772032349, 121.76378772032349),22,-25,14,yes,x,5,x,0.4506516000001284,1,94,test2,1,0.4508238000007623,-70.0
4,yyq,f,18,r,1,(-121.76378772032352, -121.76378772032348),26,-7,13,yes,x,5,x,0.3870538999999553,1,95,test2,1,0.38722779999989143,-52.0
4,yyq,f,18,r,1,(-172.20000000000002, 2.1088417881317425e-14),25,-25,14,yes,x,5,x,0.43155969999952504,1,96,test2,1,0.43221470000025874,-70.0
4,yyq,f,18,r,1,(121.76378772032346, -121.76378772032352),28,7,3,no,m,6,m,0.6781035000003612,1,1,test1,2,0.6784850000003644,-70.0
4,yyq,f,18,r,1,(121.76378772032349, 121.76378772032349),22,-5,12,yes,x,5,x,0.4343413000005967,1,2,test1,2,0.4344366999994236,-50.0
4,yyq,f,18,r,1,(-3.163262682197613e-14, -172.20000000000002),27,-25,14,yes,x,5,x,0.3280772000007346,1,3,test1,2,0.3282637000002069,-70.0
4,yyq,f,18,r,1,(-172.20000000000002, 2.1088417881317425e-14),25,-5,12,no,m,6,m,0.48524079999970127,1,4,test1,2,0.48536950000016077,-70.0
4,yyq,f,18,r,1,(-121.76378772032352, -121.76378772032348),26,7,3,no,m,6,m,0.6630370000002586,1,5,test1,2,0.6632002000005741,-70.0
4,yyq,f,18,r,1,(-3.163262682197613e-14, -172.20000000000002),27,-5,12,no,m,6,m,0.4274637000007715,1,6,test1,2,0.4277295000001686,-70.0
4,yyq,f,18,r,1,(-121.76378772032348, 121.76378772032349),24,-5,12,yes,x,5,x,0.3306933999992907,1,7,test1,2,0.3307967999999164,-50.0
4,yyq,f,18,r,1,(-121.76378772032352, -121.76378772032348),26,25,4,yes,x,5,x,0.3286473999996815,1,8,test1,2,0.32876909999959025,-20.0
4,yyq,f,18,r,1,(-121.76378772032348, 121.76378772032349),24,25,4,no,m,6,m,0.4289699999999357,1,9,test1,2,0.429226700000072,-20.0
4,yyq,f,18,r,1,(172.20000000000002, 0.0),21,25,4,yes,x,5,x,0.41287650000049325,1,10,test1,2,0.4130088000001706,-20.0
4,yyq,f,18,r,1,(121.76378772032349, 121.76378772032349),22,-3,11,yes,x,5,x,0.6031181000007564,1,11,test1,2,0.6034048999999868,-48.0
4,yyq,f,18,r,1,(172.20000000000002, 0.0),21,-3,11,yes,x,5,x,0.47859779999998864,1,12,test1,2,0.47872220000044763,-48.0
4,yyq,f,18,r,1,(172.20000000000002, 0.0),21,-7,13,no,m,6,x,0.40585100000043894,0,13,test1,2,0.40606930000012653,-48.0
4,yyq,f,18,r,1,(-3.163262682197613e-14, -172.20000000000002),27,7,3,yes,x,5,x,0.4506299000004219,1,14,test1,2,0.4509398999998666,-38.0
4,yyq,f,18,r,1,(172.20000000000002, 0.0),21,-3,11,no,m,6,m,0.5163888999995834,1,15,test1,2,0.5169282000006206,-38.0
4,yyq,f,18,r,1,(-121.76378772032348, 121.76378772032349),24,5,2,yes,x,5,x,0.4579680999995617,1,16,test1,2,0.45822510000016337,-40.0
4,yyq,f,18,r,1,(1.0544208940658713e-14, 172.20000000000002),23,5,2,yes,x,5,x,0.5988938999998936,1,17,test1,2,0.5991225000007034,-40.0
4,yyq,f,18,r,1,(-121.76378772032352, -121.76378772032348),26,5,2,yes,x,5,x,0.5740600999997696,1,18,test1,2,0.5745103999997809,-40.0
4,yyq,f,18,r,1,(-121.76378772032352, -121.76378772032348),26,25,4,yes,x,5,x,0.40483229999972536,1,19,test1,2,0.4049678000001222,-20.0
4,yyq,f,18,r,1,(-172.20000000000002, 2.1088417881317425e-14),25,7,3,yes,x,5,x,0.3437534000004234,1,20,test1,2,0.3438747999998668,-38.0
4,yyq,f,18,r,1,(1.0544208940658713e-14, 172.20000000000002),23,7,3,yes,x,5,x,0.43647039999996196,1,21,test1,2,0.4366711000002397,-38.0
4,yyq,f,18,r,1,(121.76378772032346, -121.76378772032352),28,-25,14,yes,x,5,x,0.39634320000004664,1,22,test1,2,0.3968336999996609,-70.0
4,yyq,f,18,r,1,(-121.76378772032348, 121.76378772032349),24,-5,12,no,m,6,m,0.550396799999362,1,23,test1,2,0.5505219999995461,-70.0
4,yyq,f,18,r,1,(1.0544208940658713e-14, 172.20000000000002),23,-25,14,yes,x,5,x,0.399458599999889,1,24,test1,2,0.39968969999972614,-70.0
4,yyq,f,18,r,1,(-121.76378772032348, 121.76378772032349),24,5,2,yes,x,5,x,0.503910100000212,1,25,test1,2,0.5041455999999016,-40.0
4,yyq,f,18,r,1,(-121.76378772032352, -121.76378772032348),26,7,3,yes,x,5,x,0.6069642000002204,1,26,test1,2,0.6071984000000157,-38.0
4,yyq,f,18,r,1,(121.76378772032346, -121.76378772032352),28,3,1,no,m,6,m,0.5746381000008114,1,27,test1,2,0.5749554000003627,-38.0
4,yyq,f,18,r,1,(-121.76378772032352, -121.76378772032348),26,-3,11,yes,x,5,m,0.4959256000001915,0,28,test1,2,0.4960403999994014,-48.0
4,yyq,f,18,r,1,(172.20000000000002, 0.0),21,25,4,no,m,6,m,0.4949776000003112,1,29,test1,2,0.49539610000010725,-48.0
4,yyq,f,18,r,1,(172.20000000000002, 0.0),21,5,2,yes,x,5,m,0.48359979999986535,0,30,test1,2,0.4837037999996028,-40.0
4,yyq,f,18,r,1,(121.76378772032346, -121.76378772032352),28,-3,11,no,m,6,m,0.5178412000004755,1,31,test1,2,0.5180214000001797,-40.0
4,yyq,f,18,r,1,(121.76378772032346, -121.76378772032352),28,-25,14,no,m,6,m,0.44864830000005895,1,32,test1,2,0.4494371000000683,-40.0
4,yyq,f,18,r,1,(-3.163262682197613e-14, -172.20000000000002),27,-5,12,yes,x,5,x,0.5310936999994738,1,33,test1,2,0.5313133999998172,-50.0
4,yyq,f,18,r,1,(-121.76378772032352, -121.76378772032348),26,7,3,yes,x,5,x,0.41203260000020236,1,34,test1,2,0.41226319999987027,-38.0
4,yyq,f,18,r,1,(-172.20000000000002, 2.1088417881317425e-14),25,-3,11,no,m,6,m,0.5785186000002795,1,35,test1,2,0.5787492999997994,-38.0
4,yyq,f,18,r,1,(-121.76378772032348, 121.76378772032349),24,-25,14,yes,x,5,x,0.4182784000004176,1,36,test1,2,0.4184149000002435,-70.0
4,yyq,f,18,r,1,(-3.163262682197613e-14, -172.20000000000002),27,-7,13,yes,x,5,x,0.56425660000059,1,37,test1,2,0.5643886999996539,-52.0
4,yyq,f,18,r,1,(1.0544208940658713e-14, 172.20000000000002),23,-5,12,yes,x,5,x,0.5282591000004686,1,38,test1,2,0.5284904999998616,-50.0
4,yyq,f,18,r,1,(172.20000000000002, 0.0),21,-7,13,yes,x,5,x,0.4795687999994698,1,39,test1,2,0.4798676999998861,-52.0
4,yyq,f,18,r,1,(121.76378772032349, 121.76378772032349),22,-25,14,no,m,6,m,0.5003923000003851,1,40,test1,2,0.5005197000000408,-52.0
4,yyq,f,18,r,1,(-121.76378772032348, 121.76378772032349),24,-25,14,no,m,6,m,0.5831387999996878,1,41,test1,2,0.5837529000000359,-52.0
4,yyq,f,18,r,1,(121.76378772032349, 121.76378772032349),22,7,3,no,m,6,m,0.5521626999998261,1,42,test1,2,0.5524235000002591,-52.0
4,yyq,f,18,r,1,(1.0544208940658713e-14, 172.20000000000002),23,-5,12,yes,x,5,x,0.3923414999999295,1,43,test1,2,0.39270049999959156,-50.0
4,yyq,f,18,r,1,(1.0544208940658713e-14, 172.20000000000002),23,-3,11,yes,x,5,x,0.5110718000005363,1,44,test1,2,0.511163399999532,-48.0
4,yyq,f,18,r,1,(121.76378772032349, 121.76378772032349),22,-3,11,yes,x,5,m,0.49422209999920597,0,45,test1,2,0.4947602000002007,-48.0
4,yyq,f,18,r,1,(172.20000000000002, 0.0),21,25,4,yes,x,5,x,0.40114209999956074,1,46,test1,2,0.4012554999999338,-20.0
4,yyq,f,18,r,1,(-121.76378772032352, -121.76378772032348),26,-3,11,yes,x,5,x,0.59530309999991,1,47,test1,2,0.5954287999993539,-48.0
4,yyq,f,18,r,1,(-172.20000000000002, 2.1088417881317425e-14),25,-3,11,yes,x,5,m,0.5167219999993904,0,48,test1,2,0.5171483000003718,-48.0
4,yyq,f,18,r,1,(121.76378772032349, 121.76378772032349),22,25,4,yes,x,5,x,0.4172015000003739,1,49,test1,2,0.4173670999998649,-20.0
4,yyq,f,18,r,1,(-121.76378772032352, -121.76378772032348),26,-7,13,yes,x,5,x,0.34849539999959234,1,50,test1,2,0.34881749999931344,-52.0
4,yyq,f,18,r,1,(-3.163262682197613e-14, -172.20000000000002),27,-3,11,no,m,6,x,0.3952767999999196,0,51,test1,2,0.39538010000069335,-52.0
4,yyq,f,18,r,1,(-121.76378772032348, 121.76378772032349),24,5,2,no,m,6,x,0.4691434999995181,0,52,test1,2,0.469477900000129,-52.0
4,yyq,f,18,r,1,(121.76378772032346, -121.76378772032352),28,25,4,yes,x,5,x,0.3580685999995694,1,53,test1,2,0.35824999999931606,-20.0
4,yyq,f,18,r,1,(-172.20000000000002, 2.1088417881317425e-14),25,-5,12,yes,x,5,x,0.398511100000178,1,54,test1,2,0.39865780000036466,-50.0
4,yyq,f,18,r,1,(172.20000000000002, 0.0),21,-7,13,yes,x,5,x,0.4492562999994334,1,55,test1,2,0.4493582000004608,-52.0
4,yyq,f,18,r,1,(-121.76378772032352, -121.76378772032348),26,5,2,yes,x,5,x,0.41874120000011317,1,56,test1,2,0.4192708999999013,-40.0
4,yyq,f,18,r,1,(121.76378772032349, 121.76378772032349),22,7,3,yes,x,5,x,0.43280889999914507,1,57,test1,2,0.43296620000000985,-38.0
4,yyq,f,18,r,1,(-172.20000000000002, 2.1088417881317425e-14),25,-5,12,yes,x,5,x,0.6125855000000229,1,58,test1,2,0.6126849000002039,-50.0
4,yyq,f,18,r,1,(121.76378772032349, 121.76378772032349),22,5,2,yes,x,5,x,0.46695439999984956,1,59,test1,2,0.4671867999995811,-40.0
4,yyq,f,18,r,1,(1.0544208940658713e-14, 172.20000000000002),23,-25,14,yes,x,5,x,0.3565634000005957,1,60,test1,2,0.3570233999998891,-70.0
4,yyq,f,18,r,1,(121.76378772032346, -121.76378772032352),28,25,4,yes,x,5,x,0.3786226000001989,1,61,test1,2,0.37874830000055226,-20.0
4,yyq,f,18,r,1,(121.76378772032346, -121.76378772032352),28,3,1,yes,x,5,x,0.31441069999982574,1,62,test1,2,0.31474600000001374,-42.0
4,yyq,f,18,r,1,(121.76378772032346, -121.76378772032352),28,25,4,no,m,6,x,0.3625958999991781,0,63,test1,2,0.36275190000014845,-42.0
4,yyq,f,18,r,1,(-121.76378772032352, -121.76378772032348),26,3,1,yes,x,5,x,0.4463457000001654,1,64,test1,2,0.44676780000008876,-42.0
4,yyq,f,18,r,1,(121.76378772032346, -121.76378772032352),28,7,3,yes,x,5,x,0.43462540000018635,1,65,test1,2,0.43481059999976424,-38.0
4,yyq,f,18,r,1,(-121.76378772032348, 121.76378772032349),24,-3,11,yes,x,5,x,0.43543829999998707,1,66,test1,2,0.4356100000004517,-48.0
4,yyq,f,18,r,1,(121.76378772032349, 121.76378772032349),22,25,4,no,m,6,x,0.5163370999998733,0,67,test1,2,0.5167689999998402,-48.0
4,yyq,f,18,r,1,(-172.20000000000002, 2.1088417881317425e-14),25,-25,14,no,m,6,m,0.6012154999998529,1,68,test1,2,0.6018120999997336,-48.0
4,yyq,f,18,r,1,(-121.76378772032348, 121.76378772032349),24,-7,13,no,m,6,m,0.47064289999980247,1,69,test1,2,0.4710377999999764,-48.0
4,yyq,f,18,r,1,(-3.163262682197613e-14, -172.20000000000002),27,25,4,yes,x,5,x,0.40949580000051355,1,70,test1,2,0.4096191999997245,-20.0
4,yyq,f,18,r,1,(-121.76378772032352, -121.76378772032348),26,3,1,no,m,6,m,0.5146780999994007,1,71,test1,2,0.5147791999997935,-20.0
4,yyq,f,18,r,1,(-121.76378772032352, -121.76378772032348),26,-5,12,no,m,6,x,0.36331609999979264,0,72,test1,2,0.36352480000005016,-20.0
4,yyq,f,18,r,1,(-3.163262682197613e-14, -172.20000000000002),27,-25,14,yes,x,5,x,0.3655231000002459,1,73,test1,2,0.36570730000039475,-70.0
4,yyq,f,18,r,1,(-3.163262682197613e-14, -172.20000000000002),27,5,2,no,m,6,x,0.47882990000016434,0,74,test1,2,0.4789578999998412,-70.0
4,yyq,f,18,r,1,(1.0544208940658713e-14, 172.20000000000002),23,7,3,no,m,6,x,0.4175211000001582,0,75,test1,2,0.4176413999994111,-70.0
4,yyq,f,18,r,1,(121.76378772032349, 121.76378772032349),22,-5,12,no,m,6,m,0.4931424000005791,1,76,test1,2,0.4932988000000478,-70.0
4,yyq,f,18,r,1,(172.20000000000002, 0.0),21,5,2,yes,x,5,m,0.5872050999996645,0,77,test1,2,0.5874400000002424,-40.0
4,yyq,f,18,r,1,(-3.163262682197613e-14, -172.20000000000002),27,3,1,yes,x,5,x,0.538598600000114,1,78,test1,2,0.5387264999999388,-42.0
4,yyq,f,18,r,1,(-121.76378772032352, -121.76378772032348),26,-3,11,no,m,6,m,0.564431699999659,1,79,test1,2,0.5645343000005596,-42.0
4,yyq,f,18,r,1,(121.76378772032349, 121.76378772032349),22,3,1,no,m,6,m,0.5355266999995365,1,80,test1,2,0.5357525000008536,-42.0
4,yyq,f,18,r,1,(-172.20000000000002, 2.1088417881317425e-14),25,-7,13,yes,x,5,x,0.401118800000404,1,81,test1,2,0.4013983000004373,-52.0
4,yyq,f,18,r,1,(121.76378772032346, -121.76378772032352),28,-3,11,yes,x,5,m,0.4144191999994291,0,82,test1,2,0.4147549999997864,-48.0
4,yyq,f,18,r,1,(1.0544208940658713e-14, 172.20000000000002),23,25,4,yes,x,5,x,0.42579660000046715,1,83,test1,2,0.4261683000004268,-20.0
4,yyq,f,18,r,1,(1.0544208940658713e-14, 172.20000000000002),23,3,1,no,m,6,m,0.5608089000006657,1,84,test1,2,0.5609141000004456,-20.0
4,yyq,f,18,r,1,(121.76378772032346, -121.76378772032352),28,-5,12,no,m,6,m,0.5065567999999985,1,85,test1,2,0.5066563999998834,-20.0
4,yyq,f,18,r,1,(-172.20000000000002, 2.1088417881317425e-14),25,7,3,yes,x,5,x,0.3926425999998173,1,86,test1,2,0.3927408999998079,-38.0
4,yyq,f,18,r,1,(121.76378772032349, 121.76378772032349),22,-25,14,yes,x,5,m,0.3887557999996716,0,87,test1,2,0.38899230000060925,-70.0
4,yyq,f,18,r,1,(121.76378772032349, 121.76378772032349),22,-5,12,yes,x,5,x,0.4000253000003795,1,88,test1,2,0.4002525000005335,-50.0
4,yyq,f,18,r,1,(-3.163262682197613e-14, -172.20000000000002),27,-25,14,no,m,6,x,0.5703841000004104,0,89,test1,2,0.5704956999998103,-50.0
4,yyq,f,18,r,1,(-3.163262682197613e-14, -172.20000000000002),27,5,2,yes,x,5,x,0.3601057000005312,1,90,test1,2,0.3606448000000455,-40.0
4,yyq,f,18,r,1,(1.0544208940658713e-14, 172.20000000000002),23,5,2,yes,x,5,x,0.3688990000000558,1,91,test1,2,0.3690334000002622,-40.0
4,yyq,f,18,r,1,(-121.76378772032348, 121.76378772032349),24,7,3,yes,x,5,x,0.4492504999998346,1,92,test1,2,0.44934400000056485,-38.0
4,yyq,f,18,r,1,(172.20000000000002, 0.0),21,7,3,no,m,6,m,0.5662419000000227,1,93,test1,2,0.5665258999997604,-38.0
4,yyq,f,18,r,1,(-121.76378772032348, 121.76378772032349),24,25,4,yes,x,5,x,0.3460227000005034,1,94,test1,2,0.3461526999999478,-20.0
4,yyq,f,18,r,1,(1.0544208940658713e-14, 172.20000000000002),23,-7,13,no,m,6,m,0.4430574999996679,1,95,test1,2,0.4432635000002847,-20.0
4,yyq,f,18,r,1,(-121.76378772032348, 121.76378772032349),24,3,1,yes,x,5,x,0.40687100000013743,1,96,test1,2,0.40713080000023183,-42.0
4,yyq,f,18,r,1,(1.0544208940658713e-14, 172.20000000000002),23,-5,12,no,m,6,m,0.5175208000000566,1,1,test2,2,0.5176575000004959,-42.0
4,yyq,f,18,r,1,(172.20000000000002, 0.0),21,-5,12,yes,x,5,x,0.4849695000002612,1,2,test2,2,0.485256500000105,-50.0
4,yyq,f,18,r,1,(1.0544208940658713e-14, 172.20000000000002),23,-25,14,no,m,6,m,0.44035469999926136,1,3,test2,2,0.4408627000002525,-50.0
4,yyq,f,18,r,1,(121.76378772032349, 121.76378772032349),22,5,2,yes,x,5,x,0.48648709999997664,1,4,test2,2,0.48668980000002193,-40.0
4,yyq,f,18,r,1,(121.76378772032346, -121.76378772032352),28,-7,13,yes,x,5,x,0.45037930000034976,1,5,test2,2,0.45103910000034375,-52.0
4,yyq,f,18,r,1,(121.76378772032349, 121.76378772032349),22,-7,13,yes,x,5,x,0.34972130000005563,1,6,test2,2,0.3499586999996609,-52.0
4,yyq,f,18,r,1,(-3.163262682197613e-14, -172.20000000000002),27,25,4,no,m,6,x,0.5483541999992667,0,7,test2,2,0.5486490000002959,-52.0
4,yyq,f,18,r,1,(-3.163262682197613e-14, -172.20000000000002),27,3,1,yes,x,5,x,0.5083763000002364,1,8,test2,2,0.5084797999998045,-42.0
4,yyq,f,18,r,1,(-3.163262682197613e-14, -172.20000000000002),27,-7,13,yes,x,5,x,0.35302020000017365,1,9,test2,2,0.3535691000006409,-52.0
4,yyq,f,18,r,1,(-121.76378772032352, -121.76378772032348),26,-25,14,yes,x,5,x,0.34679099999993923,1,10,test2,2,0.3470735999999306,-70.0
4,yyq,f,18,r,1,(121.76378772032346, -121.76378772032352),28,-5,12,yes,x,5,x,0.30765840000003664,1,11,test2,2,0.30778279999958613,-50.0
4,yyq,f,18,r,1,(121.76378772032346, -121.76378772032352),28,5,2,yes,x,5,x,0.38490360000014334,1,12,test2,2,0.38513049999983195,-40.0
4,yyq,f,18,r,1,(172.20000000000002, 0.0),21,-3,11,yes,x,5,x,0.3405595000003814,1,13,test2,2,0.3410071999996944,-48.0
4,yyq,f,18,r,1,(-172.20000000000002, 2.1088417881317425e-14),25,-7,13,no,m,6,m,0.41571160000057716,1,14,test2,2,0.415934799999377,-48.0
4,yyq,f,18,r,1,(-121.76378772032348, 121.76378772032349),24,-25,14,yes,x,5,x,0.3389147999996567,1,15,test2,2,0.3390745999995488,-70.0
4,yyq,f,18,r,1,(-172.20000000000002, 2.1088417881317425e-14),25,-25,14,yes,x,5,x,0.3754807000004803,1,16,test2,2,0.37589440000010654,-70.0
4,yyq,f,18,r,1,(-121.76378772032348, 121.76378772032349),24,-3,11,yes,x,5,m,0.5137045999999827,0,17,test2,2,0.5138672000002771,-48.0
4,yyq,f,18,r,1,(172.20000000000002, 0.0),21,-5,12,no,m,6,x,0.6632617000004757,0,18,test2,2,0.6636376999995264,-48.0
4,yyq,f,18,r,1,(172.20000000000002, 0.0),21,7,3,yes,x,5,x,0.44202709999990475,1,19,test2,2,0.4424945000000662,-38.0
4,yyq,f,18,r,1,(1.0544208940658713e-14, 172.20000000000002),23,7,3,yes,x,5,x,0.3648376000001008,1,20,test2,2,0.36493160000009084,-38.0
4,yyq,f,18,r,1,(172.20000000000002, 0.0),21,-5,12,yes,x,5,x,0.4643082000002323,1,21,test2,2,0.46444030000020575,-50.0
4,yyq,f,18,r,1,(-172.20000000000002, 2.1088417881317425e-14),25,-7,13,yes,x,5,x,0.34509950000028766,1,22,test2,2,0.3452326999995421,-52.0
4,yyq,f,18,r,1,(1.0544208940658713e-14, 172.20000000000002),23,-3,11,yes,x,5,x,0.5193907000002582,1,23,test2,2,0.5195103000005474,-48.0
4,yyq,f,18,r,1,(-121.76378772032348, 121.76378772032349),24,-7,13,yes,x,5,x,0.39744969999992463,1,24,test2,2,0.39757450000070094,-52.0
4,yyq,f,18,r,1,(-172.20000000000002, 2.1088417881317425e-14),25,3,1,yes,x,5,x,0.44944309999937104,1,25,test2,2,0.4496547999997347,-42.0
4,yyq,f,18,r,1,(-3.163262682197613e-14, -172.20000000000002),27,25,4,yes,x,5,x,0.4213138000004619,1,26,test2,2,0.4216309999992518,-20.0
4,yyq,f,18,r,1,(121.76378772032346, -121.76378772032352),28,-7,13,no,m,6,x,0.3851233000004868,0,27,test2,2,0.38525770000069315,-20.0
4,yyq,f,18,r,1,(-121.76378772032348, 121.76378772032349),24,25,4,yes,x,5,x,0.6409178000003521,1,28,test2,2,0.641146399999343,-20.0
4,yyq,f,18,r,1,(-172.20000000000002, 2.1088417881317425e-14),25,5,2,no,m,6,x,0.518224200000077,0,29,test2,2,0.5184543000004851,-20.0
4,yyq,f,18,r,1,(1.0544208940658713e-14, 172.20000000000002),23,25,4,yes,x,5,x,0.36560170000029757,1,30,test2,2,0.3657372999996369,-20.0
4,yyq,f,18,r,1,(-121.76378772032352, -121.76378772032348),26,-25,14,no,m,6,x,0.3587150000003021,0,31,test2,2,0.35882889999993495,-20.0
4,yyq,f,18,r,1,(172.20000000000002, 0.0),21,-25,14,no,m,6,x,0.5326142000003529,0,32,test2,2,0.5330004999996163,-20.0
4,yyq,f,18,r,1,(121.76378772032349, 121.76378772032349),22,3,1,yes,x,5,x,0.4529413000000204,1,33,test2,2,0.4530475999999908,-42.0
4,yyq,f,18,r,1,(-172.20000000000002, 2.1088417881317425e-14),25,3,1,no,m,6,x,0.45213739999962854,0,34,test2,2,0.4522393999995984,-42.0
4,yyq,f,18,r,1,(172.20000000000002, 0.0),21,-25,14,yes,x,5,x,0.3946798000006311,1,35,test2,2,0.39500110000062705,-70.0
4,yyq,f,18,r,1,(121.76378772032346, -121.76378772032352),28,3,1,yes,x,5,x,0.4783723000000464,1,36,test2,2,0.4784751999995933,-42.0
4,yyq,f,18,r,1,(-3.163262682197613e-14, -172.20000000000002),27,5,2,yes,x,5,x,0.3590684999999212,1,37,test2,2,0.3593031999998857,-40.0
4,yyq,f,18,r,1,(-3.163262682197613e-14, -172.20000000000002),27,7,3,no,m,6,x,0.5592981999998301,0,38,test2,2,0.5595954000000347,-40.0
4,yyq,f,18,r,1,(172.20000000000002, 0.0),21,3,1,yes,x,5,x,0.3457164000001285,1,39,test2,2,0.34581770000022516,-42.0
4,yyq,f,18,r,1,(172.20000000000002, 0.0),21,7,3,yes,x,5,x,0.3985032999999021,1,40,test2,2,0.3987268999999287,-38.0
4,yyq,f,18,r,1,(-121.76378772032348, 121.76378772032349),24,-5,12,yes,x,5,x,0.6940580000000409,1,41,test2,2,0.6941548999993756,-50.0
4,yyq,f,18,r,1,(121.76378772032346, -121.76378772032352),28,5,2,no,m,6,x,0.4363948000000164,0,42,test2,2,0.4365889000000607,-50.0
4,yyq,f,18,r,1,(-172.20000000000002, 2.1088417881317425e-14),25,25,4,yes,x,5,x,0.3506084999999075,1,43,test2,2,0.3510373000008258,-20.0
4,yyq,f,18,r,1,(-121.76378772032352, -121.76378772032348),26,-25,14,yes,x,5,x,0.32340060000024096,1,44,test2,2,0.32362469999952737,-70.0
4,yyq,f,18,r,1,(-172.20000000000002, 2.1088417881317425e-14),25,25,4,yes,x,5,x,0.3561221999998452,1,45,test2,2,0.3564520999998422,-20.0
4,yyq,f,18,r,1,(121.76378772032349, 121.76378772032349),22,7,3,yes,x,5,x,0.4455263999998351,1,46,test2,2,0.4463087000003725,-38.0
4,yyq,f,18,r,1,(121.76378772032346, -121.76378772032352),28,5,2,yes,x,5,x,0.31733540000004723,1,47,test2,2,0.31755079999948066,-40.0
4,yyq,f,18,r,1,(-121.76378772032348, 121.76378772032349),24,-7,13,yes,x,5,x,0.3489681000000928,1,48,test2,2,0.349196999999549,-52.0
4,yyq,f,18,r,1,(-3.163262682197613e-14, -172.20000000000002),27,3,1,no,m,6,x,0.3551249000001917,0,49,test2,2,0.35524939999959315,-52.0
4,yyq,f,18,r,1,(1.0544208940658713e-14, 172.20000000000002),23,25,4,no,m,6,x,0.46081230000072537,0,50,test2,2,0.46091059999980644,-52.0
4,yyq,f,18,r,1,(121.76378772032349, 121.76378772032349),22,-7,13,no,m,6,x,0.5306323999993765,0,51,test2,2,0.5307763000000705,-52.0
4,yyq,f,18,r,1,(121.76378772032346, -121.76378772032352),28,-25,14,yes,x,5,x,0.42445669999960955,1,52,test2,2,0.4245862000007037,-70.0
4,yyq,f,18,r,1,(-3.163262682197613e-14, -172.20000000000002),27,-3,11,yes,x,5,x,0.3590027000000191,1,53,test2,2,0.359106800000518,-48.0
4,yyq,f,18,r,1,(172.20000000000002, 0.0),21,3,1,yes,x,5,x,0.46161560000018653,1,54,test2,2,0.46203650000006746,-42.0
4,yyq,f,18,r,1,(-3.163262682197613e-14, -172.20000000000002),27,-7,13,no,m,6,x,0.3715726000000359,0,55,test2,2,0.3716727000000901,-42.0
4,yyq,f,18,r,1,(-172.20000000000002, 2.1088417881317425e-14),25,3,1,yes,x,5,x,0.3383533999995052,1,56,test2,2,0.33846850000009,-42.0
4,yyq,f,18,r,1,(-121.76378772032352, -121.76378772032348),26,-5,12,yes,x,5,x,0.43170159999954194,1,57,test2,2,0.4318039999998291,-50.0
4,yyq,f,18,r,1,(-121.76378772032348, 121.76378772032349),24,7,3,yes,x,5,x,0.37162940000052913,1,58,test2,2,0.37177799999972194,-38.0
4,yyq,f,18,r,1,(121.76378772032346, -121.76378772032352),28,-5,12,yes,x,5,x,0.3760530999998082,1,59,test2,2,0.37615550000009534,-50.0
4,yyq,f,18,r,1,(-121.76378772032348, 121.76378772032349),24,7,3,no,m,6,m,0.6717027000004236,1,60,test2,2,0.6718086000000767,-50.0
4,yyq,f,18,r,1,(1.0544208940658713e-14, 172.20000000000002),23,-3,11,no,m,6,m,0.46941050000077666,1,61,test2,2,0.46963529999993625,-50.0
4,yyq,f,18,r,1,(1.0544208940658713e-14, 172.20000000000002),23,-7,13,yes,x,5,x,0.4014176000000589,1,62,test2,2,0.40151760000026115,-52.0
4,yyq,f,18,r,1,(-172.20000000000002, 2.1088417881317425e-14),25,5,2,yes,x,5,x,0.3670105000001058,1,63,test2,2,0.36711250000007567,-40.0
4,yyq,f,18,r,1,(-172.20000000000002, 2.1088417881317425e-14),25,-3,11,yes,x,5,x,0.45928809999986697,1,64,test2,2,0.45987440000044444,-48.0
4,yyq,f,18,r,1,(1.0544208940658713e-14, 172.20000000000002),23,5,2,no,m,6,m,0.5362187000000631,1,65,test2,2,0.5363154999995459,-48.0
4,yyq,f,18,r,1,(121.76378772032349, 121.76378772032349),22,3,1,yes,x,5,m,0.6626500000002125,0,66,test2,2,0.6627643000001626,-42.0
4,yyq,f,18,r,1,(-121.76378772032352, -121.76378772032348),26,3,1,yes,x,5,m,0.5880526999999347,0,67,test2,2,0.5882580999996208,-42.0
4,yyq,f,18,r,1,(-121.76378772032352, -121.76378772032348),26,-5,12,yes,x,5,x,0.43731019999995624,1,68,test2,2,0.43745940000007977,-50.0
4,yyq,f,18,r,1,(1.0544208940658713e-14, 172.20000000000002),23,-7,13,yes,x,5,x,0.6435953000000154,1,69,test2,2,0.6441138999998657,-52.0
4,yyq,f,18,r,1,(121.76378772032349, 121.76378772032349),22,-3,11,no,m,6,m,0.46772060000057536,1,70,test2,2,0.46795250000013766,-52.0
4,yyq,f,18,r,1,(1.0544208940658713e-14, 172.20000000000002),23,3,1,yes,x,5,x,0.4569638999992094,1,71,test2,2,0.4570802999996886,-42.0
4,yyq,f,18,r,1,(172.20000000000002, 0.0),21,-25,14,yes,x,5,x,0.40760880000016186,1,72,test2,2,0.40770510000038485,-70.0
4,yyq,f,18,r,1,(1.0544208940658713e-14, 172.20000000000002),23,3,1,yes,x,5,m,0.43181169999934355,0,73,test2,2,0.43194489999950747,-42.0
4,yyq,f,18,r,1,(-121.76378772032352, -121.76378772032348),26,5,2,no,m,6,m,0.47871889999987616,1,74,test2,2,0.4788466999998491,-42.0
4,yyq,f,18,r,1,(-172.20000000000002, 2.1088417881317425e-14),25,7,3,no,m,6,m,0.49805900000046677,1,75,test2,2,0.4981599000002461,-42.0
4,yyq,f,18,r,1,(-121.76378772032352, -121.76378772032348),26,25,4,no,m,6,m,0.3933020000004035,1,76,test2,2,0.3934030000000348,-42.0
4,yyq,f,18,r,1,(121.76378772032346, -121.76378772032352),28,7,3,yes,x,5,m,0.441812399999435,0,77,test2,2,0.4424898999996003,-38.0
4,yyq,f,18,r,1,(-121.76378772032348, 121.76378772032349),24,3,1,yes,x,5,x,0.458780800000568,1,78,test2,2,0.4589379999997618,-42.0
4,yyq,f,18,r,1,(172.20000000000002, 0.0),21,5,2,no,m,6,m,0.45356990000072983,1,79,test2,2,0.45369729999947594,-42.0
4,yyq,f,18,r,1,(-3.163262682197613e-14, -172.20000000000002),27,-5,12,yes,x,5,m,0.3897697000002154,0,80,test2,2,0.389927300000636,-50.0
4,yyq,f,18,r,1,(-121.76378772032348, 121.76378772032349),24,3,1,no,m,6,m,0.4648925000001327,1,81,test2,2,0.46501159999934316,-50.0
4,yyq,f,18,r,1,(172.20000000000002, 0.0),21,3,1,no,m,6,m,0.5449545000001308,1,82,test2,2,0.5451751999999033,-50.0
4,yyq,f,18,r,1,(121.76378772032349, 121.76378772032349),22,-7,13,yes,x,5,x,0.4397910999996384,1,83,test2,2,0.4400894000000335,-52.0
4,yyq,f,18,r,1,(121.76378772032349, 121.76378772032349),22,25,4,yes,x,5,x,0.4074289000000135,1,84,test2,2,0.4076015999999072,-20.0
4,yyq,f,18,r,1,(-172.20000000000002, 2.1088417881317425e-14),25,5,2,yes,x,5,x,0.35283220000019355,1,85,test2,2,0.3529526000002079,-40.0
4,yyq,f,18,r,1,(-3.163262682197613e-14, -172.20000000000002),27,7,3,yes,x,5,x,0.3821085999998104,1,86,test2,2,0.38232479999987845,-38.0
4,yyq,f,18,r,1,(-121.76378772032348, 121.76378772032349),24,-3,11,no,m,6,x,0.6260724000003393,0,87,test2,2,0.6262819000003219,-38.0
4,yyq,f,18,r,1,(121.76378772032346, -121.76378772032352),28,-3,11,yes,x,5,m,0.4289160999996966,0,88,test2,2,0.4290421999994578,-48.0
4,yyq,f,18,r,1,(121.76378772032346, -121.76378772032352),28,-7,13,yes,x,5,x,0.5850381000000198,1,89,test2,2,0.5852336000007199,-52.0
4,yyq,f,18,r,1,(-3.163262682197613e-14, -172.20000000000002),27,-3,11,yes,x,5,m,0.6510465999999724,0,90,test2,2,0.6515218999993522,-48.0
4,yyq,f,18,r,1,(-172.20000000000002, 2.1088417881317425e-14),25,25,4,no,m,6,m,0.5010223999997834,1,91,test2,2,0.5011265000002822,-48.0
4,yyq,f,18,r,1,(-121.76378772032352, -121.76378772032348),26,-7,13,no,m,6,m,0.5386339999995471,1,92,test2,2,0.5387491999999838,-48.0
4,yyq,f,18,r,1,(121.76378772032349, 121.76378772032349),22,5,2,no,m,6,m,0.4617519000003085,1,93,test2,2,0.46198480000020936,-48.0
4,yyq,f,18,r,1,(121.76378772032349, 121.76378772032349),22,-25,14,yes,x,5,x,0.6135228000002826,1,94,test2,2,0.6136246000005485,-70.0
4,yyq,f,18,r,1,(-121.76378772032352, -121.76378772032348),26,-7,13,yes,x,5,x,0.3889817999997831,1,95,test2,2,0.3892863999999463,-52.0
4,yyq,f,18,r,1,(-172.20000000000002, 2.1088417881317425e-14),25,-25,14,yes,x,5,x,0.3478832999999213,1,96,test2,2,0.34819359999983135,-70.0
4,yyq,f,18,r,1,(121.76378772032346, -121.76378772032352),28,7,3,no,m,6,m,0.508991500000775,1,1,test1,3,0.509343099999569,-70.0
4,yyq,f,18,r,1,(121.76378772032349, 121.76378772032349),22,-5,12,yes,x,5,x,0.3528182000000015,1,2,test1,3,0.3530644000002212,-50.0
4,yyq,f,18,r,1,(-3.163262682197613e-14, -172.20000000000002),27,-25,14,yes,x,5,x,0.34885839999969903,1,3,test1,3,0.3492166999994879,-70.0
4,yyq,f,18,r,1,(-172.20000000000002, 2.1088417881317425e-14),25,-5,12,no,m,6,m,0.4337021999999706,1,4,test1,3,0.4338023999998768,-70.0
4,yyq,f,18,r,1,(-121.76378772032352, -121.76378772032348),26,7,3,no,m,6,x,0.3190782000001491,0,5,test1,3,0.3191827000000558,-70.0
4,yyq,f,18,r,1,(-3.163262682197613e-14, -172.20000000000002),27,-5,12,no,m,6,m,0.376040500000272,1,6,test1,3,0.3761387000004106,-70.0
4,yyq,f,18,r,1,(-121.76378772032348, 121.76378772032349),24,-5,12,yes,x,5,x,0.33614680000027874,1,7,test1,3,0.3364158000003954,-50.0
4,yyq,f,18,r,1,(-121.76378772032352, -121.76378772032348),26,25,4,yes,x,5,x,0.3442016999997577,1,8,test1,3,0.3443974000001617,-20.0
4,yyq,f,18,r,1,(-121.76378772032348, 121.76378772032349),24,25,4,no,m,6,m,0.2626500999995187,1,9,test1,3,0.26288039999963075,-20.0
4,yyq,f,18,r,1,(172.20000000000002, 0.0),21,25,4,yes,x,5,x,0.3655194000002666,1,10,test1,3,0.3658487000002424,-20.0
4,yyq,f,18,r,1,(121.76378772032349, 121.76378772032349),22,-3,11,yes,x,5,m,0.43518260000018927,0,11,test1,3,0.4352824999996301,-48.0
4,yyq,f,18,r,1,(172.20000000000002, 0.0),21,-3,11,yes,x,5,x,0.4047952000000805,1,12,test1,3,0.40505450000000565,-48.0
4,yyq,f,18,r,1,(172.20000000000002, 0.0),21,-7,13,no,m,6,x,0.40961890000016865,0,13,test1,3,0.40987440000026254,-48.0
4,yyq,f,18,r,1,(-3.163262682197613e-14, -172.20000000000002),27,7,3,yes,x,5,x,0.5047867000002952,1,14,test1,3,0.5049208000000363,-38.0
4,yyq,f,18,r,1,(172.20000000000002, 0.0),21,-3,11,no,m,6,m,0.7835869000000457,1,15,test1,3,0.7838111000000936,-38.0
4,yyq,f,18,r,1,(-121.76378772032348, 121.76378772032349),24,5,2,yes,x,5,x,0.3796628999998575,1,16,test1,3,0.3797610000001441,-40.0
4,yyq,f,18,r,1,(1.0544208940658713e-14, 172.20000000000002),23,5,2,yes,x,5,x,0.5062120000002324,1,17,test1,3,0.5063399999999092,-40.0
4,yyq,f,18,r,1,(-121.76378772032352, -121.76378772032348),26,5,2,yes,x,5,x,0.41616119999980583,1,18,test1,3,0.4163730999998734,-40.0
4,yyq,f,18,r,1,(-121.76378772032352, -121.76378772032348),26,25,4,yes,x,5,x,0.3409650999992664,1,19,test1,3,0.341067600000315,-20.0
4,yyq,f,18,r,1,(-172.20000000000002, 2.1088417881317425e-14),25,7,3,yes,x,5,x,0.3509729999996125,1,20,test1,3,0.3510913000000073,-38.0
4,yyq,f,18,r,1,(1.0544208940658713e-14, 172.20000000000002),23,7,3,yes,x,5,x,0.3746475999996619,1,21,test1,3,0.3749457000003531,-38.0
4,yyq,f,18,r,1,(121.76378772032346, -121.76378772032352),28,-25,14,yes,x,5,x,0.37568999999984953,1,22,test1,3,0.3758501999991495,-70.0
4,yyq,f,18,r,1,(-121.76378772032348, 121.76378772032349),24,-5,12,no,m,6,m,0.44748410000011063,1,23,test1,3,0.4477697000002081,-70.0
4,yyq,f,18,r,1,(1.0544208940658713e-14, 172.20000000000002),23,-25,14,yes,x,5,x,0.3793183999996472,1,24,test1,3,0.379444400000466,-70.0
4,yyq,f,18,r,1,(-121.76378772032348, 121.76378772032349),24,5,2,yes,x,5,x,0.3560007999994923,1,25,test1,3,0.35611580000022514,-40.0
4,yyq,f,18,r,1,(-121.76378772032352, -121.76378772032348),26,7,3,yes,x,5,x,0.522973600000114,1,26,test1,3,0.5233700999997382,-38.0
4,yyq,f,18,r,1,(121.76378772032346, -121.76378772032352),28,3,1,no,m,6,x,0.48401600000033795,0,27,test1,3,0.48451790000035544,-38.0
4,yyq,f,18,r,1,(-121.76378772032352, -121.76378772032348),26,-3,11,yes,x,5,x,0.38069999999970605,1,28,test1,3,0.3809123000000909,-48.0
4,yyq,f,18,r,1,(172.20000000000002, 0.0),21,25,4,no,m,6,m,0.4126869000001534,1,29,test1,3,0.4131962999999814,-48.0
4,yyq,f,18,r,1,(172.20000000000002, 0.0),21,5,2,yes,x,5,x,0.3426192999995692,1,30,test1,3,0.34284280000065337,-40.0
4,yyq,f,18,r,1,(121.76378772032346, -121.76378772032352),28,-3,11,no,m,6,x,0.4530706999994436,0,31,test1,3,0.4531727999992654,-40.0
4,yyq,f,18,r,1,(121.76378772032346, -121.76378772032352),28,-25,14,no,m,6,m,0.4057991999998194,1,32,test1,3,0.40596219999952154,-40.0
4,yyq,f,18,r,1,(-3.163262682197613e-14, -172.20000000000002),27,-5,12,yes,x,5,x,0.3227458999999726,1,33,test1,3,0.32287369999994553,-50.0
4,yyq,f,18,r,1,(-121.76378772032352, -121.76378772032348),26,7,3,yes,x,5,x,0.40280840000013995,1,34,test1,3,0.40291609999985667,-38.0
4,yyq,f,18,r,1,(-172.20000000000002, 2.1088417881317425e-14),25,-3,11,no,m,6,x,0.4330698999992819,0,35,test1,3,0.43319960000007995,-38.0
4,yyq,f,18,r,1,(-121.76378772032348, 121.76378772032349),24,-25,14,yes,x,5,x,0.38062799999988783,1,36,test1,3,0.3807912000002034,-70.0
4,yyq,f,18,r,1,(-3.163262682197613e-14, -172.20000000000002),27,-7,13,yes,x,5,x,0.4024574000004577,1,37,test1,3,0.40268749999995634,-52.0
4,yyq,f,18,r,1,(1.0544208940658713e-14, 172.20000000000002),23,-5,12,yes,x,5,x,0.42845460000080493,1,38,test1,3,0.42868780000026163,-50.0
4,yyq,f,18,r,1,(172.20000000000002, 0.0),21,-7,13,yes,x,5,m,0.4110505999997258,0,39,test1,3,0.41117750000012165,-52.0
4,yyq,f,18,r,1,(121.76378772032349, 121.76378772032349),22,-25,14,no,m,6,x,0.6022901000005731,0,40,test1,3,0.60251530000005,-52.0
4,yyq,f,18,r,1,(-121.76378772032348, 121.76378772032349),24,-25,14,no,m,6,m,0.494277200000397,1,41,test1,3,0.4944992999999158,-52.0
4,yyq,f,18,r,1,(121.76378772032349, 121.76378772032349),22,7,3,no,m,6,m,0.5080446000001757,1,42,test1,3,0.5081415000004199,-52.0
4,yyq,f,18,r,1,(1.0544208940658713e-14, 172.20000000000002),23,-5,12,yes,x,5,x,0.4330926000002364,1,43,test1,3,0.4332414999998946,-50.0
4,yyq,f,18,r,1,(1.0544208940658713e-14, 172.20000000000002),23,-3,11,yes,x,5,x,0.38663650000034977,1,44,test1,3,0.3867477999992843,-48.0
4,yyq,f,18,r,1,(121.76378772032349, 121.76378772032349),22,-3,11,yes,x,5,m,0.5209789999998975,0,45,test1,3,0.5213260999998965,-48.0
4,yyq,f,18,r,1,(172.20000000000002, 0.0),21,25,4,yes,x,5,x,0.4005034000001615,1,46,test1,3,0.401447599999301,-20.0
4,yyq,f,18,r,1,(-121.76378772032352, -121.76378772032348),26,-3,11,yes,x,5,m,0.4235717999999906,0,47,test1,3,0.4239520999999513,-48.0
4,yyq,f,18,r,1,(-172.20000000000002, 2.1088417881317425e-14),25,-3,11,yes,x,5,x,0.3539479000000938,1,48,test1,3,0.35492620000059105,-48.0
4,yyq,f,18,r,1,(121.76378772032349, 121.76378772032349),22,25,4,yes,x,5,x,0.3952231000002939,1,49,test1,3,0.3953251000002638,-20.0
4,yyq,f,18,r,1,(-121.76378772032352, -121.76378772032348),26,-7,13,yes,x,5,x,0.39498399999956746,1,50,test1,3,0.3951169000001755,-52.0
4,yyq,f,18,r,1,(-3.163262682197613e-14, -172.20000000000002),27,-3,11,no,m,6,m,0.46115999999983615,1,51,test1,3,0.461485900000298,-52.0
4,yyq,f,18,r,1,(-121.76378772032348, 121.76378772032349),24,5,2,no,m,6,m,0.41286140000011073,1,52,test1,3,0.4130998999999065,-52.0
4,yyq,f,18,r,1,(121.76378772032346, -121.76378772032352),28,25,4,yes,x,5,x,0.4211960000002364,1,53,test1,3,0.4213106000006519,-20.0
4,yyq,f,18,r,1,(-172.20000000000002, 2.1088417881317425e-14),25,-5,12,yes,x,5,x,0.38570869999966817,1,54,test1,3,0.3860316000000239,-50.0
4,yyq,f,18,r,1,(172.20000000000002, 0.0),21,-7,13,yes,x,5,x,0.4779197000007116,1,55,test1,3,0.47801849999996193,-52.0
4,yyq,f,18,r,1,(-121.76378772032352, -121.76378772032348),26,5,2,yes,x,5,x,0.37781790000008186,1,56,test1,3,0.3779421999997794,-40.0
4,yyq,f,18,r,1,(121.76378772032349, 121.76378772032349),22,7,3,yes,x,5,x,0.41937679999955435,1,57,test1,3,0.4195844000005309,-38.0
4,yyq,f,18,r,1,(-172.20000000000002, 2.1088417881317425e-14),25,-5,12,yes,x,5,x,0.4886285000002317,1,58,test1,3,0.48884650000036345,-50.0
4,yyq,f,18,r,1,(121.76378772032349, 121.76378772032349),22,5,2,yes,x,5,x,0.32119089999923744,1,59,test1,3,0.3214725999996517,-40.0
4,yyq,f,18,r,1,(1.0544208940658713e-14, 172.20000000000002),23,-25,14,yes,x,5,x,0.33111639999970066,1,60,test1,3,0.33123109999996814,-70.0
4,yyq,f,18,r,1,(121.76378772032346, -121.76378772032352),28,25,4,yes,x,5,x,0.35046220000003814,1,61,test1,3,0.35058289999960834,-20.0
4,yyq,f,18,r,1,(121.76378772032346, -121.76378772032352),28,3,1,yes,x,5,x,0.2861579000000347,1,62,test1,3,0.2869957000002614,-42.0
4,yyq,f,18,r,1,(121.76378772032346, -121.76378772032352),28,25,4,no,m,6,x,0.3150261999999202,0,63,test1,3,0.3151246999996147,-42.0
4,yyq,f,18,r,1,(-121.76378772032352, -121.76378772032348),26,3,1,yes,x,5,m,0.4325901000001977,0,64,test1,3,0.4326908999992156,-42.0
4,yyq,f,18,r,1,(121.76378772032346, -121.76378772032352),28,7,3,yes,x,5,x,0.35303769999973156,1,65,test1,3,0.3532702000002246,-38.0
4,yyq,f,18,r,1,(-121.76378772032348, 121.76378772032349),24,-3,11,yes,x,5,x,0.34826030000022,1,66,test1,3,0.34848520000014105,-48.0
4,yyq,f,18,r,1,(121.76378772032349, 121.76378772032349),22,25,4,no,m,6,x,0.3965619999999035,0,67,test1,3,0.3967300000003888,-48.0
4,yyq,f,18,r,1,(-172.20000000000002, 2.1088417881317425e-14),25,-25,14,no,m,6,m,0.4335713999998916,1,68,test1,3,0.4338589000008142,-48.0
4,yyq,f,18,r,1,(-121.76378772032348, 121.76378772032349),24,-7,13,no,m,6,m,0.3513659000000189,1,69,test1,3,0.351464099999248,-48.0
4,yyq,f,18,r,1,(-3.163262682197613e-14, -172.20000000000002),27,25,4,yes,x,5,m,0.3837407999999414,0,70,test1,3,0.38402730000052543,-20.0
4,yyq,f,18,r,1,(-121.76378772032352, -121.76378772032348),26,3,1,no,m,6,m,0.4374130000005607,1,71,test1,3,0.437514000000192,-20.0
4,yyq,f,18,r,1,(-121.76378772032352, -121.76378772032348),26,-5,12,no,m,6,m,0.41569369999979244,1,72,test1,3,0.4159097000001566,-20.0
4,yyq,f,18,r,1,(-3.163262682197613e-14, -172.20000000000002),27,-25,14,yes,x,5,x,0.3630758999997852,1,73,test1,3,0.36338569999952597,-70.0
4,yyq,f,18,r,1,(-3.163262682197613e-14, -172.20000000000002),27,5,2,no,m,6,m,0.3750385000003007,1,74,test1,3,0.3752007999992202,-70.0
4,yyq,f,18,r,1,(1.0544208940658713e-14, 172.20000000000002),23,7,3,no,m,6,x,0.272823100000096,0,75,test1,3,0.2730578000000605,-70.0
4,yyq,f,18,r,1,(121.76378772032349, 121.76378772032349),22,-5,12,no,m,6,m,0.49610889999985375,1,76,test1,3,0.4962084999997387,-70.0
4,yyq,f,18,r,1,(172.20000000000002, 0.0),21,5,2,yes,x,5,x,0.543940699999439,1,77,test1,3,0.5441534999999931,-40.0
4,yyq,f,18,r,1,(-3.163262682197613e-14, -172.20000000000002),27,3,1,yes,x,5,m,0.33297359999960463,0,78,test1,3,0.3335015000002386,-42.0
4,yyq,f,18,r,1,(-121.76378772032352, -121.76378772032348),26,-3,11,no,m,6,m,0.4263944000003903,1,79,test1,3,0.4267966000006709,-42.0
4,yyq,f,18,r,1,(121.76378772032349, 121.76378772032349),22,3,1,no,m,6,m,0.32004520000009506,1,80,test1,3,0.32035720000021684,-42.0
4,yyq,f,18,r,1,(-172.20000000000002, 2.1088417881317425e-14),25,-7,13,yes,x,5,x,0.41614539999955014,1,81,test1,3,0.41652220000014495,-52.0
4,yyq,f,18,r,1,(121.76378772032346, -121.76378772032352),28,-3,11,yes,x,5,m,0.5087300999994113,0,82,test1,3,0.5090513000004648,-48.0
4,yyq,f,18,r,1,(1.0544208940658713e-14, 172.20000000000002),23,25,4,yes,x,5,x,0.5010290999998688,1,83,test1,3,0.5011770999999499,-20.0
4,yyq,f,18,r,1,(1.0544208940658713e-14, 172.20000000000002),23,3,1,no,m,6,m,0.4951981000003798,1,84,test1,3,0.4953126999998858,-20.0
4,yyq,f,18,r,1,(121.76378772032346, -121.76378772032352),28,-5,12,no,m,6,m,0.4047042000001966,1,85,test1,3,0.40533179999965796,-20.0
4,yyq,f,18,r,1,(-172.20000000000002, 2.1088417881317425e-14),25,7,3,yes,x,5,m,0.44815360000029614,0,86,test1,3,0.4482562000002872,-38.0
4,yyq,f,18,r,1,(121.76378772032349, 121.76378772032349),22,-25,14,yes,x,5,x,0.40779670000029,1,87,test1,3,0.40789459999996325,-70.0
4,yyq,f,18,r,1,(121.76378772032349, 121.76378772032349),22,-5,12,yes,x,5,m,0.4835135999992417,0,88,test1,3,0.4836930999999822,-50.0
4,yyq,f,18,r,1,(-3.163262682197613e-14, -172.20000000000002),27,-25,14,no,m,6,m,0.5013470000003508,1,89,test1,3,0.5014455999998972,-50.0
4,yyq,f,18,r,1,(-3.163262682197613e-14, -172.20000000000002),27,5,2,yes,x,5,m,0.45227429999977176,0,90,test1,3,0.45247590000053606,-40.0
4,yyq,f,18,r,1,(1.0544208940658713e-14, 172.20000000000002),23,5,2,yes,x,5,m,0.5290333000002647,0,91,test1,3,0.5294489000007161,-40.0
4,yyq,f,18,r,1,(-121.76378772032348, 121.76378772032349),24,7,3,yes,x,5,x,0.44538310000007186,1,92,test1,3,0.4455227000007653,-38.0
4,yyq,f,18,r,1,(172.20000000000002, 0.0),21,7,3,no,m,6,m,0.49313139999958366,1,93,test1,3,0.49336659999971744,-38.0
4,yyq,f,18,r,1,(-121.76378772032348, 121.76378772032349),24,25,4,yes,x,5,x,0.49001940000016475,1,94,test1,3,0.4901552000001175,-20.0
4,yyq,f,18,r,1,(1.0544208940658713e-14, 172.20000000000002),23,-7,13,no,m,6,m,0.46069230000011885,1,95,test1,3,0.4613123999997697,-20.0
4,yyq,f,18,r,1,(-121.76378772032348, 121.76378772032349),24,3,1,yes,x,5,x,0.397910800000318,1,96,test1,3,0.3981378999997105,-42.0
4,yyq,f,18,r,1,(1.0544208940658713e-14, 172.20000000000002),23,-5,12,no,m,6,m,0.4587302999998428,1,1,test2,3,0.45886849999988044,-42.0
4,yyq,f,18,r,1,(172.20000000000002, 0.0),21,-5,12,yes,x,5,x,0.4000151000000187,1,2,test2,3,0.4003121000005194,-50.0
4,yyq,f,18,r,1,(1.0544208940658713e-14, 172.20000000000002),23,-25,14,no,m,6,m,0.43337830000018585,1,3,test2,3,0.4336280000006809,-50.0
4,yyq,f,18,r,1,(121.76378772032349, 121.76378772032349),22,5,2,yes,x,5,x,0.37365030000000843,1,4,test2,3,0.37397599999985687,-40.0
4,yyq,f,18,r,1,(121.76378772032346, -121.76378772032352),28,-7,13,yes,x,5,m,0.37466369999947347,0,5,test2,3,0.37482730000010633,-52.0
4,yyq,f,18,r,1,(121.76378772032349, 121.76378772032349),22,-7,13,yes,x,5,x,0.40253240000038204,1,6,test2,3,0.4026313000003938,-52.0
4,yyq,f,18,r,1,(-3.163262682197613e-14, -172.20000000000002),27,25,4,no,m,6,x,0.45118300000012823,0,7,test2,3,0.4512956000007762,-52.0
4,yyq,f,18,r,1,(-3.163262682197613e-14, -172.20000000000002),27,3,1,yes,x,5,x,0.39938340000026074,1,8,test2,3,0.39949460000025283,-42.0
4,yyq,f,18,r,1,(-3.163262682197613e-14, -172.20000000000002),27,-7,13,yes,x,5,x,0.36092719999942346,1,9,test2,3,0.3610259999995833,-52.0
4,yyq,f,18,r,1,(-121.76378772032352, -121.76378772032348),26,-25,14,yes,x,5,x,0.34218460000010964,1,10,test2,3,0.3424457999999504,-70.0
4,yyq,f,18,r,1,(121.76378772032346, -121.76378772032352),28,-5,12,yes,x,5,m,0.3909741000006761,0,11,test2,3,0.3915834999997969,-50.0
4,yyq,f,18,r,1,(121.76378772032346, -121.76378772032352),28,5,2,yes,x,5,x,0.3357036999996126,1,12,test2,3,0.33611329999985173,-40.0
4,yyq,f,18,r,1,(172.20000000000002, 0.0),21,-3,11,yes,x,5,x,0.32401670000035665,1,13,test2,3,0.32418669999970007,-48.0
4,yyq,f,18,r,1,(-172.20000000000002, 2.1088417881317425e-14),25,-7,13,no,m,6,m,0.5278892999995151,1,14,test2,3,0.5284043999999994,-48.0
4,yyq,f,18,r,1,(-121.76378772032348, 121.76378772032349),24,-25,14,yes,x,5,x,0.357216100000187,1,15,test2,3,0.35731660000055854,-70.0
4,yyq,f,18,r,1,(-172.20000000000002, 2.1088417881317425e-14),25,-25,14,yes,x,5,x,0.40719329999956244,1,16,test2,3,0.4074231000004147,-70.0
4,yyq,f,18,r,1,(-121.76378772032348, 121.76378772032349),24,-3,11,yes,x,5,m,0.4869054999999207,0,17,test2,3,0.48713150000003225,-48.0
4,yyq,f,18,r,1,(172.20000000000002, 0.0),21,-5,12,no,m,6,x,0.44281389999923704,0,18,test2,3,0.4430288000003202,-48.0
4,yyq,f,18,r,1,(172.20000000000002, 0.0),21,7,3,yes,x,5,m,0.405044000000089,0,19,test2,3,0.40525500000057946,-38.0
4,yyq,f,18,r,1,(1.0544208940658713e-14, 172.20000000000002),23,7,3,yes,x,5,x,0.3861752000002525,1,20,test2,3,0.38628760000028706,-38.0
4,yyq,f,18,r,1,(172.20000000000002, 0.0),21,-5,12,yes,x,5,m,0.39029949999985547,0,21,test2,3,0.39040119999935996,-50.0
4,yyq,f,18,r,1,(-172.20000000000002, 2.1088417881317425e-14),25,-7,13,yes,x,5,x,0.3681856000002881,1,22,test2,3,0.36856410000018514,-52.0
4,yyq,f,18,r,1,(1.0544208940658713e-14, 172.20000000000002),23,-3,11,yes,x,5,x,0.5940663000001223,1,23,test2,3,0.5942002000001594,-48.0
4,yyq,f,18,r,1,(-121.76378772032348, 121.76378772032349),24,-7,13,yes,x,5,x,0.4110190000001239,1,24,test2,3,0.41125169999941136,-52.0
4,yyq,f,18,r,1,(-172.20000000000002, 2.1088417881317425e-14),25,3,1,yes,x,5,x,0.5408359000002747,1,25,test2,3,0.5415077999996356,-42.0
4,yyq,f,18,r,1,(-3.163262682197613e-14, -172.20000000000002),27,25,4,yes,x,5,x,0.3682216999995944,1,26,test2,3,0.3684468999999808,-20.0
4,yyq,f,18,r,1,(121.76378772032346, -121.76378772032352),28,-7,13,no,m,6,x,0.3219637000001967,0,27,test2,3,0.3222602999994706,-20.0
4,yyq,f,18,r,1,(-121.76378772032348, 121.76378772032349),24,25,4,yes,x,5,x,0.3204617999999755,1,28,test2,3,0.3207119999997303,-20.0
4,yyq,f,18,r,1,(-172.20000000000002, 2.1088417881317425e-14),25,5,2,no,m,6,x,0.35639050000008865,0,29,test2,3,0.3564906000001429,-20.0
4,yyq,f,18,r,1,(1.0544208940658713e-14, 172.20000000000002),23,25,4,yes,x,5,x,0.3407526000000871,1,30,test2,3,0.34095720000004803,-20.0
4,yyq,f,18,r,1,(-121.76378772032352, -121.76378772032348),26,-25,14,no,m,6,x,0.286711099999593,0,31,test2,3,0.287071300000207,-20.0
4,yyq,f,18,r,1,(172.20000000000002, 0.0),21,-25,14,no,m,6,m,0.5466999000000214,1,32,test2,3,0.5467964999998003,-20.0
4,yyq,f,18,r,1,(121.76378772032349, 121.76378772032349),22,3,1,yes,x,5,x,0.4026538999996774,1,33,test2,3,0.4028719000007186,-42.0
4,yyq,f,18,r,1,(-172.20000000000002, 2.1088417881317425e-14),25,3,1,no,m,6,m,0.47178859999985434,1,34,test2,3,0.4719108999997843,-42.0
4,yyq,f,18,r,1,(172.20000000000002, 0.0),21,-25,14,yes,x,5,x,0.3954519999997501,1,35,test2,3,0.39570110000022396,-70.0
4,yyq,f,18,r,1,(121.76378772032346, -121.76378772032352),28,3,1,yes,x,5,m,0.42164649999995163,0,36,test2,3,0.42209509999975126,-42.0
4,yyq,f,18,r,1,(-3.163262682197613e-14, -172.20000000000002),27,5,2,yes,x,5,x,0.43026089999966644,1,37,test2,3,0.43065930000011576,-40.0
4,yyq,f,18,r,1,(-3.163262682197613e-14, -172.20000000000002),27,7,3,no,m,6,x,0.4426389999998719,0,38,test2,3,0.4428194000001895,-40.0
4,yyq,f,18,r,1,(172.20000000000002, 0.0),21,3,1,yes,x,5,x,0.5055195999993884,1,39,test2,3,0.5057519000001776,-42.0
4,yyq,f,18,r,1,(172.20000000000002, 0.0),21,7,3,yes,x,5,x,0.4332382000002326,1,40,test2,3,0.4334484999999404,-38.0
4,yyq,f,18,r,1,(-121.76378772032348, 121.76378772032349),24,-5,12,yes,x,5,x,0.4184698999997636,1,41,test2,3,0.4187108999994962,-50.0
4,yyq,f,18,r,1,(121.76378772032346, -121.76378772032352),28,5,2,no,m,6,m,0.5494974000002912,1,42,test2,3,0.5496203000002424,-50.0
4,yyq,f,18,r,1,(-172.20000000000002, 2.1088417881317425e-14),25,25,4,yes,x,5,x,0.36797329999990325,1,43,test2,3,0.3681384000001344,-20.0
4,yyq,f,18,r,1,(-121.76378772032352, -121.76378772032348),26,-25,14,yes,x,5,x,0.4447853000001487,1,44,test2,3,0.4450886000004175,-70.0
4,yyq,f,18,r,1,(-172.20000000000002, 2.1088417881317425e-14),25,25,4,yes,x,5,x,0.33870519999982207,1,45,test2,3,0.33886750000056054,-20.0
4,yyq,f,18,r,1,(121.76378772032349, 121.76378772032349),22,7,3,yes,x,5,x,0.44883329999993293,1,46,test2,3,0.4494776000001366,-38.0
4,yyq,f,18,r,1,(121.76378772032346, -121.76378772032352),28,5,2,yes,x,5,x,0.2978610000000117,1,47,test2,3,0.2979615999993257,-40.0
4,yyq,f,18,r,1,(-121.76378772032348, 121.76378772032349),24,-7,13,yes,x,5,m,0.5731442999995124,0,48,test2,3,0.5733768999998574,-52.0
4,yyq,f,18,r,1,(-3.163262682197613e-14, -172.20000000000002),27,3,1,no,m,6,m,0.40298859999984415,1,49,test2,3,0.40338729999984935,-52.0
4,yyq,f,18,r,1,(1.0544208940658713e-14, 172.20000000000002),23,25,4,no,m,6,m,0.4820294000001013,1,50,test2,3,0.4823998000001666,-52.0
4,yyq,f,18,r,1,(121.76378772032349, 121.76378772032349),22,-7,13,no,m,6,x,0.3802897999994457,0,51,test2,3,0.38053190000027826,-52.0
4,yyq,f,18,r,1,(121.76378772032346, -121.76378772032352),28,-25,14,yes,x,5,x,0.3793487999992067,1,52,test2,3,0.3795838999994885,-70.0
4,yyq,f,18,r,1,(-3.163262682197613e-14, -172.20000000000002),27,-3,11,yes,x,5,x,0.3854009999995469,1,53,test2,3,0.3855859999994209,-48.0
4,yyq,f,18,r,1,(172.20000000000002, 0.0),21,3,1,yes,x,5,x,0.34299319999990985,1,54,test2,3,0.34312299999965035,-42.0
4,yyq,f,18,r,1,(-3.163262682197613e-14, -172.20000000000002),27,-7,13,no,m,6,x,0.32083310000052734,0,55,test2,3,0.32136420000006183,-42.0
4,yyq,f,18,r,1,(-172.20000000000002, 2.1088417881317425e-14),25,3,1,yes,x,5,x,0.35628560000077414,1,56,test2,3,0.35679239999990386,-42.0
4,yyq,f,18,r,1,(-121.76378772032352, -121.76378772032348),26,-5,12,yes,x,5,x,0.46924570000010135,1,57,test2,3,0.46937979999984236,-50.0
4,yyq,f,18,r,1,(-121.76378772032348, 121.76378772032349),24,7,3,yes,x,5,x,0.4681858000003558,1,58,test2,3,0.46828410000034637,-38.0
4,yyq,f,18,r,1,(121.76378772032346, -121.76378772032352),28,-5,12,yes,x,5,x,0.37111819999972795,1,59,test2,3,0.37143770000056975,-50.0
4,yyq,f,18,r,1,(-121.76378772032348, 121.76378772032349),24,7,3,no,m,6,x,0.27600389999952313,0,60,test2,3,0.27627620000021125,-50.0
4,yyq,f,18,r,1,(1.0544208940658713e-14, 172.20000000000002),23,-3,11,no,m,6,m,0.6353325000000041,1,61,test2,3,0.6358603999997285,-50.0
4,yyq,f,18,r,1,(1.0544208940658713e-14, 172.20000000000002),23,-7,13,yes,x,5,x,0.3242663999999422,1,62,test2,3,0.3246134000000893,-52.0
4,yyq,f,18,r,1,(-172.20000000000002, 2.1088417881317425e-14),25,5,2,yes,x,5,x,0.34110489999966376,1,63,test2,3,0.3412263999998686,-40.0
4,yyq,f,18,r,1,(-172.20000000000002, 2.1088417881317425e-14),25,-3,11,yes,x,5,m,0.41325310000047466,0,64,test2,3,0.4133542999998099,-48.0
4,yyq,f,18,r,1,(1.0544208940658713e-14, 172.20000000000002),23,5,2,no,m,6,x,0.42135939999934635,0,65,test2,3,0.42162199999984296,-48.0
4,yyq,f,18,r,1,(121.76378772032349, 121.76378772032349),22,3,1,yes,x,5,m,0.4119888000004721,0,66,test2,3,0.4121468000003006,-42.0
4,yyq,f,18,r,1,(-121.76378772032352, -121.76378772032348),26,3,1,yes,x,5,x,0.299707699999999,1,67,test2,3,0.3000637999994069,-42.0
4,yyq,f,18,r,1,(-121.76378772032352, -121.76378772032348),26,-5,12,yes,x,5,x,0.37495530000069266,1,68,test2,3,0.3753798999996434,-50.0
4,yyq,f,18,r,1,(1.0544208940658713e-14, 172.20000000000002),23,-7,13,yes,x,5,x,0.42594539999936387,1,69,test2,3,0.4260444000001371,-52.0
4,yyq,f,18,r,1,(121.76378772032349, 121.76378772032349),22,-3,11,no,m,6,x,0.40376000000014756,0,70,test2,3,0.4038797000002887,-52.0
4,yyq,f,18,r,1,(1.0544208940658713e-14, 172.20000000000002),23,3,1,yes,x,5,m,0.41635519999999815,0,71,test2,3,0.4164819000006901,-42.0
4,yyq,f,18,r,1,(172.20000000000002, 0.0),21,-25,14,yes,x,5,x,0.4012124999999287,1,72,test2,3,0.40156279999973776,-70.0
4,yyq,f,18,r,1,(1.0544208940658713e-14, 172.20000000000002),23,3,1,yes,x,5,x,0.4011299000003419,1,73,test2,3,0.40130039999985456,-42.0
4,yyq,f,18,r,1,(-121.76378772032352, -121.76378772032348),26,5,2,no,m,6,x,0.38839180000013585,0,74,test2,3,0.38852020000013,-42.0
4,yyq,f,18,r,1,(-172.20000000000002, 2.1088417881317425e-14),25,7,3,no,m,6,x,0.3226344999993671,0,75,test2,3,0.32273069999973814,-42.0
4,yyq,f,18,r,1,(-121.76378772032352, -121.76378772032348),26,25,4,no,m,6,m,0.4346202999995512,1,76,test2,3,0.434728900000664,-42.0
4,yyq,f,18,r,1,(121.76378772032346, -121.76378772032352),28,7,3,yes,x,5,x,0.44364499999937834,1,77,test2,3,0.443864200000462,-38.0
4,yyq,f,18,r,1,(-121.76378772032348, 121.76378772032349),24,3,1,yes,x,5,x,0.40537570000014966,1,78,test2,3,0.4055868000004921,-42.0
4,yyq,f,18,r,1,(172.20000000000002, 0.0),21,5,2,no,m,6,m,0.4568087999996351,1,79,test2,3,0.45739099999991595,-42.0
4,yyq,f,18,r,1,(-3.163262682197613e-14, -172.20000000000002),27,-5,12,yes,x,5,x,0.4695130000000063,1,80,test2,3,0.469702899999902,-50.0
4,yyq,f,18,r,1,(-121.76378772032348, 121.76378772032349),24,3,1,no,m,6,m,0.43824099999983446,1,81,test2,3,0.4384027000005517,-50.0
4,yyq,f,18,r,1,(172.20000000000002, 0.0),21,3,1,no,m,6,m,0.41868950000025507,1,82,test2,3,0.4190745000005336,-50.0
4,yyq,f,18,r,1,(121.76378772032349, 121.76378772032349),22,-7,13,yes,x,5,m,0.3419309000000794,0,83,test2,3,0.3420546999996077,-52.0
4,yyq,f,18,r,1,(121.76378772032349, 121.76378772032349),22,25,4,yes,x,5,x,0.39100819999930536,1,84,test2,3,0.3912332999998398,-20.0
4,yyq,f,18,r,1,(-172.20000000000002, 2.1088417881317425e-14),25,5,2,yes,x,5,x,0.37896309999996447,1,85,test2,3,0.379196600000796,-40.0
4,yyq,f,18,r,1,(-3.163262682197613e-14, -172.20000000000002),27,7,3,yes,x,5,x,0.39992330000040965,1,86,test2,3,0.40002280000044266,-38.0
4,yyq,f,18,r,1,(-121.76378772032348, 121.76378772032349),24,-3,11,no,m,6,x,0.4750791999995272,0,87,test2,3,0.4755732000003263,-38.0
4,yyq,f,18,r,1,(121.76378772032346, -121.76378772032352),28,-3,11,yes,x,5,m,0.5124221000005491,0,88,test2,3,0.5125972000005277,-48.0
4,yyq,f,18,r,1,(121.76378772032346, -121.76378772032352),28,-7,13,yes,x,5,x,0.44324719999985973,1,89,test2,3,0.44334640000033687,-52.0
4,yyq,f,18,r,1,(-3.163262682197613e-14, -172.20000000000002),27,-3,11,yes,x,5,x,0.636174100000062,1,90,test2,3,0.6363219999993817,-48.0
4,yyq,f,18,r,1,(-172.20000000000002, 2.1088417881317425e-14),25,25,4,no,m,6,m,0.46895860000040557,1,91,test2,3,0.46958469999935915,-48.0
4,yyq,f,18,r,1,(-121.76378772032352, -121.76378772032348),26,-7,13,no,m,6,x,0.4058105999993131,0,92,test2,3,0.40607399999953486,-48.0
4,yyq,f,18,r,1,(121.76378772032349, 121.76378772032349),22,5,2,no,m,6,m,0.3952268000002732,1,93,test2,3,0.3953718000002482,-48.0
4,yyq,f,18,r,1,(121.76378772032349, 121.76378772032349),22,-25,14,yes,x,5,x,0.362400300000445,1,94,test2,3,0.36250509999990754,-70.0
4,yyq,f,18,r,1,(-121.76378772032352, -121.76378772032348),26,-7,13,yes,x,5,x,0.3610695000006672,1,95,test2,3,0.3612297999998191,-52.0
4,yyq,f,18,r,1,(-172.20000000000002, 2.1088417881317425e-14),25,-25,14,yes,x,5,x,0.35361399999965215,1,96,test2,3,0.3538370999995095,-70.0
4,yyq,f,18,r,1,(121.76378772032346, -121.76378772032352),28,7,3,no,m,6,x,0.44776460000048246,0,1,test1,4,0.4479410000003554,-70.0
4,yyq,f,18,r,1,(121.76378772032349, 121.76378772032349),22,-5,12,yes,x,5,m,0.39623590000064723,0,2,test1,4,0.39637170000059996,-50.0
4,yyq,f,18,r,1,(-3.163262682197613e-14, -172.20000000000002),27,-25,14,yes,x,5,x,0.298369800000728,1,3,test1,4,0.2987112000000707,-70.0
4,yyq,f,18,r,1,(-172.20000000000002, 2.1088417881317425e-14),25,-5,12,no,m,6,m,0.40776929999992717,1,4,test1,4,0.40801100000044244,-70.0
4,yyq,f,18,r,1,(-121.76378772032352, -121.76378772032348),26,7,3,no,m,6,m,0.5452552999995532,1,5,test1,4,0.5458292000002984,-70.0
4,yyq,f,18,r,1,(-3.163262682197613e-14, -172.20000000000002),27,-5,12,no,m,6,m,0.4748636999993323,1,6,test1,4,0.47551990000010846,-70.0
4,yyq,f,18,r,1,(-121.76378772032348, 121.76378772032349),24,-5,12,yes,x,5,x,0.29330120000031457,1,7,test1,4,0.2934032000002844,-50.0
4,yyq,f,18,r,1,(-121.76378772032352, -121.76378772032348),26,25,4,yes,x,5,x,0.32028899999932037,1,8,test1,4,0.3204057000002649,-20.0
4,yyq,f,18,r,1,(-121.76378772032348, 121.76378772032349),24,25,4,no,m,6,m,0.44312730000001466,1,9,test1,4,0.4433509000000413,-20.0
4,yyq,f,18,r,1,(172.20000000000002, 0.0),21,25,4,yes,x,5,x,0.39346870000008494,1,10,test1,4,0.3939027000005808,-20.0
4,yyq,f,18,r,1,(121.76378772032349, 121.76378772032349),22,-3,11,yes,x,5,x,0.4513617000002341,1,11,test1,4,0.45164390000081767,-48.0
4,yyq,f,18,r,1,(172.20000000000002, 0.0),21,-3,11,yes,x,5,x,0.3126189999993585,1,12,test1,4,0.31293449999975564,-48.0
4,yyq,f,18,r,1,(172.20000000000002, 0.0),21,-7,13,no,m,6,x,0.3157733999996708,0,13,test1,4,0.31587499999932334,-48.0
4,yyq,f,18,r,1,(-3.163262682197613e-14, -172.20000000000002),27,7,3,yes,x,5,x,0.30609499999991385,1,14,test1,4,0.30667429999994056,-38.0
4,yyq,f,18,r,1,(172.20000000000002, 0.0),21,-3,11,no,m,6,x,0.44677210000008927,0,15,test1,4,0.4473662999998851,-38.0
4,yyq,f,18,r,1,(-121.76378772032348, 121.76378772032349),24,5,2,yes,x,5,x,0.3061537000003227,1,16,test1,4,0.3062573000006523,-40.0
4,yyq,f,18,r,1,(1.0544208940658713e-14, 172.20000000000002),23,5,2,yes,x,5,x,0.3920404000000417,1,17,test1,4,0.3922112999998717,-40.0
4,yyq,f,18,r,1,(-121.76378772032352, -121.76378772032348),26,5,2,yes,x,5,x,0.44144470000082947,1,18,test1,4,0.441546300000482,-40.0
4,yyq,f,18,r,1,(-121.76378772032352, -121.76378772032348),26,25,4,yes,x,5,x,0.4286400999999387,1,19,test1,4,0.42929589999948803,-20.0
4,yyq,f,18,r,1,(-172.20000000000002, 2.1088417881317425e-14),25,7,3,yes,x,5,x,0.38215430000036577,1,20,test1,4,0.3822511999997005,-38.0
4,yyq,f,18,r,1,(1.0544208940658713e-14, 172.20000000000002),23,7,3,yes,x,5,x,0.41031999999995605,1,21,test1,4,0.4106397999994442,-38.0
4,yyq,f,18,r,1,(121.76378772032346, -121.76378772032352),28,-25,14,yes,x,5,x,0.3576240999991569,1,22,test1,4,0.3577571000005264,-70.0
4,yyq,f,18,r,1,(-121.76378772032348, 121.76378772032349),24,-5,12,no,m,6,x,0.2718104999994466,0,23,test1,4,0.27203580000059446,-70.0
4,yyq,f,18,r,1,(1.0544208940658713e-14, 172.20000000000002),23,-25,14,yes,x,5,x,0.3535891999999876,1,24,test1,4,0.35377539999990404,-70.0
4,yyq,f,18,r,1,(-121.76378772032348, 121.76378772032349),24,5,2,yes,x,5,x,0.3552820000004431,1,25,test1,4,0.35549689999970724,-40.0
4,yyq,f,18,r,1,(-121.76378772032352, -121.76378772032348),26,7,3,yes,x,5,x,0.3514109000007011,1,26,test1,4,0.35187930000029155,-38.0
4,yyq,f,18,r,1,(121.76378772032346, -121.76378772032352),28,3,1,no,m,6,x,0.38458730000002106,0,27,test1,4,0.38468190000003233,-38.0
4,yyq,f,18,r,1,(-121.76378772032352, -121.76378772032348),26,-3,11,yes,x,5,x,0.6538333999997121,1,28,test1,4,0.654160299999603,-48.0
4,yyq,f,18,r,1,(172.20000000000002, 0.0),21,25,4,no,m,6,m,0.45673920000081125,1,29,test1,4,0.45706929999960266,-48.0
4,yyq,f,18,r,1,(172.20000000000002, 0.0),21,5,2,yes,x,5,m,0.4703534000000218,0,30,test1,4,0.47048869999980525,-40.0
4,yyq,f,18,r,1,(121.76378772032346, -121.76378772032352),28,-3,11,no,m,6,x,0.29729649999990215,0,31,test1,4,0.297529399999803,-40.0
4,yyq,f,18,r,1,(121.76378772032346, -121.76378772032352),28,-25,14,no,m,6,m,0.5275060000003577,1,32,test1,4,0.5277771999999459,-40.0
4,yyq,f,18,r,1,(-3.163262682197613e-14, -172.20000000000002),27,-5,12,yes,x,5,x,0.35205260000020644,1,33,test1,4,0.35222330000033253,-50.0
4,yyq,f,18,r,1,(-121.76378772032352, -121.76378772032348),26,7,3,yes,x,5,x,0.4428706999997303,1,34,test1,4,0.44307019999996555,-38.0
4,yyq,f,18,r,1,(-172.20000000000002, 2.1088417881317425e-14),25,-3,11,no,m,6,m,0.44661180000002787,1,35,test1,4,0.4467260000001261,-38.0
4,yyq,f,18,r,1,(-121.76378772032348, 121.76378772032349),24,-25,14,yes,x,5,x,0.3204445000001215,1,36,test1,4,0.32060309999997116,-70.0
4,yyq,f,18,r,1,(-3.163262682197613e-14, -172.20000000000002),27,-7,13,yes,x,5,x,0.4322633000001588,1,37,test1,4,0.43249139999988984,-52.0
4,yyq,f,18,r,1,(1.0544208940658713e-14, 172.20000000000002),23,-5,12,yes,x,5,x,0.42887079999945854,1,38,test1,4,0.42897139999968203,-50.0
4,yyq,f,18,r,1,(172.20000000000002, 0.0),21,-7,13,yes,x,5,x,0.3856325000006109,1,39,test1,4,0.3858587999993688,-52.0
4,yyq,f,18,r,1,(121.76378772032349, 121.76378772032349),22,-25,14,no,m,6,m,0.5892744000002494,1,40,test1,4,0.5895355000002382,-52.0
4,yyq,f,18,r,1,(-121.76378772032348, 121.76378772032349),24,-25,14,no,m,6,x,0.364777700000559,0,41,test1,4,0.3655638000000181,-52.0
4,yyq,f,18,r,1,(121.76378772032349, 121.76378772032349),22,7,3,no,m,6,x,0.3815266999999949,0,42,test1,4,0.3820504000004803,-52.0
4,yyq,f,18,r,1,(1.0544208940658713e-14, 172.20000000000002),23,-5,12,yes,x,5,x,0.4581719999996494,1,43,test1,4,0.45827680000002147,-50.0
4,yyq,f,18,r,1,(1.0544208940658713e-14, 172.20000000000002),23,-3,11,yes,x,5,x,0.5090004000003319,1,44,test1,4,0.5092647999999826,-48.0
4,yyq,f,18,r,1,(121.76378772032349, 121.76378772032349),22,-3,11,yes,x,5,m,0.4359489999997095,0,45,test1,4,0.4363277000002199,-48.0
4,yyq,f,18,r,1,(172.20000000000002, 0.0),21,25,4,yes,x,5,x,0.3733890000003157,1,46,test1,4,0.37361280000004626,-20.0
4,yyq,f,18,r,1,(-121.76378772032352, -121.76378772032348),26,-3,11,yes,x,5,x,0.38042140000015934,1,47,test1,4,0.3807982999996966,-48.0
4,yyq,f,18,r,1,(-172.20000000000002, 2.1088417881317425e-14),25,-3,11,yes,x,5,x,0.4138683000001038,1,48,test1,4,0.4144680999997945,-48.0
4,yyq,f,18,r,1,(121.76378772032349, 121.76378772032349),22,25,4,yes,x,5,x,0.3350611999994726,1,49,test1,4,0.3352896000005785,-20.0
4,yyq,f,18,r,1,(-121.76378772032352, -121.76378772032348),26,-7,13,yes,x,5,x,0.4514878999998473,1,50,test1,4,0.4516764999998486,-52.0
4,yyq,f,18,r,1,(-3.163262682197613e-14, -172.20000000000002),27,-3,11,no,m,6,m,0.42842949999976554,1,51,test1,4,0.42862740000055055,-52.0
4,yyq,f,18,r,1,(-121.76378772032348, 121.76378772032349),24,5,2,no,m,6,x,0.3332341000004817,0,52,test1,4,0.3334540999994715,-52.0
4,yyq,f,18,r,1,(121.76378772032346, -121.76378772032352),28,25,4,yes,x,5,x,0.36105049999969197,1,53,test1,4,0.361181299999771,-20.0
4,yyq,f,18,r,1,(-172.20000000000002, 2.1088417881317425e-14),25,-5,12,yes,x,5,x,0.3884373000000778,1,54,test1,4,0.3886656000004223,-50.0
4,yyq,f,18,r,1,(172.20000000000002, 0.0),21,-7,13,yes,x,5,x,0.3633711000002222,1,55,test1,4,0.3635031000003437,-52.0
4,yyq,f,18,r,1,(-121.76378772032352, -121.76378772032348),26,5,2,yes,x,5,x,0.40014199999950506,1,56,test1,4,0.4002626000001328,-40.0
4,yyq,f,18,r,1,(121.76378772032349, 121.76378772032349),22,7,3,yes,x,5,x,0.40562620000036986,1,57,test1,4,0.40575189999981376,-38.0
4,yyq,f,18,r,1,(-172.20000000000002, 2.1088417881317425e-14),25,-5,12,yes,x,5,x,0.4061602000001585,1,58,test1,4,0.4062736000005316,-50.0
4,yyq,f,18,r,1,(121.76378772032349, 121.76378772032349),22,5,2,yes,x,5,x,0.40851240000029065,1,59,test1,4,0.4086864999999307,-40.0
4,yyq,f,18,r,1,(1.0544208940658713e-14, 172.20000000000002),23,-25,14,yes,x,5,x,0.36465769999995246,1,60,test1,4,0.3648053999995682,-70.0
4,yyq,f,18,r,1,(121.76378772032346, -121.76378772032352),28,25,4,yes,x,5,x,0.29514190000008966,1,61,test1,4,0.2952560000003359,-20.0
4,yyq,f,18,r,1,(121.76378772032346, -121.76378772032352),28,3,1,yes,x,5,x,0.393525899999986,1,62,test1,4,0.3936936999998579,-42.0
4,yyq,f,18,r,1,(121.76378772032346, -121.76378772032352),28,25,4,no,m,6,x,0.6734003999999914,0,63,test1,4,0.6735771000003297,-42.0
4,yyq,f,18,r,1,(-121.76378772032352, -121.76378772032348),26,3,1,yes,x,5,x,0.4132190999998784,1,64,test1,4,0.41333359999953245,-42.0
4,yyq,f,18,r,1,(121.76378772032346, -121.76378772032352),28,7,3,yes,x,5,m,0.34754940000038914,0,65,test1,4,0.34777889999986655,-38.0
4,yyq,f,18,r,1,(-121.76378772032348, 121.76378772032349),24,-3,11,yes,x,5,x,0.470658000000185,1,66,test1,4,0.4709475999998176,-48.0
4,yyq,f,18,r,1,(121.76378772032349, 121.76378772032349),22,25,4,no,m,6,x,0.3645424999995157,0,67,test1,4,0.36496420000003127,-48.0
4,yyq,f,18,r,1,(-172.20000000000002, 2.1088417881317425e-14),25,-25,14,no,m,6,x,0.37721809999948164,0,68,test1,4,0.37786469999991823,-48.0
4,yyq,f,18,r,1,(-121.76378772032348, 121.76378772032349),24,-7,13,no,m,6,m,0.5165927999996711,1,69,test1,4,0.5166924000004656,-48.0
4,yyq,f,18,r,1,(-3.163262682197613e-14, -172.20000000000002),27,25,4,yes,x,5,x,0.42098619999978837,1,70,test1,4,0.4211033999999927,-20.0
4,yyq,f,18,r,1,(-121.76378772032352, -121.76378772032348),26,3,1,no,m,6,m,0.5142399000005753,1,71,test1,4,0.5143429999998261,-20.0
4,yyq,f,18,r,1,(-121.76378772032352, -121.76378772032348),26,-5,12,no,m,6,x,0.34514670000044134,0,72,test1,4,0.34525809999922785,-20.0
4,yyq,f,18,r,1,(-3.163262682197613e-14, -172.20000000000002),27,-25,14,yes,x,5,x,0.3526176999994277,1,73,test1,4,0.35272379999969417,-70.0
4,yyq,f,18,r,1,(-3.163262682197613e-14, -172.20000000000002),27,5,2,no,m,6,m,0.43430069999976695,1,74,test1,4,0.4347938000000795,-70.0
4,yyq,f,18,r,1,(1.0544208940658713e-14, 172.20000000000002),23,7,3,no,m,6,m,0.43041639999955805,1,75,test1,4,0.43084040000030654,-70.0
4,yyq,f,18,r,1,(121.76378772032349, 121.76378772032349),22,-5,12,no,m,6,m,0.7878936999995858,1,76,test1,4,0.7880207999996856,-70.0
4,yyq,f,18,r,1,(172.20000000000002, 0.0),21,5,2,yes,x,5,x,0.3087120000000141,1,77,test1,4,0.3088399999996909,-40.0
4,yyq,f,18,r,1,(-3.163262682197613e-14, -172.20000000000002),27,3,1,yes,x,5,x,0.5625852000002851,1,78,test1,4,0.5628523000004861,-42.0
4,yyq,f,18,r,1,(-121.76378772032352, -121.76378772032348),26,-3,11,no,m,6,m,0.5073968999995486,1,79,test1,4,0.5075268000000506,-42.0
4,yyq,f,18,r,1,(121.76378772032349, 121.76378772032349),22,3,1,no,m,6,m,0.49780569999984436,1,80,test1,4,0.4979704999996102,-42.0
4,yyq,f,18,r,1,(-172.20000000000002, 2.1088417881317425e-14),25,-7,13,yes,x,5,x,0.388789500000712,1,81,test1,4,0.38906219999989844,-52.0
4,yyq,f,18,r,1,(121.76378772032346, -121.76378772032352),28,-3,11,yes,x,5,x,0.49417240000002494,1,82,test1,4,0.4944688000005044,-48.0
4,yyq,f,18,r,1,(1.0544208940658713e-14, 172.20000000000002),23,25,4,yes,x,5,x,0.31438039999920875,1,83,test1,4,0.3145373000006657,-20.0
4,yyq,f,18,r,1,(1.0544208940658713e-14, 172.20000000000002),23,3,1,no,m,6,x,0.32232199999998556,0,84,test1,4,0.3226202000005287,-20.0
4,yyq,f,18,r,1,(121.76378772032346, -121.76378772032352),28,-5,12,no,m,6,x,0.49667179999960354,0,85,test1,4,0.4968858000002001,-20.0
4,yyq,f,18,r,1,(-172.20000000000002, 2.1088417881317425e-14),25,7,3,yes,x,5,x,0.4212215000006836,1,86,test1,4,0.4216519999999946,-38.0
4,yyq,f,18,r,1,(121.76378772032349, 121.76378772032349),22,-25,14,yes,x,5,x,0.38634259999980713,1,87,test1,4,0.38655889999972715,-70.0
4,yyq,f,18,r,1,(121.76378772032349, 121.76378772032349),22,-5,12,yes,x,5,x,0.4184895999997025,1,88,test1,4,0.4186089000004358,-50.0
4,yyq,f,18,r,1,(-3.163262682197613e-14, -172.20000000000002),27,-25,14,no,m,6,m,0.5055099999999584,1,89,test1,4,0.5057211000003008,-50.0
4,yyq,f,18,r,1,(-3.163262682197613e-14, -172.20000000000002),27,5,2,yes,x,5,x,0.46081060000051366,1,90,test1,4,0.46106239999971876,-40.0
4,yyq,f,18,r,1,(1.0544208940658713e-14, 172.20000000000002),23,5,2,yes,x,5,x,0.4048457999997481,1,91,test1,4,0.40530130000024656,-40.0
4,yyq,f,18,r,1,(-121.76378772032348, 121.76378772032349),24,7,3,yes,x,5,x,0.4045070999991367,1,92,test1,4,0.40497289999984787,-38.0
4,yyq,f,18,r,1,(172.20000000000002, 0.0),21,7,3,no,m,6,m,0.45593319999989035,1,93,test1,4,0.45606430000043474,-38.0
4,yyq,f,18,r,1,(-121.76378772032348, 121.76378772032349),24,25,4,yes,x,5,x,0.336620000000039,1,94,test1,4,0.3368572999997923,-20.0
4,yyq,f,18,r,1,(1.0544208940658713e-14, 172.20000000000002),23,-7,13,no,m,6,m,0.5058263999999326,1,95,test1,4,0.5061561000002257,-20.0
4,yyq,f,18,r,1,(-121.76378772032348, 121.76378772032349),24,3,1,yes,x,5,x,0.4895598000002792,1,96,test1,4,0.48968630000035773,-42.0
4,yyq,f,18,r,1,(1.0544208940658713e-14, 172.20000000000002),23,-5,12,no,m,6,m,1.6260142999999516,1,1,test2,4,1.6262163999999757,-42.0
4,yyq,f,18,r,1,(172.20000000000002, 0.0),21,-5,12,yes,x,5,x,0.4579650000005131,1,2,test2,4,0.4582768999998734,-50.0
4,yyq,f,18,r,1,(1.0544208940658713e-14, 172.20000000000002),23,-25,14,no,m,6,x,0.4903420999999071,0,3,test2,4,0.49044620000040595,-50.0
4,yyq,f,18,r,1,(121.76378772032349, 121.76378772032349),22,5,2,yes,x,5,m,0.3936229999999341,0,4,test2,4,0.39423509999960515,-40.0
4,yyq,f,18,r,1,(121.76378772032346, -121.76378772032352),28,-7,13,yes,x,5,x,0.4206713999992644,1,5,test2,4,0.4208812000006219,-52.0
4,yyq,f,18,r,1,(121.76378772032349, 121.76378772032349),22,-7,13,yes,x,5,x,0.47266099999978906,1,6,test2,4,0.4729345999994621,-52.0
4,yyq,f,18,r,1,(-3.163262682197613e-14, -172.20000000000002),27,25,4,no,m,6,m,0.5309753000001365,1,7,test2,4,0.5311971999999514,-52.0
4,yyq,f,18,r,1,(-3.163262682197613e-14, -172.20000000000002),27,3,1,yes,x,5,x,0.7148760999998558,1,8,test2,4,0.7150056999998924,-42.0
4,yyq,f,18,r,1,(-3.163262682197613e-14, -172.20000000000002),27,-7,13,yes,x,5,x,0.3905184000004738,1,9,test2,4,0.3906206999999995,-52.0
4,yyq,f,18,r,1,(-121.76378772032352, -121.76378772032348),26,-25,14,yes,x,5,x,0.34498079999957554,1,10,test2,4,0.34540759999981674,-70.0
4,yyq,f,18,r,1,(121.76378772032346, -121.76378772032352),28,-5,12,yes,x,5,x,0.4633979000000181,1,11,test2,4,0.4635094000004756,-50.0
4,yyq,f,18,r,1,(121.76378772032346, -121.76378772032352),28,5,2,yes,x,5,x,0.287707199999204,1,12,test2,4,0.2878185999998095,-40.0
4,yyq,f,18,r,1,(172.20000000000002, 0.0),21,-3,11,yes,x,5,m,0.39218239999991056,0,13,test2,4,0.3927282999993622,-48.0
4,yyq,f,18,r,1,(-172.20000000000002, 2.1088417881317425e-14),25,-7,13,no,m,6,m,0.6146203999996942,1,14,test2,4,0.6151755999999295,-48.0
4,yyq,f,18,r,1,(-121.76378772032348, 121.76378772032349),24,-25,14,yes,x,5,x,0.35722230000010313,1,15,test2,4,0.35732049999933224,-70.0
4,yyq,f,18,r,1,(-172.20000000000002, 2.1088417881317425e-14),25,-25,14,yes,x,5,x,0.34939090000079887,1,16,test2,4,0.3495466000003944,-70.0
4,yyq,f,18,r,1,(-121.76378772032348, 121.76378772032349),24,-3,11,yes,x,5,m,0.5390078999998877,0,17,test2,4,0.5391435999999885,-48.0
4,yyq,f,18,r,1,(172.20000000000002, 0.0),21,-5,12,no,m,6,m,0.45400250000056985,1,18,test2,4,0.4546304000004966,-48.0
4,yyq,f,18,r,1,(172.20000000000002, 0.0),21,7,3,yes,x,5,x,0.41719840000041586,1,19,test2,4,0.41730139999981475,-38.0
4,yyq,f,18,r,1,(1.0544208940658713e-14, 172.20000000000002),23,7,3,yes,x,5,x,0.4464616000004753,1,20,test2,4,0.44693370000004506,-38.0
4,yyq,f,18,r,1,(172.20000000000002, 0.0),21,-5,12,yes,x,5,m,0.44360930000038934,0,21,test2,4,0.4440348999996786,-50.0
4,yyq,f,18,r,1,(-172.20000000000002, 2.1088417881317425e-14),25,-7,13,yes,x,5,x,0.42969170000014856,1,22,test2,4,0.4299473000000944,-52.0
4,yyq,f,18,r,1,(1.0544208940658713e-14, 172.20000000000002),23,-3,11,yes,x,5,m,0.4350537999998778,0,23,test2,4,0.4353428000003987,-48.0
4,yyq,f,18,r,1,(-121.76378772032348, 121.76378772032349),24,-7,13,yes,x,5,m,0.511789499999395,0,24,test2,4,0.5119449000003442,-52.0
4,yyq,f,18,r,1,(-172.20000000000002, 2.1088417881317425e-14),25,3,1,yes,x,5,x,0.33488299999953597,1,25,test2,4,0.33498229999986506,-42.0
4,yyq,f,18,r,1,(-3.163262682197613e-14, -172.20000000000002),27,25,4,yes,x,5,x,0.3929958999997325,1,26,test2,4,0.3931590000001961,-20.0
4,yyq,f,18,r,1,(121.76378772032346, -121.76378772032352),28,-7,13,no,m,6,m,0.47255200000017794,1,27,test2,4,0.4730003000004217,-20.0
4,yyq,f,18,r,1,(-121.76378772032348, 121.76378772032349),24,25,4,yes,x,5,x,0.3355754000003799,1,28,test2,4,0.33567820000007487,-20.0
4,yyq,f,18,r,1,(-172.20000000000002, 2.1088417881317425e-14),25,5,2,no,m,6,m,0.41883249999955297,1,29,test2,4,0.419166600000608,-20.0
4,yyq,f,18,r,1,(1.0544208940658713e-14, 172.20000000000002),23,25,4,yes,x,5,x,0.3321875999999975,1,30,test2,4,0.33267849999992904,-20.0
4,yyq,f,18,r,1,(-121.76378772032352, -121.76378772032348),26,-25,14,no,m,6,m,0.43466509999962,1,31,test2,4,0.4350113999998939,-20.0
4,yyq,f,18,r,1,(172.20000000000002, 0.0),21,-25,14,no,m,6,m,0.42469470000014553,1,32,test2,4,0.42498519999935525,-20.0
4,yyq,f,18,r,1,(121.76378772032349, 121.76378772032349),22,3,1,yes,x,5,m,0.4636876000004122,0,33,test2,4,0.46381599999949685,-42.0
4,yyq,f,18,r,1,(-172.20000000000002, 2.1088417881317425e-14),25,3,1,no,m,6,m,0.45782099999996717,1,34,test2,4,0.45791860000008455,-42.0
4,yyq,f,18,r,1,(172.20000000000002, 0.0),21,-25,14,yes,x,5,x,0.4268025999999736,1,35,test2,4,0.4270897000005789,-70.0
4,yyq,f,18,r,1,(121.76378772032346, -121.76378772032352),28,3,1,yes,x,5,m,0.41322909999962576,0,36,test2,4,0.41352829999959795,-42.0
4,yyq,f,18,r,1,(-3.163262682197613e-14, -172.20000000000002),27,5,2,yes,x,5,x,0.6403604000006453,1,37,test2,4,0.6406500000002779,-40.0
4,yyq,f,18,r,1,(-3.163262682197613e-14, -172.20000000000002),27,7,3,no,m,6,m,0.6180211999999301,1,38,test2,4,0.6181532999999035,-40.0
4,yyq,f,18,r,1,(172.20000000000002, 0.0),21,3,1,yes,x,5,m,0.42168949999995675,0,39,test2,4,0.4217890999998417,-42.0
4,yyq,f,18,r,1,(172.20000000000002, 0.0),21,7,3,yes,x,5,x,0.43942799999967974,1,40,test2,4,0.4399868999998944,-38.0
4,yyq,f,18,r,1,(-121.76378772032348, 121.76378772032349),24,-5,12,yes,x,5,x,0.4265243999998347,1,41,test2,4,0.4266218000002482,-50.0
4,yyq,f,18,r,1,(121.76378772032346, -121.76378772032352),28,5,2,no,m,6,m,0.504414099999849,1,42,test2,4,0.5047835999994277,-50.0
4,yyq,f,18,r,1,(-172.20000000000002, 2.1088417881317425e-14),25,25,4,yes,x,5,x,0.35326200000054087,1,43,test2,4,0.35335850000046776,-20.0
4,yyq,f,18,r,1,(-121.76378772032352, -121.76378772032348),26,-25,14,yes,x,5,x,0.42715709999993123,1,44,test2,4,0.4273682999992161,-70.0
4,yyq,f,18,r,1,(-172.20000000000002, 2.1088417881317425e-14),25,25,4,yes,x,5,x,0.3263483999999153,1,45,test2,4,0.3265758999996251,-20.0
4,yyq,f,18,r,1,(121.76378772032349, 121.76378772032349),22,7,3,yes,x,5,x,0.3828942999998617,1,46,test2,4,0.38299839999945107,-38.0
4,yyq,f,18,r,1,(121.76378772032346, -121.76378772032352),28,5,2,yes,x,5,x,0.33684339999945223,1,47,test2,4,0.3369962000006126,-40.0
4,yyq,f,18,r,1,(-121.76378772032348, 121.76378772032349),24,-7,13,yes,x,5,x,0.437721700000111,1,48,test2,4,0.4379786999998032,-52.0
4,yyq,f,18,r,1,(-3.163262682197613e-14, -172.20000000000002),27,3,1,no,m,6,x,0.35683439999957045,0,49,test2,4,0.3571791000003941,-52.0
4,yyq,f,18,r,1,(1.0544208940658713e-14, 172.20000000000002),23,25,4,no,m,6,m,0.46801570000025094,1,50,test2,4,0.46824910000032105,-52.0
4,yyq,f,18,r,1,(121.76378772032349, 121.76378772032349),22,-7,13,no,m,6,x,0.4210884000003716,0,51,test2,4,0.42121880000013334,-52.0
4,yyq,f,18,r,1,(121.76378772032346, -121.76378772032352),28,-25,14,yes,x,5,m,0.4110227000001032,0,52,test2,4,0.4111194000006435,-70.0
4,yyq,f,18,r,1,(-3.163262682197613e-14, -172.20000000000002),27,-3,11,yes,x,5,x,0.4396629999992001,1,53,test2,4,0.4398185000000012,-48.0
4,yyq,f,18,r,1,(172.20000000000002, 0.0),21,3,1,yes,x,5,m,0.47524239999984275,0,54,test2,4,0.47561270000005607,-42.0
4,yyq,f,18,r,1,(-3.163262682197613e-14, -172.20000000000002),27,-7,13,no,m,6,x,0.4961972000000969,0,55,test2,4,0.49629860000004555,-42.0
4,yyq,f,18,r,1,(-172.20000000000002, 2.1088417881317425e-14),25,3,1,yes,x,5,x,0.3518260000000737,1,56,test2,4,0.35206490000018675,-42.0
4,yyq,f,18,r,1,(-121.76378772032352, -121.76378772032348),26,-5,12,yes,x,5,x,0.46993359999942186,1,57,test2,4,0.47016919999987294,-50.0
4,yyq,f,18,r,1,(-121.76378772032348, 121.76378772032349),24,7,3,yes,x,5,m,0.5587541000004421,0,58,test2,4,0.5588546999997561,-38.0
4,yyq,f,18,r,1,(121.76378772032346, -121.76378772032352),28,-5,12,yes,x,5,m,0.4811805999997887,0,59,test2,4,0.4813166000003548,-50.0
4,yyq,f,18,r,1,(-121.76378772032348, 121.76378772032349),24,7,3,no,m,6,m,0.5278091000000131,1,60,test2,4,0.528038700000252,-50.0
