subj_id,subj_name,subj_gender ,subj_age,subj_handedness,subj_runNum,tar_l_x,tar_l_y,loc_code,tar_ori,tar_code,tar_pre ,cor_response,pre_code,subj_response,RT,correct,trial_num,type,bloc_num,dur, real_tar
5,ab,m,19,r,1,(1.0544208940658713e-14, 172.20000000000002),23,25,4,no,m,6,None,None,0,1,prac,0,1.9800907999961055,0.0
5,ab,m,19,r,1,(121.76378772032349, 121.76378772032349),22,-25,14,yes,x,5,m,0.27488070000254083,0,2,prac,0,0.2749790000016219,-70.0
5,ab,m,19,r,1,(-3.163262682197613e-14, -172.20000000000002),27,5,2,no,m,6,x,0.5805136999988463,0,3,prac,0,0.5808155999984592,-70.0
5,ab,m,19,r,1,(121.76378772032346, -121.76378772032352),28,25,4,no,m,6,x,0.9738924999983283,0,4,prac,0,0.9741079000013997,-70.0
5,ab,m,19,r,1,(-172.20000000000002, 2.1088417881317425e-14),25,5,2,yes,x,5,m,0.9032283000051393,0,5,prac,0,0.9036999999952968,-40.0
5,ab,m,19,r,1,(-121.76378772032348, 121.76378772032349),24,-7,13,no,m,6,m,1.14573900000687,1,6,prac,0,1.1459183000042685,-40.0
5,ab,m,19,r,1,(-121.76378772032352, -121.76378772032348),26,-5,12,yes,x,5,x,1.3847939999977825,1,7,prac,0,1.3849239999981364,-50.0
5,ab,m,19,r,1,(-121.76378772032348, 121.76378772032349),24,-5,12,yes,x,5,m,1.1377895000041462,0,8,prac,0,1.1378888000035658,-50.0
5,ab,m,19,r,1,(1.0544208940658713e-14, 172.20000000000002),23,-5,12,no,m,6,m,1.0642291999974987,1,9,prac,0,1.0644769000064116,-50.0
5,ab,m,19,r,1,(-3.163262682197613e-14, -172.20000000000002),27,-25,14,no,m,6,x,1.1231322000021464,0,10,prac,0,1.123622200000682,-50.0
5,ab,m,19,r,1,(121.76378772032349, 121.76378772032349),22,-25,14,yes,x,5,x,1.3187975000037113,1,11,prac,0,1.3189517999999225,-70.0
5,ab,m,19,r,1,(121.76378772032346, -121.76378772032352),28,25,4,yes,x,5,x,0.6621359000055236,1,12,prac,0,0.6624905999997281,-20.0
5,ab,m,19,r,1,(121.76378772032346, -121.76378772032352),28,-3,11,no,m,6,m,0.7874788000044646,1,13,prac,0,0.7876071999999112,-20.0
5,ab,m,19,r,1,(172.20000000000002, 0.0),21,-25,14,no,m,6,m,0.8793131000056746,1,14,prac,0,0.8795446999938576,-20.0
5,ab,m,19,r,1,(-172.20000000000002, 2.1088417881317425e-14),25,5,2,no,m,6,m,0.5961107999974047,1,15,prac,0,0.5962350999980117,-20.0
5,ab,m,19,r,1,(-3.163262682197613e-14, -172.20000000000002),27,-7,13,yes,x,5,x,0.5849616999985301,1,16,prac,0,0.5850573999996413,-52.0
5,ab,m,19,r,1,(-121.76378772032348, 121.76378772032349),24,5,2,yes,x,5,x,0.7815623999995296,1,17,prac,0,0.7817045999981929,-40.0
5,ab,m,19,r,1,(-121.76378772032348, 121.76378772032349),24,-7,13,yes,x,5,x,0.9689269999944372,1,18,prac,0,0.9695073999973829,-52.0
5,ab,m,19,r,1,(121.76378772032349, 121.76378772032349),22,5,2,yes,x,5,x,0.6960821999964537,1,19,prac,0,0.696179899998242,-40.0
5,ab,m,19,r,1,(1.0544208940658713e-14, 172.20000000000002),23,-3,11,yes,x,5,x,0.6162421999979415,1,20,prac,0,0.617205800001102,-48.0
5,ab,m,19,r,1,(121.76378772032346, -121.76378772032352),28,-3,11,no,m,6,m,0.9634704000054626,1,1,test1,1,0.9635888999982853,-48.0
5,ab,m,19,r,1,(1.0544208940658713e-14, 172.20000000000002),23,3,1,yes,x,5,x,0.7354670999993687,1,2,test1,1,0.7355974999954924,-42.0
5,ab,m,19,r,1,(1.0544208940658713e-14, 172.20000000000002),23,-5,12,no,m,6,m,1.2333110000035958,1,3,test1,1,1.2334359000014956,-42.0
5,ab,m,19,r,1,(121.76378772032349, 121.76378772032349),22,-5,12,yes,x,5,x,0.6270810999994865,1,4,test1,1,0.6271832999991602,-50.0
5,ab,m,19,r,1,(1.0544208940658713e-14, 172.20000000000002),23,-25,14,yes,x,5,x,0.5617511000018567,1,5,test1,1,0.5618848000012804,-70.0
5,ab,m,19,r,1,(-121.76378772032348, 121.76378772032349),24,5,2,yes,x,5,x,0.5478416999976616,1,6,test1,1,0.548126499998034,-40.0
5,ab,m,19,r,1,(-3.163262682197613e-14, -172.20000000000002),27,-3,11,yes,x,5,x,0.91378569999506,1,7,test1,1,0.9139126000009128,-48.0
5,ab,m,19,r,1,(121.76378772032346, -121.76378772032352),28,-5,12,yes,x,5,x,0.5445402000041213,1,8,test1,1,0.5449485999997705,-50.0
5,ab,m,19,r,1,(172.20000000000002, 0.0),21,25,4,yes,x,5,x,0.5366165000014007,1,9,test1,1,0.5368449000015971,-20.0
5,ab,m,19,r,1,(-172.20000000000002, 2.1088417881317425e-14),25,3,1,yes,x,5,x,0.6439385999983642,1,10,test1,1,0.6440376000027754,-42.0
5,ab,m,19,r,1,(-121.76378772032348, 121.76378772032349),24,-5,12,yes,x,5,x,0.5021013000005041,1,11,test1,1,0.5022018000017852,-50.0
5,ab,m,19,r,1,(-121.76378772032352, -121.76378772032348),26,5,2,yes,x,5,x,0.605975499995111,1,12,test1,1,0.6060971999977482,-40.0
5,ab,m,19,r,1,(-3.163262682197613e-14, -172.20000000000002),27,-3,11,yes,x,5,x,0.5654071999961161,1,13,test1,1,0.5656375000035041,-48.0
5,ab,m,19,r,1,(-172.20000000000002, 2.1088417881317425e-14),25,3,1,no,m,6,m,0.9798720000035246,1,14,test1,1,0.9802513000031468,-48.0
5,ab,m,19,r,1,(121.76378772032349, 121.76378772032349),22,-3,11,yes,x,5,x,0.7814710000020568,1,15,test1,1,0.7817159000042011,-48.0
5,ab,m,19,r,1,(-121.76378772032352, -121.76378772032348),26,-25,14,yes,x,5,x,0.6447248999975272,1,16,test1,1,0.6448998999985633,-70.0
5,ab,m,19,r,1,(-172.20000000000002, 2.1088417881317425e-14),25,25,4,yes,x,5,x,0.6628962999966461,1,17,test1,1,0.6630048000006354,-20.0
5,ab,m,19,r,1,(-121.76378772032352, -121.76378772032348),26,5,2,yes,x,5,x,0.623527900002955,1,18,test1,1,0.6237698000040837,-40.0
5,ab,m,19,r,1,(-121.76378772032352, -121.76378772032348),26,-5,12,yes,x,5,x,0.6191889999972773,1,19,test1,1,0.6193738000001758,-50.0
5,ab,m,19,r,1,(121.76378772032346, -121.76378772032352),28,5,2,yes,x,5,x,0.7634839000020293,1,20,test1,1,0.7637711000061245,-40.0
5,ab,m,19,r,1,(172.20000000000002, 0.0),21,3,1,no,m,6,m,0.7407909000030486,1,21,test1,1,0.7410240000026533,-40.0
5,ab,m,19,r,1,(-172.20000000000002, 2.1088417881317425e-14),25,5,2,yes,x,5,x,0.6343182999989949,1,22,test1,1,0.6349763999969582,-40.0
5,ab,m,19,r,1,(-121.76378772032348, 121.76378772032349),24,-3,11,no,m,6,x,0.6378662999995868,0,23,test1,1,0.6379742999997688,-40.0
5,ab,m,19,r,1,(-121.76378772032352, -121.76378772032348),26,25,4,yes,x,5,x,0.6012291999941226,1,24,test1,1,0.6013388999999734,-20.0
5,ab,m,19,r,1,(121.76378772032346, -121.76378772032352),28,25,4,yes,x,5,x,0.49502919999940787,1,25,test1,1,0.49533279999741353,-20.0
5,ab,m,19,r,1,(-121.76378772032348, 121.76378772032349),24,-3,11,yes,x,5,x,0.8534356000018306,1,26,test1,1,0.8535536999988835,-48.0
5,ab,m,19,r,1,(172.20000000000002, 0.0),21,7,3,yes,x,5,x,0.6203395999982604,1,27,test1,1,0.6206623999969452,-38.0
5,ab,m,19,r,1,(-121.76378772032352, -121.76378772032348),26,7,3,no,m,6,m,0.8552555999995093,1,28,test1,1,0.8556266000014148,-38.0
5,ab,m,19,r,1,(-3.163262682197613e-14, -172.20000000000002),27,3,1,yes,x,5,m,0.9664509000067483,0,29,test1,1,0.9668697999950382,-42.0
5,ab,m,19,r,1,(121.76378772032349, 121.76378772032349),22,25,4,yes,x,5,x,0.5564558999976725,1,30,test1,1,0.5566880000042147,-20.0
5,ab,m,19,r,1,(172.20000000000002, 0.0),21,-25,14,yes,x,5,x,0.5429371999998693,1,31,test1,1,0.5430995999995503,-70.0
5,ab,m,19,r,1,(1.0544208940658713e-14, 172.20000000000002),23,7,3,no,m,6,x,0.6246092000001227,0,32,test1,1,0.6247432000018307,-70.0
5,ab,m,19,r,1,(121.76378772032346, -121.76378772032352),28,-7,13,yes,x,5,x,0.733262099995045,1,33,test1,1,0.7334927999982028,-52.0
5,ab,m,19,r,1,(-3.163262682197613e-14, -172.20000000000002),27,5,2,yes,x,5,x,0.5959554000000935,1,34,test1,1,0.5962715999994543,-40.0
5,ab,m,19,r,1,(-172.20000000000002, 2.1088417881317425e-14),25,5,2,yes,x,5,x,0.5946328999998514,1,35,test1,1,0.5950680000023567,-40.0
5,ab,m,19,r,1,(121.76378772032349, 121.76378772032349),22,-25,14,yes,x,5,x,0.5682117000033031,1,36,test1,1,0.5683150999975624,-70.0
5,ab,m,19,r,1,(-121.76378772032348, 121.76378772032349),24,25,4,no,m,6,m,0.5322719999967376,1,37,test1,1,0.5323970000026748,-70.0
5,ab,m,19,r,1,(-172.20000000000002, 2.1088417881317425e-14),25,-3,11,yes,x,5,x,0.9386835000041174,1,38,test1,1,0.9392417999988538,-48.0
5,ab,m,19,r,1,(-3.163262682197613e-14, -172.20000000000002),27,3,1,yes,x,5,m,1.1463269000014407,0,39,test1,1,1.1465384000039194,-42.0
5,ab,m,19,r,1,(1.0544208940658713e-14, 172.20000000000002),23,-25,14,no,m,6,m,0.6972403999970993,1,40,test1,1,0.6976602999930037,-42.0
5,ab,m,19,r,1,(-121.76378772032348, 121.76378772032349),24,-25,14,yes,x,5,x,0.5554235000017798,1,41,test1,1,0.5560853999995743,-70.0
5,ab,m,19,r,1,(-121.76378772032352, -121.76378772032348),26,3,1,no,m,6,x,0.5612541000009514,0,42,test1,1,0.5616431999951601,-70.0
5,ab,m,19,r,1,(121.76378772032349, 121.76378772032349),22,-25,14,no,m,6,m,0.7475851000053808,1,43,test1,1,0.7477422999945702,-70.0
5,ab,m,19,r,1,(1.0544208940658713e-14, 172.20000000000002),23,5,2,yes,x,5,x,0.6372339999943506,1,44,test1,1,0.6373424000048544,-40.0
5,ab,m,19,r,1,(-172.20000000000002, 2.1088417881317425e-14),25,-7,13,yes,x,5,m,1.1282562000051257,0,45,test1,1,1.1283564000041224,-52.0
5,ab,m,19,r,1,(-3.163262682197613e-14, -172.20000000000002),27,7,3,yes,x,5,x,0.786488300000201,1,46,test1,1,0.787010599997302,-38.0
5,ab,m,19,r,1,(121.76378772032346, -121.76378772032352),28,7,3,no,m,6,m,0.8419410999995307,1,47,test1,1,0.842057299996668,-38.0
5,ab,m,19,r,1,(-121.76378772032352, -121.76378772032348),26,25,4,yes,x,5,x,0.6349877999964519,1,48,test1,1,0.6351991999981692,-20.0
5,ab,m,19,r,1,(172.20000000000002, 0.0),21,-25,14,no,m,6,m,0.5670083000004524,1,49,test1,1,0.5672446999960812,-20.0
5,ab,m,19,r,1,(172.20000000000002, 0.0),21,25,4,yes,x,5,x,1.0110989999957383,1,50,test1,1,1.0115855000040028,-20.0
5,ab,m,19,r,1,(-121.76378772032352, -121.76378772032348),26,-7,13,yes,x,5,x,0.8256709999986924,1,51,test1,1,0.8257687000004807,-52.0
5,ab,m,19,r,1,(1.0544208940658713e-14, 172.20000000000002),23,3,1,yes,x,5,x,0.9396333999975468,1,52,test1,1,0.939856899996812,-42.0
5,ab,m,19,r,1,(-3.163262682197613e-14, -172.20000000000002),27,-25,14,no,m,6,m,0.6033271999986027,1,53,test1,1,0.603982000000542,-42.0
5,ab,m,19,r,1,(1.0544208940658713e-14, 172.20000000000002),23,-3,11,yes,x,5,x,0.8043331000008038,1,54,test1,1,0.8044931999975233,-48.0
5,ab,m,19,r,1,(-121.76378772032352, -121.76378772032348),26,-3,11,yes,x,5,x,1.2674506999974255,1,55,test1,1,1.2675783000013325,-48.0
5,ab,m,19,r,1,(172.20000000000002, 0.0),21,3,1,yes,x,5,x,1.0969381000031717,1,56,test1,1,1.097477000002982,-42.0
5,ab,m,19,r,1,(-3.163262682197613e-14, -172.20000000000002),27,25,4,yes,x,5,x,0.559753699999419,1,57,test1,1,0.5598690000042552,-20.0
5,ab,m,19,r,1,(-121.76378772032348, 121.76378772032349),24,25,4,yes,x,5,x,0.5346563999992213,1,58,test1,1,0.5351895999992848,-20.0
5,ab,m,19,r,1,(-121.76378772032348, 121.76378772032349),24,-25,14,no,m,6,m,0.5649604999998701,1,59,test1,1,0.5652036000028602,-20.0
5,ab,m,19,r,1,(-3.163262682197613e-14, -172.20000000000002),27,-5,12,no,m,6,m,1.017884499997308,1,60,test1,1,1.0180970000001253,-20.0
5,ab,m,19,r,1,(121.76378772032349, 121.76378772032349),22,-25,14,yes,x,5,x,0.5500303000007989,1,61,test1,1,0.5501294000059715,-70.0
5,ab,m,19,r,1,(-172.20000000000002, 2.1088417881317425e-14),25,7,3,no,m,6,m,0.6841526999996859,1,62,test1,1,0.6844797999947332,-70.0
5,ab,m,19,r,1,(172.20000000000002, 0.0),21,25,4,no,m,6,m,0.598077499998908,1,63,test1,1,0.5983886999965762,-70.0
5,ab,m,19,r,1,(121.76378772032349, 121.76378772032349),22,25,4,yes,x,5,x,0.7068473999970593,1,64,test1,1,0.7069604999996955,-20.0
5,ab,m,19,r,1,(121.76378772032346, -121.76378772032352),28,-7,13,no,m,6,m,0.8458478999964427,1,65,test1,1,0.8459961999978987,-20.0
5,ab,m,19,r,1,(121.76378772032349, 121.76378772032349),22,-3,11,no,m,6,m,0.5441800999979023,1,66,test1,1,0.5444982000044547,-20.0
5,ab,m,19,r,1,(1.0544208940658713e-14, 172.20000000000002),23,-7,13,yes,x,5,x,0.9535113000019919,1,67,test1,1,0.954237900004955,-52.0
5,ab,m,19,r,1,(172.20000000000002, 0.0),21,-3,11,yes,x,5,x,0.982524300001387,1,68,test1,1,0.9827498999948148,-48.0
5,ab,m,19,r,1,(-172.20000000000002, 2.1088417881317425e-14),25,25,4,yes,x,5,x,0.6997526999984984,1,69,test1,1,0.6999405999958981,-20.0
5,ab,m,19,r,1,(1.0544208940658713e-14, 172.20000000000002),23,5,2,no,m,6,x,1.0458212000012281,0,70,test1,1,1.0459438000034424,-20.0
5,ab,m,19,r,1,(121.76378772032346, -121.76378772032352),28,-25,14,no,m,6,m,0.9324111000023549,1,71,test1,1,0.9329121999980998,-20.0
5,ab,m,19,r,1,(1.0544208940658713e-14, 172.20000000000002),23,-7,13,no,m,6,m,1.1733131000000867,1,72,test1,1,1.1734892999957083,-20.0
5,ab,m,19,r,1,(-121.76378772032352, -121.76378772032348),26,-25,14,yes,x,5,x,0.554925500000536,1,73,test1,1,0.5550274000052013,-70.0
5,ab,m,19,r,1,(-121.76378772032348, 121.76378772032349),24,5,2,no,m,6,m,0.6397932000036235,1,74,test1,1,0.6399435000057565,-70.0
5,ab,m,19,r,1,(-172.20000000000002, 2.1088417881317425e-14),25,-25,14,yes,x,5,x,0.5245207000043592,1,75,test1,1,0.5249414000063553,-70.0
5,ab,m,19,r,1,(-121.76378772032352, -121.76378772032348),26,7,3,yes,x,5,x,0.669912999997905,1,76,test1,1,0.6700251000002027,-38.0
5,ab,m,19,r,1,(121.76378772032349, 121.76378772032349),22,5,2,no,m,6,x,0.6703635000012582,0,77,test1,1,0.6705228999999235,-38.0
5,ab,m,19,r,1,(172.20000000000002, 0.0),21,7,3,yes,x,5,x,0.9351463000057265,1,78,test1,1,0.9353851999985636,-38.0
5,ab,m,19,r,1,(172.20000000000002, 0.0),21,-7,13,yes,x,5,x,0.6307719000033103,1,79,test1,1,0.6311691000009887,-52.0
5,ab,m,19,r,1,(1.0544208940658713e-14, 172.20000000000002),23,-7,13,yes,x,5,x,0.5993681999971159,1,80,test1,1,0.5997762000042712,-52.0
5,ab,m,19,r,1,(-172.20000000000002, 2.1088417881317425e-14),25,7,3,yes,x,5,x,0.5034117999966838,1,81,test1,1,0.5035533999980544,-38.0
5,ab,m,19,r,1,(121.76378772032346, -121.76378772032352),28,3,1,yes,x,5,m,0.7667082000043592,0,82,test1,1,0.7668322999961674,-42.0
5,ab,m,19,r,1,(1.0544208940658713e-14, 172.20000000000002),23,7,3,yes,x,5,x,0.604920999998285,1,83,test1,1,0.6056364999967627,-38.0
5,ab,m,19,r,1,(172.20000000000002, 0.0),21,-5,12,yes,x,5,x,0.9762151000031736,1,84,test1,1,0.9763584999964223,-50.0
5,ab,m,19,r,1,(172.20000000000002, 0.0),21,5,2,yes,x,5,x,0.9316878000026918,1,85,test1,1,0.9318168999961927,-40.0
5,ab,m,19,r,1,(-172.20000000000002, 2.1088417881317425e-14),25,7,3,yes,x,5,x,0.6250281000029645,1,86,test1,1,0.6257264999949257,-38.0
5,ab,m,19,r,1,(1.0544208940658713e-14, 172.20000000000002),23,5,2,yes,x,5,x,0.6414712999976473,1,87,test1,1,0.6417756000009831,-40.0
5,ab,m,19,r,1,(121.76378772032349, 121.76378772032349),22,-7,13,yes,x,5,x,0.6098916000046302,1,88,test1,1,0.6101251999934902,-52.0
5,ab,m,19,r,1,(121.76378772032349, 121.76378772032349),22,7,3,yes,x,5,x,0.5455952999982401,1,89,test1,1,0.5458036999989417,-38.0
5,ab,m,19,r,1,(-121.76378772032352, -121.76378772032348),26,-3,11,no,m,6,m,0.8390615000025718,1,90,test1,1,0.8393467999994755,-38.0
5,ab,m,19,r,1,(-3.163262682197613e-14, -172.20000000000002),27,-3,11,no,m,6,m,0.9966338000012911,1,91,test1,1,0.9967326000041794,-38.0
5,ab,m,19,r,1,(-121.76378772032352, -121.76378772032348),26,-5,12,no,m,6,m,0.7474774000002071,1,92,test1,1,0.7477122000054806,-38.0
5,ab,m,19,r,1,(121.76378772032346, -121.76378772032352),28,-25,14,yes,x,5,x,1.0632308999993256,1,93,test1,1,1.0633315999948536,-70.0
5,ab,m,19,r,1,(1.0544208940658713e-14, 172.20000000000002),23,-3,11,yes,x,5,x,0.826345699999365,1,94,test1,1,0.8266794999944977,-48.0
5,ab,m,19,r,1,(121.76378772032346, -121.76378772032352),28,7,3,yes,x,5,x,0.8107194000040181,1,95,test1,1,0.8108548000018345,-38.0
5,ab,m,19,r,1,(-3.163262682197613e-14, -172.20000000000002),27,25,4,yes,x,5,x,0.792067100002896,1,96,test1,1,0.7922331000008853,-20.0
5,ab,m,19,r,1,(1.0544208940658713e-14, 172.20000000000002),23,-3,11,no,m,6,m,0.608836400002474,1,1,test2,1,0.6091765000019222,-20.0
5,ab,m,19,r,1,(121.76378772032346, -121.76378772032352),28,5,2,yes,x,5,x,0.5183600000018487,1,2,test2,1,0.5186914000005345,-40.0
5,ab,m,19,r,1,(121.76378772032346, -121.76378772032352),28,-5,12,no,m,6,m,0.7580636999991839,1,3,test2,1,0.7587153999993461,-40.0
5,ab,m,19,r,1,(121.76378772032346, -121.76378772032352),28,-3,11,yes,x,5,x,0.7395639999958803,1,4,test2,1,0.7396851000012248,-48.0
5,ab,m,19,r,1,(121.76378772032349, 121.76378772032349),22,-3,11,yes,x,5,x,0.7734583999990718,1,5,test2,1,0.774088500002108,-48.0
5,ab,m,19,r,1,(-3.163262682197613e-14, -172.20000000000002),27,-25,14,yes,x,5,x,0.5152951999989455,1,6,test2,1,0.5154624000060721,-70.0
5,ab,m,19,r,1,(-121.76378772032352, -121.76378772032348),26,3,1,yes,x,5,m,0.8714752000014414,0,7,test2,1,0.8718219000002136,-42.0
5,ab,m,19,r,1,(-121.76378772032352, -121.76378772032348),26,5,2,no,m,6,x,0.546815499998047,0,8,test2,1,0.547241699998267,-42.0
5,ab,m,19,r,1,(-3.163262682197613e-14, -172.20000000000002),27,3,1,no,m,6,m,1.2355347000047914,1,9,test2,1,1.236219099999289,-42.0
5,ab,m,19,r,1,(121.76378772032346, -121.76378772032352),28,25,4,yes,x,5,x,0.4459237999981269,1,10,test2,1,0.4461196000047494,-20.0
5,ab,m,19,r,1,(-3.163262682197613e-14, -172.20000000000002),27,7,3,yes,x,5,x,0.6517993000015849,1,11,test2,1,0.6520549000051687,-38.0
5,ab,m,19,r,1,(121.76378772032349, 121.76378772032349),22,7,3,no,m,6,m,0.7669602999958443,1,12,test2,1,0.7672037999946042,-38.0
5,ab,m,19,r,1,(-172.20000000000002, 2.1088417881317425e-14),25,3,1,yes,x,5,x,0.8540618999977596,1,13,test2,1,0.8542579999993904,-42.0
5,ab,m,19,r,1,(121.76378772032346, -121.76378772032352),28,3,1,no,m,6,m,0.8060014000002411,1,14,test2,1,0.8062733000042499,-42.0
5,ab,m,19,r,1,(121.76378772032346, -121.76378772032352),28,7,3,yes,x,5,x,0.5663204000011319,1,15,test2,1,0.5664752999946359,-38.0
5,ab,m,19,r,1,(1.0544208940658713e-14, 172.20000000000002),23,25,4,yes,x,5,x,0.7327800999992178,1,16,test2,1,0.7330011000012746,-20.0
5,ab,m,19,r,1,(121.76378772032349, 121.76378772032349),22,5,2,yes,x,5,x,0.6076210999963223,1,17,test2,1,0.607744900000398,-40.0
5,ab,m,19,r,1,(-121.76378772032348, 121.76378772032349),24,-7,13,yes,x,5,x,0.5879576000006637,1,18,test2,1,0.5880961999937426,-52.0
5,ab,m,19,r,1,(172.20000000000002, 0.0),21,5,2,no,m,6,m,0.9918035000009695,1,19,test2,1,0.9920000999991316,-52.0
5,ab,m,19,r,1,(-121.76378772032348, 121.76378772032349),24,5,2,yes,x,5,x,0.6410347999990336,1,20,test2,1,0.6418302000020049,-40.0
5,ab,m,19,r,1,(121.76378772032346, -121.76378772032352),28,3,1,yes,x,5,m,0.8606368999971892,0,21,test2,1,0.8607610999970348,-42.0
5,ab,m,19,r,1,(172.20000000000002, 0.0),21,-3,11,no,m,6,m,1.1856831999975839,1,22,test2,1,1.1858947000000626,-42.0
5,ab,m,19,r,1,(172.20000000000002, 0.0),21,5,2,yes,x,5,x,0.668224500004726,1,23,test2,1,0.6684634999983246,-40.0
5,ab,m,19,r,1,(172.20000000000002, 0.0),21,-5,12,yes,x,5,x,0.8152564999982133,1,24,test2,1,0.8155225000009523,-50.0
5,ab,m,19,r,1,(121.76378772032346, -121.76378772032352),28,5,2,no,m,6,m,1.2016667000061716,1,25,test2,1,1.2018457000012859,-50.0
5,ab,m,19,r,1,(1.0544208940658713e-14, 172.20000000000002),23,3,1,no,m,6,m,0.7338442000036594,1,26,test2,1,0.7339767999947071,-50.0
5,ab,m,19,r,1,(-3.163262682197613e-14, -172.20000000000002),27,-7,13,yes,x,5,x,0.6724587000062456,1,27,test2,1,0.6726889000055962,-52.0
5,ab,m,19,r,1,(-172.20000000000002, 2.1088417881317425e-14),25,-3,11,yes,x,5,x,1.0773260999994818,1,28,test2,1,1.0774487999951816,-48.0
5,ab,m,19,r,1,(-3.163262682197613e-14, -172.20000000000002),27,-5,12,yes,x,5,x,0.7684626999980537,1,29,test2,1,0.7685612000059336,-50.0
5,ab,m,19,r,1,(172.20000000000002, 0.0),21,-25,14,yes,x,5,x,1.3578386000008322,1,30,test2,1,1.358084700004838,-70.0
5,ab,m,19,r,1,(-121.76378772032352, -121.76378772032348),26,-3,11,yes,x,5,x,0.9002190999963204,1,31,test2,1,0.9004647000037949,-48.0
5,ab,m,19,r,1,(-121.76378772032348, 121.76378772032349),24,3,1,yes,x,5,x,0.6515413000015542,1,32,test2,1,0.6517712999993819,-42.0
5,ab,m,19,r,1,(-121.76378772032348, 121.76378772032349),24,-7,13,no,m,6,m,0.8117618000032962,1,33,test2,1,0.8119769000040833,-42.0
5,ab,m,19,r,1,(121.76378772032349, 121.76378772032349),22,3,1,no,m,6,m,0.6632354999965173,1,34,test2,1,0.6633349000039743,-42.0
5,ab,m,19,r,1,(-172.20000000000002, 2.1088417881317425e-14),25,-5,12,yes,x,5,x,0.9731960999997682,1,35,test2,1,0.9734659000023385,-50.0
5,ab,m,19,r,1,(-172.20000000000002, 2.1088417881317425e-14),25,5,2,no,m,6,m,0.574823800001468,1,36,test2,1,0.5751416999992216,-50.0
5,ab,m,19,r,1,(1.0544208940658713e-14, 172.20000000000002),23,7,3,yes,x,5,x,0.5394699000025867,1,37,test2,1,0.5396777999994811,-38.0
5,ab,m,19,r,1,(-3.163262682197613e-14, -172.20000000000002),27,5,2,no,m,6,m,0.6166932999985875,1,38,test2,1,0.6170322999969358,-38.0
5,ab,m,19,r,1,(121.76378772032349, 121.76378772032349),22,-5,12,yes,x,5,x,0.807948599998781,1,39,test2,1,0.808157300001767,-50.0
5,ab,m,19,r,1,(-172.20000000000002, 2.1088417881317425e-14),25,25,4,no,m,6,x,0.658791800000472,0,40,test2,1,0.6589212000035332,-50.0
5,ab,m,19,r,1,(1.0544208940658713e-14, 172.20000000000002),23,-5,12,yes,x,5,x,0.5470152000052622,1,41,test2,1,0.5471180999957141,-50.0
5,ab,m,19,r,1,(172.20000000000002, 0.0),21,-5,12,no,m,6,m,1.1513389999963692,1,42,test2,1,1.1518324999997276,-50.0
5,ab,m,19,r,1,(-3.163262682197613e-14, -172.20000000000002),27,7,3,no,m,6,m,0.667531399994914,1,43,test2,1,0.6678169000006164,-50.0
5,ab,m,19,r,1,(172.20000000000002, 0.0),21,7,3,no,m,6,m,0.6993096000005607,1,44,test2,1,0.699530700003379,-50.0
5,ab,m,19,r,1,(-121.76378772032352, -121.76378772032348),26,-25,14,no,m,6,m,0.6678223999988404,1,45,test2,1,0.6680484000025899,-50.0
5,ab,m,19,r,1,(-121.76378772032348, 121.76378772032349),24,-5,12,no,m,6,m,0.5855818999989424,1,46,test2,1,0.5858933999988949,-50.0
5,ab,m,19,r,1,(-121.76378772032348, 121.76378772032349),24,-5,12,yes,x,5,x,0.7366277999972226,1,47,test2,1,0.7367962999996962,-50.0
5,ab,m,19,r,1,(121.76378772032346, -121.76378772032352),28,-3,11,yes,x,5,m,0.6728874999971595,0,48,test2,1,0.6731116000009933,-48.0
5,ab,m,19,r,1,(-121.76378772032348, 121.76378772032349),24,-25,14,yes,x,5,x,0.47933539999939967,1,49,test2,1,0.47946780000347644,-70.0
5,ab,m,19,r,1,(121.76378772032349, 121.76378772032349),22,3,1,yes,x,5,m,0.9982063999996171,0,50,test2,1,0.9986223000014434,-42.0
5,ab,m,19,r,1,(-121.76378772032348, 121.76378772032349),24,7,3,yes,x,5,x,0.5854048999972292,1,51,test2,1,0.5855034999985946,-38.0
5,ab,m,19,r,1,(-3.163262682197613e-14, -172.20000000000002),27,-7,13,yes,x,5,x,1.2776013999973657,1,52,test2,1,1.277826700003061,-52.0
5,ab,m,19,r,1,(-121.76378772032348, 121.76378772032349),24,-7,13,yes,x,5,x,0.6093077000041376,1,53,test2,1,0.6096015999937663,-52.0
5,ab,m,19,r,1,(-121.76378772032348, 121.76378772032349),24,7,3,yes,x,5,x,0.6163598999992246,1,54,test2,1,0.6170484999965993,-38.0
5,ab,m,19,r,1,(121.76378772032349, 121.76378772032349),22,5,2,yes,x,5,x,0.769830400000501,1,55,test2,1,0.7699491000021226,-40.0
5,ab,m,19,r,1,(121.76378772032346, -121.76378772032352),28,-7,13,yes,x,5,x,0.6515703999975813,1,56,test2,1,0.6516678000043612,-52.0
5,ab,m,19,r,1,(1.0544208940658713e-14, 172.20000000000002),23,25,4,yes,x,5,x,0.9696775999982492,1,57,test2,1,0.9699088999986998,-20.0
5,ab,m,19,r,1,(-172.20000000000002, 2.1088417881317425e-14),25,-3,11,no,m,6,None,None,0,58,test2,1,1.9800863999989815,-20.0
5,ab,m,19,r,1,(-121.76378772032348, 121.76378772032349),24,25,4,yes,x,5,x,0.4962946000014199,1,59,test2,1,0.49659350000001723,-20.0
5,ab,m,19,r,1,(172.20000000000002, 0.0),21,-3,11,yes,x,5,x,1.3077284999963013,1,60,test2,1,1.3079579999975977,-48.0
5,ab,m,19,r,1,(-121.76378772032352, -121.76378772032348),26,25,4,no,m,6,m,1.1492975000001024,1,61,test2,1,1.1495423999949708,-48.0
5,ab,m,19,r,1,(121.76378772032349, 121.76378772032349),22,-7,13,yes,x,5,x,1.0217809999958263,1,62,test2,1,1.0221795000034035,-52.0
5,ab,m,19,r,1,(-121.76378772032352, -121.76378772032348),26,-5,12,yes,x,5,x,0.6740552000046591,1,63,test2,1,0.6745973999932176,-50.0
5,ab,m,19,r,1,(-121.76378772032348, 121.76378772032349),24,-3,11,yes,x,5,m,0.995940699998755,0,64,test2,1,0.9961877000023378,-48.0
5,ab,m,19,r,1,(121.76378772032346, -121.76378772032352),28,25,4,no,m,6,m,0.8857628000041586,1,65,test2,1,0.885896199994022,-48.0
5,ab,m,19,r,1,(121.76378772032346, -121.76378772032352),28,-25,14,yes,x,5,x,0.5257033999951091,1,66,test2,1,0.526091899999301,-70.0
5,ab,m,19,r,1,(-172.20000000000002, 2.1088417881317425e-14),25,-7,13,no,m,6,m,0.5865237999969395,1,67,test2,1,0.5867613000009442,-70.0
5,ab,m,19,r,1,(1.0544208940658713e-14, 172.20000000000002),23,-5,12,yes,x,5,x,0.516176600001927,1,68,test2,1,0.516310600003635,-50.0
5,ab,m,19,r,1,(1.0544208940658713e-14, 172.20000000000002),23,-25,14,yes,x,5,x,0.4611088000019663,1,69,test2,1,0.46146369999769377,-70.0
5,ab,m,19,r,1,(-172.20000000000002, 2.1088417881317425e-14),25,-5,12,no,m,6,m,0.5810764000052586,1,70,test2,1,0.5813933000026736,-70.0
5,ab,m,19,r,1,(-172.20000000000002, 2.1088417881317425e-14),25,-5,12,yes,x,5,x,0.4526091000007,1,71,test2,1,0.45282980000047246,-50.0
5,ab,m,19,r,1,(121.76378772032349, 121.76378772032349),22,-5,12,no,m,6,m,1.1129117000018596,1,72,test2,1,1.1131198000002769,-50.0
5,ab,m,19,r,1,(121.76378772032349, 121.76378772032349),22,3,1,yes,x,5,m,0.6853537999995751,0,73,test2,1,0.6854878000012832,-42.0
5,ab,m,19,r,1,(-121.76378772032348, 121.76378772032349),24,3,1,yes,x,5,x,0.5087944999977481,1,74,test2,1,0.5090484000029392,-42.0
5,ab,m,19,r,1,(-3.163262682197613e-14, -172.20000000000002),27,-5,12,yes,x,5,x,0.7146375000011176,1,75,test2,1,0.7147571999958018,-50.0
5,ab,m,19,r,1,(-3.163262682197613e-14, -172.20000000000002),27,-25,14,yes,x,5,x,0.42218750000029104,1,76,test2,1,0.4222829999998794,-70.0
5,ab,m,19,r,1,(-121.76378772032352, -121.76378772032348),26,-7,13,yes,x,5,x,0.55574969999725,1,77,test2,1,0.5561373000018648,-52.0
5,ab,m,19,r,1,(-121.76378772032352, -121.76378772032348),26,3,1,yes,x,5,x,0.628417799998715,1,78,test2,1,0.6285725999987335,-42.0
5,ab,m,19,r,1,(121.76378772032346, -121.76378772032352),28,-5,12,yes,x,5,x,0.633038400002988,1,79,test2,1,0.6331366000013077,-50.0
5,ab,m,19,r,1,(-3.163262682197613e-14, -172.20000000000002),27,-7,13,no,m,6,m,0.9300225000042701,1,80,test2,1,0.9302757999976166,-50.0
5,ab,m,19,r,1,(-121.76378772032348, 121.76378772032349),24,3,1,no,m,6,m,0.9330695000026026,1,81,test2,1,0.9331684999997378,-50.0
5,ab,m,19,r,1,(1.0544208940658713e-14, 172.20000000000002),23,25,4,no,m,6,m,0.7877130999986548,1,82,test2,1,0.7878287999992608,-50.0
5,ab,m,19,r,1,(-172.20000000000002, 2.1088417881317425e-14),25,-25,14,no,m,6,m,0.8393816000025254,1,83,test2,1,0.8395246999934898,-50.0
5,ab,m,19,r,1,(-121.76378772032352, -121.76378772032348),26,7,3,yes,x,5,x,0.6138888999994379,1,84,test2,1,0.6140525000009802,-38.0
5,ab,m,19,r,1,(-172.20000000000002, 2.1088417881317425e-14),25,-25,14,yes,x,5,x,0.8389781000005314,1,85,test2,1,0.8393008999992162,-70.0
5,ab,m,19,r,1,(-121.76378772032348, 121.76378772032349),24,7,3,no,m,6,m,0.848633500005235,1,86,test2,1,0.8492694000015035,-70.0
5,ab,m,19,r,1,(-121.76378772032352, -121.76378772032348),26,-7,13,no,m,6,m,0.6445281999986037,1,87,test2,1,0.6446290999956545,-70.0
5,ab,m,19,r,1,(-3.163262682197613e-14, -172.20000000000002),27,25,4,no,m,6,m,0.6842199999955483,1,88,test2,1,0.6844576000003144,-70.0
5,ab,m,19,r,1,(121.76378772032349, 121.76378772032349),22,25,4,no,m,6,m,0.6600809000010486,1,89,test2,1,0.6606449000028078,-70.0
5,ab,m,19,r,1,(172.20000000000002, 0.0),21,-7,13,no,m,6,m,0.5667485000012675,1,90,test2,1,0.5668745000002673,-70.0
5,ab,m,19,r,1,(172.20000000000002, 0.0),21,3,1,yes,x,5,x,1.1125287000031676,1,91,test2,1,1.112747400002263,-42.0
5,ab,m,19,r,1,(172.20000000000002, 0.0),21,-7,13,yes,x,5,x,0.6736206999994465,1,92,test2,1,0.6738550000009127,-52.0
5,ab,m,19,r,1,(121.76378772032349, 121.76378772032349),22,7,3,yes,x,5,x,0.7016566999955103,1,93,test2,1,0.7021318999977666,-38.0
5,ab,m,19,r,1,(-172.20000000000002, 2.1088417881317425e-14),25,-7,13,yes,x,5,x,0.5830628000039724,1,94,test2,1,0.5837564000030397,-52.0
5,ab,m,19,r,1,(-3.163262682197613e-14, -172.20000000000002),27,5,2,yes,x,5,x,0.6814758999971673,1,95,test2,1,0.6827187000017148,-40.0
5,ab,m,19,r,1,(121.76378772032349, 121.76378772032349),22,-7,13,no,m,6,m,0.8972519000017201,1,96,test2,1,0.8974799000061466,-40.0
5,ab,m,19,r,1,(121.76378772032346, -121.76378772032352),28,-3,11,no,m,6,m,1.0785039999973378,1,1,test1,2,1.0786033999975189,-40.0
5,ab,m,19,r,1,(1.0544208940658713e-14, 172.20000000000002),23,3,1,yes,x,5,x,0.6847010999990744,1,2,test1,2,0.684891199998674,-42.0
5,ab,m,19,r,1,(1.0544208940658713e-14, 172.20000000000002),23,-5,12,no,m,6,m,0.7604413000008208,1,3,test1,2,0.7605411000040476,-42.0
5,ab,m,19,r,1,(121.76378772032349, 121.76378772032349),22,-5,12,yes,x,5,x,0.6080740999968839,1,4,test1,2,0.608482699994056,-50.0
5,ab,m,19,r,1,(1.0544208940658713e-14, 172.20000000000002),23,-25,14,yes,x,5,x,0.5795809999981429,1,5,test1,2,0.5797108000042499,-70.0
5,ab,m,19,r,1,(-121.76378772032348, 121.76378772032349),24,5,2,yes,x,5,x,0.595540100002836,1,6,test1,2,0.5958811999953468,-40.0
5,ab,m,19,r,1,(-3.163262682197613e-14, -172.20000000000002),27,-3,11,yes,x,5,x,1.0015937999996822,1,7,test1,2,1.0017060999962268,-48.0
5,ab,m,19,r,1,(121.76378772032346, -121.76378772032352),28,-5,12,yes,x,5,x,0.9238345000048866,1,8,test1,2,0.9240925999984029,-50.0
5,ab,m,19,r,1,(172.20000000000002, 0.0),21,25,4,yes,x,5,x,0.5027332000026945,1,9,test1,2,0.5028309000044828,-20.0
5,ab,m,19,r,1,(-172.20000000000002, 2.1088417881317425e-14),25,3,1,yes,x,5,x,0.4593444999991334,1,10,test1,2,0.45965370000340044,-42.0
5,ab,m,19,r,1,(-121.76378772032348, 121.76378772032349),24,-5,12,yes,x,5,x,0.5231526999996277,1,11,test1,2,0.5233453999971971,-50.0
5,ab,m,19,r,1,(-121.76378772032352, -121.76378772032348),26,5,2,yes,x,5,x,0.5155792000005022,1,12,test1,2,0.5162105999988853,-40.0
5,ab,m,19,r,1,(-3.163262682197613e-14, -172.20000000000002),27,-3,11,yes,x,5,x,0.5514473000002909,1,13,test1,2,0.5517139000003226,-48.0
5,ab,m,19,r,1,(-172.20000000000002, 2.1088417881317425e-14),25,3,1,no,m,6,m,0.8682034999947064,1,14,test1,2,0.8686515000008512,-48.0
5,ab,m,19,r,1,(121.76378772032349, 121.76378772032349),22,-3,11,yes,x,5,x,0.6864323999980115,1,15,test1,2,0.6865335999973468,-48.0
5,ab,m,19,r,1,(-121.76378772032352, -121.76378772032348),26,-25,14,yes,x,5,x,0.5199345000000903,1,16,test1,2,0.5205986000000848,-70.0
5,ab,m,19,r,1,(-172.20000000000002, 2.1088417881317425e-14),25,25,4,yes,x,5,x,0.5530557000020053,1,17,test1,2,0.5531513999958406,-20.0
5,ab,m,19,r,1,(-121.76378772032352, -121.76378772032348),26,5,2,yes,x,5,x,0.5054562000004807,1,18,test1,2,0.5055571999982931,-40.0
5,ab,m,19,r,1,(-121.76378772032352, -121.76378772032348),26,-5,12,yes,x,5,x,0.5362785999968764,1,19,test1,2,0.5365703999996185,-50.0
5,ab,m,19,r,1,(121.76378772032346, -121.76378772032352),28,5,2,yes,x,5,x,0.5896413000009488,1,20,test1,2,0.5899404000010691,-40.0
5,ab,m,19,r,1,(172.20000000000002, 0.0),21,3,1,no,m,6,m,0.7756208999999217,1,21,test1,2,0.7757220999992569,-40.0
5,ab,m,19,r,1,(-172.20000000000002, 2.1088417881317425e-14),25,5,2,yes,x,5,x,0.7257937000031234,1,22,test1,2,0.7263999999995576,-40.0
5,ab,m,19,r,1,(-121.76378772032348, 121.76378772032349),24,-3,11,no,m,6,m,0.7075451999990037,1,23,test1,2,0.7077357999951346,-40.0
5,ab,m,19,r,1,(-121.76378772032352, -121.76378772032348),26,25,4,yes,x,5,x,0.5041972000035457,1,24,test1,2,0.5043539000034798,-20.0
5,ab,m,19,r,1,(121.76378772032346, -121.76378772032352),28,25,4,yes,x,5,m,1.0316291999988607,0,25,test1,2,1.0318260999993072,-20.0
5,ab,m,19,r,1,(-121.76378772032348, 121.76378772032349),24,-3,11,yes,x,5,m,0.9722345000045607,0,26,test1,2,0.9725256999954581,-48.0
5,ab,m,19,r,1,(172.20000000000002, 0.0),21,7,3,yes,x,5,x,0.49149600000237115,1,27,test1,2,0.4918662999989465,-38.0
5,ab,m,19,r,1,(-121.76378772032352, -121.76378772032348),26,7,3,no,m,6,m,1.0364553999970667,1,28,test1,2,1.036753400003363,-38.0
5,ab,m,19,r,1,(-3.163262682197613e-14, -172.20000000000002),27,3,1,yes,x,5,x,0.9043486999944435,1,29,test1,2,0.9046432000031928,-42.0
5,ab,m,19,r,1,(121.76378772032349, 121.76378772032349),22,25,4,yes,x,5,x,0.5864444000035292,1,30,test1,2,0.5868171999973129,-20.0
5,ab,m,19,r,1,(172.20000000000002, 0.0),21,-25,14,yes,x,5,x,0.5998849000025075,1,31,test1,2,0.6001161000021966,-70.0
5,ab,m,19,r,1,(1.0544208940658713e-14, 172.20000000000002),23,7,3,no,m,6,m,1.0742339999997057,1,32,test1,2,1.0745094000012614,-70.0
5,ab,m,19,r,1,(121.76378772032346, -121.76378772032352),28,-7,13,yes,x,5,x,0.6232604000033461,1,33,test1,2,0.6234957999986364,-52.0
5,ab,m,19,r,1,(-3.163262682197613e-14, -172.20000000000002),27,5,2,yes,x,5,x,0.879340500003309,1,34,test1,2,0.8795481999986805,-40.0
5,ab,m,19,r,1,(-172.20000000000002, 2.1088417881317425e-14),25,5,2,yes,x,5,x,0.7026912000001175,1,35,test1,2,0.7029304000025149,-40.0
5,ab,m,19,r,1,(121.76378772032349, 121.76378772032349),22,-25,14,yes,x,5,x,0.7686960999999428,1,36,test1,2,0.7689251999981934,-70.0
5,ab,m,19,r,1,(-121.76378772032348, 121.76378772032349),24,25,4,no,m,6,x,1.162571000000753,0,37,test1,2,1.1626956999971299,-70.0
5,ab,m,19,r,1,(-172.20000000000002, 2.1088417881317425e-14),25,-3,11,yes,x,5,x,1.0422345000042696,1,38,test1,2,1.042519100003119,-48.0
5,ab,m,19,r,1,(-3.163262682197613e-14, -172.20000000000002),27,3,1,yes,x,5,x,0.7420261000006576,1,39,test1,2,0.7421430999966105,-42.0
5,ab,m,19,r,1,(1.0544208940658713e-14, 172.20000000000002),23,-25,14,no,m,6,x,1.245417300000554,0,40,test1,2,1.2455218000031891,-42.0
5,ab,m,19,r,1,(-121.76378772032348, 121.76378772032349),24,-25,14,yes,x,5,x,0.6242555999997421,1,41,test1,2,0.6247247999999672,-70.0
5,ab,m,19,r,1,(-121.76378772032352, -121.76378772032348),26,3,1,no,m,6,m,0.9093512000035844,1,42,test1,2,0.909618199999386,-70.0
5,ab,m,19,r,1,(121.76378772032349, 121.76378772032349),22,-25,14,no,m,6,m,0.9072240999958012,1,43,test1,2,0.9073270000008051,-70.0
5,ab,m,19,r,1,(1.0544208940658713e-14, 172.20000000000002),23,5,2,yes,x,5,x,0.6392255999962799,1,44,test1,2,0.6395635000008042,-40.0
5,ab,m,19,r,1,(-172.20000000000002, 2.1088417881317425e-14),25,-7,13,yes,x,5,x,0.7410633999970742,1,45,test1,2,0.7414459000065108,-52.0
5,ab,m,19,r,1,(-3.163262682197613e-14, -172.20000000000002),27,7,3,yes,x,5,x,0.5806231999958982,1,46,test1,2,0.5810109000012744,-38.0
5,ab,m,19,r,1,(121.76378772032346, -121.76378772032352),28,7,3,no,m,6,m,0.9680135999951744,1,47,test1,2,0.9682322000007844,-38.0
5,ab,m,19,r,1,(-121.76378772032352, -121.76378772032348),26,25,4,yes,x,5,x,0.5060746000017389,1,48,test1,2,0.5062946000034572,-20.0
5,ab,m,19,r,1,(172.20000000000002, 0.0),21,-25,14,no,m,6,m,0.989686900000379,1,49,test1,2,0.9898021999979392,-20.0
5,ab,m,19,r,1,(172.20000000000002, 0.0),21,25,4,yes,x,5,x,0.523912200005725,1,50,test1,2,0.5240154999992228,-20.0
5,ab,m,19,r,1,(-121.76378772032352, -121.76378772032348),26,-7,13,yes,x,5,x,0.6041116000051261,1,51,test1,2,0.6047299999991083,-52.0
5,ab,m,19,r,1,(1.0544208940658713e-14, 172.20000000000002),23,3,1,yes,x,5,x,0.7185653000051389,1,52,test1,2,0.7187483000016073,-42.0
5,ab,m,19,r,1,(-3.163262682197613e-14, -172.20000000000002),27,-25,14,no,m,6,m,0.8742786000002525,1,53,test1,2,0.8744757999957073,-42.0
5,ab,m,19,r,1,(1.0544208940658713e-14, 172.20000000000002),23,-3,11,yes,x,5,x,1.2916389999954845,1,54,test1,2,1.2918588000029558,-48.0
5,ab,m,19,r,1,(-121.76378772032352, -121.76378772032348),26,-3,11,yes,x,5,x,1.2808310999971582,1,55,test1,2,1.2809802000047057,-48.0
5,ab,m,19,r,1,(172.20000000000002, 0.0),21,3,1,yes,x,5,x,0.9601754000032088,1,56,test1,2,0.9603042000017012,-42.0
5,ab,m,19,r,1,(-3.163262682197613e-14, -172.20000000000002),27,25,4,yes,x,5,x,0.5473397000023397,1,57,test1,2,0.5474517999973614,-20.0
5,ab,m,19,r,1,(-121.76378772032348, 121.76378772032349),24,25,4,yes,x,5,x,0.549919700002647,1,58,test1,2,0.5500988000057987,-20.0
5,ab,m,19,r,1,(-121.76378772032348, 121.76378772032349),24,-25,14,no,m,6,x,0.9506571000019903,0,59,test1,2,0.9507710999969277,-20.0
5,ab,m,19,r,1,(-3.163262682197613e-14, -172.20000000000002),27,-5,12,no,m,6,m,0.9754554999963148,1,60,test1,2,0.9756238999980269,-20.0
5,ab,m,19,r,1,(121.76378772032349, 121.76378772032349),22,-25,14,yes,x,5,x,0.5927016999994521,1,61,test1,2,0.593015500002366,-70.0
5,ab,m,19,r,1,(-172.20000000000002, 2.1088417881317425e-14),25,7,3,no,m,6,m,1.1305839999986347,1,62,test1,2,1.130798300000606,-70.0
5,ab,m,19,r,1,(172.20000000000002, 0.0),21,25,4,no,m,6,m,0.6947451000014553,1,63,test1,2,0.6948720000000321,-70.0
5,ab,m,19,r,1,(121.76378772032349, 121.76378772032349),22,25,4,yes,x,5,x,0.6488223999986076,1,64,test1,2,0.6493409000031534,-20.0
5,ab,m,19,r,1,(121.76378772032346, -121.76378772032352),28,-7,13,no,m,6,m,1.2609999000051175,1,65,test1,2,1.2612714000060805,-20.0
5,ab,m,19,r,1,(121.76378772032349, 121.76378772032349),22,-3,11,no,m,6,m,0.4859078000008594,1,66,test1,2,0.4860107999993488,-20.0
5,ab,m,19,r,1,(1.0544208940658713e-14, 172.20000000000002),23,-7,13,yes,x,5,x,0.5238759999992908,1,67,test1,2,0.5240193999998155,-52.0
5,ab,m,19,r,1,(172.20000000000002, 0.0),21,-3,11,yes,x,5,x,1.011212900004466,1,68,test1,2,1.0114939000050072,-48.0
5,ab,m,19,r,1,(-172.20000000000002, 2.1088417881317425e-14),25,25,4,yes,x,5,x,0.5927270000029239,1,69,test1,2,0.5929548999993131,-20.0
5,ab,m,19,r,1,(1.0544208940658713e-14, 172.20000000000002),23,5,2,no,m,6,m,0.7849650999996811,1,70,test1,2,0.7851903999981005,-20.0
5,ab,m,19,r,1,(121.76378772032346, -121.76378772032352),28,-25,14,no,m,6,m,0.8205290999976569,1,71,test1,2,0.8207799999945564,-20.0
5,ab,m,19,r,1,(1.0544208940658713e-14, 172.20000000000002),23,-7,13,no,m,6,m,0.5459084000030998,1,72,test1,2,0.5462117999995826,-20.0
5,ab,m,19,r,1,(-121.76378772032352, -121.76378772032348),26,-25,14,yes,x,5,x,0.6036526000025333,1,73,test1,2,0.6037642000010237,-70.0
5,ab,m,19,r,1,(-121.76378772032348, 121.76378772032349),24,5,2,no,m,6,m,0.7058078000045498,1,74,test1,2,0.7061518999980763,-70.0
5,ab,m,19,r,1,(-172.20000000000002, 2.1088417881317425e-14),25,-25,14,yes,x,5,x,0.45671299999958137,1,75,test1,2,0.4569924000024912,-70.0
5,ab,m,19,r,1,(-121.76378772032352, -121.76378772032348),26,7,3,yes,x,5,x,0.6550283999968087,1,76,test1,2,0.655153199993947,-38.0
5,ab,m,19,r,1,(121.76378772032349, 121.76378772032349),22,5,2,no,m,6,m,0.8842852000016137,1,77,test1,2,0.8844728999974905,-38.0
5,ab,m,19,r,1,(172.20000000000002, 0.0),21,7,3,yes,x,5,x,0.5460412999964319,1,78,test1,2,0.5461690999945858,-38.0
5,ab,m,19,r,1,(172.20000000000002, 0.0),21,-7,13,yes,x,5,x,0.612554800005455,1,79,test1,2,0.6128557999982149,-52.0
5,ab,m,19,r,1,(1.0544208940658713e-14, 172.20000000000002),23,-7,13,yes,x,5,x,0.6061996999997064,1,80,test1,2,0.6063496000060695,-52.0
5,ab,m,19,r,1,(-172.20000000000002, 2.1088417881317425e-14),25,7,3,yes,x,5,x,0.7815677000035066,1,81,test1,2,0.781878300003882,-38.0
5,ab,m,19,r,1,(121.76378772032346, -121.76378772032352),28,3,1,yes,x,5,x,1.289880100004666,1,82,test1,2,1.2901076999987708,-42.0
5,ab,m,19,r,1,(1.0544208940658713e-14, 172.20000000000002),23,7,3,yes,x,5,x,0.7009336999981315,1,83,test1,2,0.7016072999977041,-38.0
5,ab,m,19,r,1,(172.20000000000002, 0.0),21,-5,12,yes,x,5,x,0.6158284999983152,1,84,test1,2,0.6161217999979272,-50.0
5,ab,m,19,r,1,(172.20000000000002, 0.0),21,5,2,yes,x,5,x,0.85612580000452,1,85,test1,2,0.8567065000024741,-40.0
5,ab,m,19,r,1,(-172.20000000000002, 2.1088417881317425e-14),25,7,3,yes,x,5,x,0.5027056000035373,1,86,test1,2,0.5028051000044798,-38.0
5,ab,m,19,r,1,(1.0544208940658713e-14, 172.20000000000002),23,5,2,yes,x,5,x,0.523392099996272,1,87,test1,2,0.5234903000018676,-40.0
5,ab,m,19,r,1,(121.76378772032349, 121.76378772032349),22,-7,13,yes,x,5,x,0.5217324000041117,1,88,test1,2,0.5218333000011626,-52.0
5,ab,m,19,r,1,(121.76378772032349, 121.76378772032349),22,7,3,yes,x,5,x,0.47369170000456506,1,89,test1,2,0.47379039999941597,-38.0
5,ab,m,19,r,1,(-121.76378772032352, -121.76378772032348),26,-3,11,no,m,6,m,0.9323405999966781,1,90,test1,2,0.9324589000025298,-38.0
5,ab,m,19,r,1,(-3.163262682197613e-14, -172.20000000000002),27,-3,11,no,m,6,x,0.5485380000027362,0,91,test1,2,0.5489778999981354,-38.0
5,ab,m,19,r,1,(-121.76378772032352, -121.76378772032348),26,-5,12,no,m,6,m,0.5516733000040404,1,92,test1,2,0.5522125999996206,-38.0
5,ab,m,19,r,1,(121.76378772032346, -121.76378772032352),28,-25,14,yes,x,5,x,0.6573595000008936,1,93,test1,2,0.6580217000009725,-70.0
5,ab,m,19,r,1,(1.0544208940658713e-14, 172.20000000000002),23,-3,11,yes,x,5,x,0.9942337000029511,1,94,test1,2,0.9944400999956997,-48.0
5,ab,m,19,r,1,(121.76378772032346, -121.76378772032352),28,7,3,yes,x,5,x,0.5709654999955092,1,95,test1,2,0.5711305000004359,-38.0
5,ab,m,19,r,1,(-3.163262682197613e-14, -172.20000000000002),27,25,4,yes,x,5,x,0.5236302999983309,1,96,test1,2,0.5237281000008807,-20.0
5,ab,m,19,r,1,(1.0544208940658713e-14, 172.20000000000002),23,-3,11,no,m,6,m,0.820139499999641,1,1,test2,2,0.820612000003166,-20.0
5,ab,m,19,r,1,(121.76378772032346, -121.76378772032352),28,5,2,yes,x,5,x,0.6890093000038178,1,2,test2,2,0.6891141000014613,-40.0
5,ab,m,19,r,1,(121.76378772032346, -121.76378772032352),28,-5,12,no,m,6,m,0.8392500999980257,1,3,test2,2,0.8395412000027136,-40.0
5,ab,m,19,r,1,(121.76378772032346, -121.76378772032352),28,-3,11,yes,x,5,x,0.9406594999964,1,4,test2,2,0.9409873000040534,-48.0
5,ab,m,19,r,1,(121.76378772032349, 121.76378772032349),22,-3,11,yes,x,5,x,0.8123532999961753,1,5,test2,2,0.8124817999996594,-48.0
5,ab,m,19,r,1,(-3.163262682197613e-14, -172.20000000000002),27,-25,14,yes,x,5,x,0.5697604000015417,1,6,test2,2,0.5698615000001155,-70.0
5,ab,m,19,r,1,(-121.76378772032352, -121.76378772032348),26,3,1,yes,x,5,x,0.9610840000023018,1,7,test2,2,0.961436199999298,-42.0
5,ab,m,19,r,1,(-121.76378772032352, -121.76378772032348),26,5,2,no,m,6,x,1.0051460999966366,0,8,test2,2,1.005244500003755,-42.0
5,ab,m,19,r,1,(-3.163262682197613e-14, -172.20000000000002),27,3,1,no,m,6,m,0.7319860999996308,1,9,test2,2,0.732717999999295,-42.0
5,ab,m,19,r,1,(121.76378772032346, -121.76378772032352),28,25,4,yes,x,5,x,0.6042400000005728,1,10,test2,2,0.6043426999967778,-20.0
5,ab,m,19,r,1,(-3.163262682197613e-14, -172.20000000000002),27,7,3,yes,x,5,x,0.5198243000049843,1,11,test2,2,0.5200619000024744,-38.0
5,ab,m,19,r,1,(121.76378772032349, 121.76378772032349),22,7,3,no,m,6,m,1.2100109000020893,1,12,test2,2,1.2101135999982944,-38.0
5,ab,m,19,r,1,(-172.20000000000002, 2.1088417881317425e-14),25,3,1,yes,x,5,x,0.8441038000019034,1,13,test2,2,0.8443158000009134,-42.0
5,ab,m,19,r,1,(121.76378772032346, -121.76378772032352),28,3,1,no,m,6,m,0.8980695999998716,1,14,test2,2,0.898450500004401,-42.0
5,ab,m,19,r,1,(121.76378772032346, -121.76378772032352),28,7,3,yes,x,5,x,0.6619789000033052,1,15,test2,2,0.6621902999977465,-38.0
5,ab,m,19,r,1,(1.0544208940658713e-14, 172.20000000000002),23,25,4,yes,x,5,x,0.49056890000065323,1,16,test2,2,0.49081009999645175,-20.0
5,ab,m,19,r,1,(121.76378772032349, 121.76378772032349),22,5,2,yes,x,5,x,0.6038763000033214,1,17,test2,2,0.6041668999969261,-40.0
5,ab,m,19,r,1,(-121.76378772032348, 121.76378772032349),24,-7,13,yes,x,5,x,0.536769500002265,1,18,test2,2,0.5368721000049845,-52.0
5,ab,m,19,r,1,(172.20000000000002, 0.0),21,5,2,no,m,6,m,0.7753713999991305,1,19,test2,2,0.7756760000047507,-52.0
5,ab,m,19,r,1,(-121.76378772032348, 121.76378772032349),24,5,2,yes,x,5,x,0.5922740999958478,1,20,test2,2,0.5924969999978202,-40.0
5,ab,m,19,r,1,(121.76378772032346, -121.76378772032352),28,3,1,yes,x,5,x,1.1255382000017562,1,21,test2,2,1.1256711000023643,-42.0
5,ab,m,19,r,1,(172.20000000000002, 0.0),21,-3,11,no,m,6,m,0.5549844999986817,1,22,test2,2,0.5554515999974683,-42.0
5,ab,m,19,r,1,(172.20000000000002, 0.0),21,5,2,yes,x,5,x,0.6458492999954615,1,23,test2,2,0.646139199998288,-40.0
5,ab,m,19,r,1,(172.20000000000002, 0.0),21,-5,12,yes,x,5,m,0.6358373000039137,0,24,test2,2,0.6359643999967375,-50.0
5,ab,m,19,r,1,(121.76378772032346, -121.76378772032352),28,5,2,no,m,6,m,1.1065416999990703,1,25,test2,2,1.1071498000019346,-50.0
5,ab,m,19,r,1,(1.0544208940658713e-14, 172.20000000000002),23,3,1,no,m,6,m,1.5159627999964869,1,26,test2,2,1.516323800002283,-50.0
5,ab,m,19,r,1,(-3.163262682197613e-14, -172.20000000000002),27,-7,13,yes,x,5,x,0.7877296000006027,1,27,test2,2,0.7880246000058833,-52.0
5,ab,m,19,r,1,(-172.20000000000002, 2.1088417881317425e-14),25,-3,11,yes,x,5,m,0.7899987999990117,0,28,test2,2,0.7901621999990311,-48.0
5,ab,m,19,r,1,(-3.163262682197613e-14, -172.20000000000002),27,-5,12,yes,x,5,x,1.9055442000026233,1,29,test2,2,1.905936199997086,-50.0
5,ab,m,19,r,1,(172.20000000000002, 0.0),21,-25,14,yes,x,5,x,1.061580800000229,1,30,test2,2,1.0618070999989868,-70.0
5,ab,m,19,r,1,(-121.76378772032352, -121.76378772032348),26,-3,11,yes,x,5,x,1.0713329999998678,1,31,test2,2,1.0716956000032951,-48.0
5,ab,m,19,r,1,(-121.76378772032348, 121.76378772032349),24,3,1,yes,x,5,x,0.7639182999992045,1,32,test2,2,0.764190800000506,-42.0
5,ab,m,19,r,1,(-121.76378772032348, 121.76378772032349),24,-7,13,no,m,6,m,0.8519042000043555,1,33,test2,2,0.8521612999975332,-42.0
5,ab,m,19,r,1,(121.76378772032349, 121.76378772032349),22,3,1,no,m,6,m,0.6788083999999799,1,34,test2,2,0.6789816000018618,-42.0
5,ab,m,19,r,1,(-172.20000000000002, 2.1088417881317425e-14),25,-5,12,yes,x,5,x,0.6497108999974444,1,35,test2,2,0.6501639999987674,-50.0
5,ab,m,19,r,1,(-172.20000000000002, 2.1088417881317425e-14),25,5,2,no,m,6,m,0.6677713000026415,1,36,test2,2,0.6678833999976632,-50.0
5,ab,m,19,r,1,(1.0544208940658713e-14, 172.20000000000002),23,7,3,yes,x,5,x,0.6093552000020281,1,37,test2,2,0.609674500003166,-38.0
5,ab,m,19,r,1,(-3.163262682197613e-14, -172.20000000000002),27,5,2,no,m,6,m,0.9320781999995233,1,38,test2,2,0.93218060000072,-38.0
5,ab,m,19,r,1,(121.76378772032349, 121.76378772032349),22,-5,12,yes,x,5,x,0.6906615999978385,1,39,test2,2,0.6908744000029401,-50.0
5,ab,m,19,r,1,(-172.20000000000002, 2.1088417881317425e-14),25,25,4,no,m,6,m,1.0729056999989552,1,40,test2,2,1.0731334000010975,-50.0
5,ab,m,19,r,1,(1.0544208940658713e-14, 172.20000000000002),23,-5,12,yes,x,5,x,0.676858099999663,1,41,test2,2,0.6771290999968187,-50.0
5,ab,m,19,r,1,(172.20000000000002, 0.0),21,-5,12,no,m,6,m,1.2111281999968924,1,42,test2,2,1.2113922999997158,-50.0
5,ab,m,19,r,1,(-3.163262682197613e-14, -172.20000000000002),27,7,3,no,m,6,m,1.1457510999971419,1,43,test2,2,1.146116100004292,-50.0
5,ab,m,19,r,1,(172.20000000000002, 0.0),21,7,3,no,m,6,m,1.4785390000033658,1,44,test2,2,1.4788704000020516,-50.0
5,ab,m,19,r,1,(-121.76378772032352, -121.76378772032348),26,-25,14,no,m,6,m,0.7234922000061488,1,45,test2,2,0.7236321000018506,-50.0
5,ab,m,19,r,1,(-121.76378772032348, 121.76378772032349),24,-5,12,no,m,6,m,0.6119638000018313,1,46,test2,2,0.6122948999982327,-50.0
5,ab,m,19,r,1,(-121.76378772032348, 121.76378772032349),24,-5,12,yes,x,5,x,0.6410195000062231,1,47,test2,2,0.6413125000035507,-50.0
5,ab,m,19,r,1,(121.76378772032346, -121.76378772032352),28,-3,11,yes,x,5,x,0.9988176999977441,1,48,test2,2,0.998918400000548,-48.0
5,ab,m,19,r,1,(-121.76378772032348, 121.76378772032349),24,-25,14,yes,x,5,x,0.5410188000023481,1,49,test2,2,0.5411212000035448,-70.0
5,ab,m,19,r,1,(121.76378772032349, 121.76378772032349),22,3,1,yes,x,5,x,0.8904515000031097,1,50,test2,2,0.8905499999964377,-42.0
5,ab,m,19,r,1,(-121.76378772032348, 121.76378772032349),24,7,3,yes,x,5,x,0.4767076999996789,1,51,test2,2,0.47684470000240253,-38.0
5,ab,m,19,r,1,(-3.163262682197613e-14, -172.20000000000002),27,-7,13,yes,x,5,x,0.5380910000021686,1,52,test2,2,0.5387363999980153,-52.0
5,ab,m,19,r,1,(-121.76378772032348, 121.76378772032349),24,-7,13,yes,x,5,x,0.46630500000173924,1,53,test2,2,0.4665079999977024,-52.0
5,ab,m,19,r,1,(-121.76378772032348, 121.76378772032349),24,7,3,yes,x,5,x,0.6092867000043043,1,54,test2,2,0.6094941999981529,-38.0
5,ab,m,19,r,1,(121.76378772032349, 121.76378772032349),22,5,2,yes,x,5,x,0.6146418999996968,1,55,test2,2,0.6147574999995413,-40.0
5,ab,m,19,r,1,(121.76378772032346, -121.76378772032352),28,-7,13,yes,x,5,x,0.5780724999931408,1,56,test2,2,0.5782961000004434,-52.0
5,ab,m,19,r,1,(1.0544208940658713e-14, 172.20000000000002),23,25,4,yes,x,5,x,0.5016297000038321,1,57,test2,2,0.5020277000003261,-20.0
5,ab,m,19,r,1,(-172.20000000000002, 2.1088417881317425e-14),25,-3,11,no,m,6,x,0.7089019999984885,0,58,test2,2,0.7090691999983392,-20.0
5,ab,m,19,r,1,(-121.76378772032348, 121.76378772032349),24,25,4,yes,x,5,x,0.40582820000417996,1,59,test2,2,0.40595269999903394,-20.0
5,ab,m,19,r,1,(172.20000000000002, 0.0),21,-3,11,yes,x,5,x,0.7695784000025014,1,60,test2,2,0.7699508000005153,-48.0
5,ab,m,19,r,1,(-121.76378772032352, -121.76378772032348),26,25,4,no,m,6,m,0.5803225000054226,1,61,test2,2,0.5805700999990222,-48.0
5,ab,m,19,r,1,(121.76378772032349, 121.76378772032349),22,-7,13,yes,x,5,x,0.5569898000030662,1,62,test2,2,0.5570862999957171,-52.0
5,ab,m,19,r,1,(-121.76378772032352, -121.76378772032348),26,-5,12,yes,x,5,x,0.6106878999999026,1,63,test2,2,0.6108530000055907,-50.0
5,ab,m,19,r,1,(-121.76378772032348, 121.76378772032349),24,-3,11,yes,x,5,x,0.8818332999944687,1,64,test2,2,0.882048899999063,-48.0
5,ab,m,19,r,1,(121.76378772032346, -121.76378772032352),28,25,4,no,m,6,m,0.8696505999978399,1,65,test2,2,0.8697428000014042,-48.0
5,ab,m,19,r,1,(121.76378772032346, -121.76378772032352),28,-25,14,yes,x,5,x,0.6138585999942734,1,66,test2,2,0.6140802000008989,-70.0
5,ab,m,19,r,1,(-172.20000000000002, 2.1088417881317425e-14),25,-7,13,no,m,6,x,0.6491473999994923,0,67,test2,2,0.6492492999968817,-70.0
5,ab,m,19,r,1,(1.0544208940658713e-14, 172.20000000000002),23,-5,12,yes,x,5,x,0.5407632999995258,1,68,test2,2,0.5411886000001687,-50.0
5,ab,m,19,r,1,(1.0544208940658713e-14, 172.20000000000002),23,-25,14,yes,x,5,x,0.5234707999989041,1,69,test2,2,0.52358689999528,-70.0
5,ab,m,19,r,1,(-172.20000000000002, 2.1088417881317425e-14),25,-5,12,no,m,6,m,0.665860100001737,1,70,test2,2,0.6659908000001451,-70.0
5,ab,m,19,r,1,(-172.20000000000002, 2.1088417881317425e-14),25,-5,12,yes,x,5,x,1.0893957000007504,1,71,test2,2,1.0898177999988548,-50.0
5,ab,m,19,r,1,(121.76378772032349, 121.76378772032349),22,-5,12,no,m,6,m,0.9029566999961389,1,72,test2,2,0.9039492999945651,-50.0
5,ab,m,19,r,1,(121.76378772032349, 121.76378772032349),22,3,1,yes,x,5,x,0.9950653999985661,1,73,test2,2,0.9956588999993983,-42.0
5,ab,m,19,r,1,(-121.76378772032348, 121.76378772032349),24,3,1,yes,x,5,x,0.9904212999972515,1,74,test2,2,0.9907810000004247,-42.0
5,ab,m,19,r,1,(-3.163262682197613e-14, -172.20000000000002),27,-5,12,yes,x,5,x,0.8925569000057294,1,75,test2,2,0.8926958999945782,-50.0
5,ab,m,19,r,1,(-3.163262682197613e-14, -172.20000000000002),27,-25,14,yes,x,5,x,0.7652278000023216,1,76,test2,2,0.7655159000059939,-70.0
5,ab,m,19,r,1,(-121.76378772032352, -121.76378772032348),26,-7,13,yes,x,5,x,0.5669905000031576,1,77,test2,2,0.567128299997421,-52.0
5,ab,m,19,r,1,(-121.76378772032352, -121.76378772032348),26,3,1,yes,x,5,x,0.6772973000042839,1,78,test2,2,0.6777529000028153,-42.0
5,ab,m,19,r,1,(121.76378772032346, -121.76378772032352),28,-5,12,yes,x,5,x,0.9341692000016337,1,79,test2,2,0.9344370999970124,-50.0
5,ab,m,19,r,1,(-3.163262682197613e-14, -172.20000000000002),27,-7,13,no,m,6,m,1.0316942999997991,1,80,test2,2,1.0318095000038738,-50.0
5,ab,m,19,r,1,(-121.76378772032348, 121.76378772032349),24,3,1,no,m,6,m,0.7902431999973487,1,81,test2,2,0.7903456000058213,-50.0
5,ab,m,19,r,1,(1.0544208940658713e-14, 172.20000000000002),23,25,4,no,m,6,m,0.6691348999956972,1,82,test2,2,0.669773499997973,-50.0
5,ab,m,19,r,1,(-172.20000000000002, 2.1088417881317425e-14),25,-25,14,no,m,6,m,0.6024388000005274,1,83,test2,2,0.6031087999945157,-50.0
5,ab,m,19,r,1,(-121.76378772032352, -121.76378772032348),26,7,3,yes,x,5,x,0.6143034999986412,1,84,test2,2,0.6143971999990754,-38.0
5,ab,m,19,r,1,(-172.20000000000002, 2.1088417881317425e-14),25,-25,14,yes,x,5,x,0.6264958000028855,1,85,test2,2,0.626972800004296,-70.0
5,ab,m,19,r,1,(-121.76378772032348, 121.76378772032349),24,7,3,no,m,6,m,0.8600363999939873,1,86,test2,2,0.8601690000068629,-70.0
5,ab,m,19,r,1,(-121.76378772032352, -121.76378772032348),26,-7,13,no,m,6,m,0.5762057999963872,1,87,test2,2,0.5766016999987187,-70.0
5,ab,m,19,r,1,(-3.163262682197613e-14, -172.20000000000002),27,25,4,no,m,6,m,0.7736724999995204,1,88,test2,2,0.7740899999989779,-70.0
5,ab,m,19,r,1,(121.76378772032349, 121.76378772032349),22,25,4,no,m,6,m,0.7385236999980407,1,89,test2,2,0.7391511000023456,-70.0
5,ab,m,19,r,1,(172.20000000000002, 0.0),21,-7,13,no,m,6,m,0.6676721000039834,1,90,test2,2,0.6679648000063025,-70.0
5,ab,m,19,r,1,(172.20000000000002, 0.0),21,3,1,yes,x,5,x,0.9181742000000668,1,91,test2,2,0.918385600001784,-42.0
5,ab,m,19,r,1,(172.20000000000002, 0.0),21,-7,13,yes,x,5,x,0.709894899999199,1,92,test2,2,0.7100145000003977,-52.0
5,ab,m,19,r,1,(121.76378772032349, 121.76378772032349),22,7,3,yes,x,5,x,0.5806301999982679,1,93,test2,2,0.580917799998133,-38.0
5,ab,m,19,r,1,(-172.20000000000002, 2.1088417881317425e-14),25,-7,13,yes,x,5,x,0.5784314999982598,1,94,test2,2,0.5785295000023325,-52.0
5,ab,m,19,r,1,(-3.163262682197613e-14, -172.20000000000002),27,5,2,yes,x,5,x,0.6194138999999268,1,95,test2,2,0.6197960999998031,-40.0
5,ab,m,19,r,1,(121.76378772032349, 121.76378772032349),22,-7,13,no,m,6,x,1.042998600001738,0,96,test2,2,1.043215900004725,-40.0
5,ab,m,19,r,1,(121.76378772032346, -121.76378772032352),28,-3,11,no,m,6,x,0.7794413000010536,0,1,test1,3,0.7797368000028655,-40.0
5,ab,m,19,r,1,(1.0544208940658713e-14, 172.20000000000002),23,3,1,yes,x,5,x,0.7639784999992116,1,2,test1,3,0.7646361000006436,-42.0
5,ab,m,19,r,1,(1.0544208940658713e-14, 172.20000000000002),23,-5,12,no,m,6,m,0.8946780000042054,1,3,test1,3,0.8948011999964365,-42.0
5,ab,m,19,r,1,(121.76378772032349, 121.76378772032349),22,-5,12,yes,x,5,x,0.5614628999974229,1,4,test1,3,0.5619167000040761,-50.0
5,ab,m,19,r,1,(1.0544208940658713e-14, 172.20000000000002),23,-25,14,yes,x,5,x,0.49741809999977704,1,5,test1,3,0.4975479999993695,-70.0
5,ab,m,19,r,1,(-121.76378772032348, 121.76378772032349),24,5,2,yes,x,5,x,0.7613691000005929,1,6,test1,3,0.7617296999960672,-40.0
5,ab,m,19,r,1,(-3.163262682197613e-14, -172.20000000000002),27,-3,11,yes,x,5,x,1.0169120999998995,1,7,test1,3,1.017044200001692,-48.0
5,ab,m,19,r,1,(121.76378772032346, -121.76378772032352),28,-5,12,yes,x,5,x,0.734047100006137,1,8,test1,3,0.7346524000022328,-50.0
5,ab,m,19,r,1,(172.20000000000002, 0.0),21,25,4,yes,x,5,x,0.4726116000019829,1,9,test1,3,0.47271209999598796,-20.0
5,ab,m,19,r,1,(-172.20000000000002, 2.1088417881317425e-14),25,3,1,yes,x,5,x,0.6351461000012932,1,10,test1,3,0.6354724999982864,-42.0
5,ab,m,19,r,1,(-121.76378772032348, 121.76378772032349),24,-5,12,yes,x,5,x,0.5508219999974244,1,11,test1,3,0.5510324000060791,-50.0
5,ab,m,19,r,1,(-121.76378772032352, -121.76378772032348),26,5,2,yes,x,5,x,0.6479283000007854,1,12,test1,3,0.6483483000047272,-40.0
5,ab,m,19,r,1,(-3.163262682197613e-14, -172.20000000000002),27,-3,11,yes,x,5,x,0.4332377999962773,1,13,test1,3,0.43336619999899995,-48.0
5,ab,m,19,r,1,(-172.20000000000002, 2.1088417881317425e-14),25,3,1,no,m,6,m,1.248971499997424,1,14,test1,3,1.2493071999997483,-48.0
5,ab,m,19,r,1,(121.76378772032349, 121.76378772032349),22,-3,11,yes,x,5,x,0.5943240000051446,1,15,test1,3,0.5944792000009329,-48.0
5,ab,m,19,r,1,(-121.76378772032352, -121.76378772032348),26,-25,14,yes,x,5,x,0.6250394000016968,1,16,test1,3,0.6254700999998022,-70.0
5,ab,m,19,r,1,(-172.20000000000002, 2.1088417881317425e-14),25,25,4,yes,x,5,x,0.6185898000039742,1,17,test1,3,0.618826199999603,-20.0
5,ab,m,19,r,1,(-121.76378772032352, -121.76378772032348),26,5,2,yes,x,5,x,0.6162152999968384,1,18,test1,3,0.6163584000023548,-40.0
5,ab,m,19,r,1,(-121.76378772032352, -121.76378772032348),26,-5,12,yes,x,5,x,0.6010104999950272,1,19,test1,3,0.6012919999993755,-50.0
5,ab,m,19,r,1,(121.76378772032346, -121.76378772032352),28,5,2,yes,x,5,x,0.6610634999960894,1,20,test1,3,0.6614005000010366,-40.0
5,ab,m,19,r,1,(172.20000000000002, 0.0),21,3,1,no,m,6,m,0.8277489000029163,1,21,test1,3,0.8282391999964602,-40.0
5,ab,m,19,r,1,(-172.20000000000002, 2.1088417881317425e-14),25,5,2,yes,x,5,x,0.6015900000056718,1,22,test1,3,0.6020337000009022,-40.0
5,ab,m,19,r,1,(-121.76378772032348, 121.76378772032349),24,-3,11,no,m,6,m,0.6783643000017037,1,23,test1,3,0.6784926000036648,-40.0
5,ab,m,19,r,1,(-121.76378772032352, -121.76378772032348),26,25,4,yes,x,5,x,0.615369200000714,1,24,test1,3,0.615464399998018,-20.0
5,ab,m,19,r,1,(121.76378772032346, -121.76378772032352),28,25,4,yes,x,5,x,0.8823424000001978,1,25,test1,3,0.8825343000062276,-20.0
5,ab,m,19,r,1,(-121.76378772032348, 121.76378772032349),24,-3,11,yes,x,5,m,0.7002780000038911,0,26,test1,3,0.700706600000558,-48.0
5,ab,m,19,r,1,(172.20000000000002, 0.0),21,7,3,yes,x,5,x,0.5849975000019185,1,27,test1,3,0.5850929000007454,-38.0
5,ab,m,19,r,1,(-121.76378772032352, -121.76378772032348),26,7,3,no,m,6,m,1.2199677000025986,1,28,test1,3,1.2201352000047336,-38.0
5,ab,m,19,r,1,(-3.163262682197613e-14, -172.20000000000002),27,3,1,yes,x,5,x,1.5163654999996652,1,29,test1,3,1.5164609999992535,-42.0
5,ab,m,19,r,1,(121.76378772032349, 121.76378772032349),22,25,4,yes,x,5,x,0.5449636000048486,1,30,test1,3,0.5450615000008838,-20.0
5,ab,m,19,r,1,(172.20000000000002, 0.0),21,-25,14,yes,x,5,x,0.464381300000241,1,31,test1,3,0.46458829999755835,-70.0
5,ab,m,19,r,1,(1.0544208940658713e-14, 172.20000000000002),23,7,3,no,m,6,m,0.7531300999980886,1,32,test1,3,0.7533012999992934,-70.0
5,ab,m,19,r,1,(121.76378772032346, -121.76378772032352),28,-7,13,yes,x,5,x,0.7208126000041375,1,33,test1,3,0.7211975999962306,-52.0
5,ab,m,19,r,1,(-3.163262682197613e-14, -172.20000000000002),27,5,2,yes,x,5,x,0.6880794000026071,1,34,test1,3,0.688334999998915,-40.0
5,ab,m,19,r,1,(-172.20000000000002, 2.1088417881317425e-14),25,5,2,yes,x,5,x,0.6120002999959979,1,35,test1,3,0.6121631000060006,-40.0
5,ab,m,19,r,1,(121.76378772032349, 121.76378772032349),22,-25,14,yes,x,5,x,0.6320435000016005,1,36,test1,3,0.63226840000425,-70.0
5,ab,m,19,r,1,(-121.76378772032348, 121.76378772032349),24,25,4,no,m,6,m,0.8098559999998542,1,37,test1,3,0.8104901999977301,-70.0
5,ab,m,19,r,1,(-172.20000000000002, 2.1088417881317425e-14),25,-3,11,yes,x,5,x,0.724803899996914,1,38,test1,3,0.7249775000018417,-48.0
5,ab,m,19,r,1,(-3.163262682197613e-14, -172.20000000000002),27,3,1,yes,x,5,x,1.2419238000002224,1,39,test1,3,1.242504200003168,-42.0
5,ab,m,19,r,1,(1.0544208940658713e-14, 172.20000000000002),23,-25,14,no,m,6,m,0.7807128999993438,1,40,test1,3,0.7809284000031766,-42.0
5,ab,m,19,r,1,(-121.76378772032348, 121.76378772032349),24,-25,14,yes,x,5,x,0.469234600001073,1,41,test1,3,0.46939579999889247,-70.0
5,ab,m,19,r,1,(-121.76378772032352, -121.76378772032348),26,3,1,no,m,6,m,0.6428875999990851,1,42,test1,3,0.6433443999994779,-70.0
5,ab,m,19,r,1,(121.76378772032349, 121.76378772032349),22,-25,14,no,m,6,m,0.8496483999988413,1,43,test1,3,0.850074299996777,-70.0
5,ab,m,19,r,1,(1.0544208940658713e-14, 172.20000000000002),23,5,2,yes,x,5,x,0.667015300001367,1,44,test1,3,0.6671206999963033,-40.0
5,ab,m,19,r,1,(-172.20000000000002, 2.1088417881317425e-14),25,-7,13,yes,x,5,x,0.7343112000016845,1,45,test1,3,0.7346042999997735,-52.0
5,ab,m,19,r,1,(-3.163262682197613e-14, -172.20000000000002),27,7,3,yes,x,5,x,0.6908993000033661,1,46,test1,3,0.6910617999965325,-38.0
5,ab,m,19,r,1,(121.76378772032346, -121.76378772032352),28,7,3,no,m,6,m,0.9794092000011005,1,47,test1,3,0.9800807999999961,-38.0
5,ab,m,19,r,1,(-121.76378772032352, -121.76378772032348),26,25,4,yes,x,5,x,0.5291625000027125,1,48,test1,3,0.5292759000003571,-20.0
5,ab,m,19,r,1,(172.20000000000002, 0.0),21,-25,14,no,m,6,m,1.0379553000020678,1,49,test1,3,1.038498800000525,-20.0
5,ab,m,19,r,1,(172.20000000000002, 0.0),21,25,4,yes,x,5,x,0.4882978000023286,1,50,test1,3,0.4884327000036137,-20.0
5,ab,m,19,r,1,(-121.76378772032352, -121.76378772032348),26,-7,13,yes,x,5,x,0.5357850000000326,1,51,test1,3,0.5359559999997145,-52.0
5,ab,m,19,r,1,(1.0544208940658713e-14, 172.20000000000002),23,3,1,yes,x,5,x,0.9541695000007167,1,52,test1,3,0.9542701000027591,-42.0
5,ab,m,19,r,1,(-3.163262682197613e-14, -172.20000000000002),27,-25,14,no,m,6,m,1.2479585999972187,1,53,test1,3,1.2485240000023623,-42.0
5,ab,m,19,r,1,(1.0544208940658713e-14, 172.20000000000002),23,-3,11,yes,x,5,x,0.8982428000017535,1,54,test1,3,0.8985898999962956,-48.0
5,ab,m,19,r,1,(-121.76378772032352, -121.76378772032348),26,-3,11,yes,x,5,x,0.8174444000032963,1,55,test1,3,0.8175496999974712,-48.0
5,ab,m,19,r,1,(172.20000000000002, 0.0),21,3,1,yes,x,5,x,0.654499800002668,1,56,test1,3,0.6546040000030189,-42.0
5,ab,m,19,r,1,(-3.163262682197613e-14, -172.20000000000002),27,25,4,yes,x,5,x,0.5276622000019415,1,57,test1,3,0.5283412999997381,-20.0
5,ab,m,19,r,1,(-121.76378772032348, 121.76378772032349),24,25,4,yes,x,5,x,0.5989942000014707,1,58,test1,3,0.5994214000020293,-20.0
5,ab,m,19,r,1,(-121.76378772032348, 121.76378772032349),24,-25,14,no,m,6,x,1.0463250999964657,0,59,test1,3,1.0464285999987624,-20.0
5,ab,m,19,r,1,(-3.163262682197613e-14, -172.20000000000002),27,-5,12,no,m,6,m,1.1668477000057464,1,60,test1,3,1.1671263000025647,-20.0
5,ab,m,19,r,1,(121.76378772032349, 121.76378772032349),22,-25,14,yes,x,5,x,0.5019125000035274,1,61,test1,3,0.5020115000006626,-70.0
5,ab,m,19,r,1,(-172.20000000000002, 2.1088417881317425e-14),25,7,3,no,m,6,m,0.6464085000043269,1,62,test1,3,0.6466231999947922,-70.0
5,ab,m,19,r,1,(172.20000000000002, 0.0),21,25,4,no,m,6,m,0.757993200000783,1,63,test1,3,0.7580904999995255,-70.0
5,ab,m,19,r,1,(121.76378772032349, 121.76378772032349),22,25,4,yes,x,5,x,0.42983359999925597,1,64,test1,3,0.4301370999965002,-20.0
5,ab,m,19,r,1,(121.76378772032346, -121.76378772032352),28,-7,13,no,m,6,m,0.4832536000030814,1,65,test1,3,0.48335380000207806,-20.0
5,ab,m,19,r,1,(121.76378772032349, 121.76378772032349),22,-3,11,no,m,6,m,0.7425260999953025,1,66,test1,3,0.7428628999987268,-20.0
5,ab,m,19,r,1,(1.0544208940658713e-14, 172.20000000000002),23,-7,13,yes,x,5,x,0.4517176000008476,1,67,test1,3,0.45187499999883585,-52.0
5,ab,m,19,r,1,(172.20000000000002, 0.0),21,-3,11,yes,x,5,x,1.0544146999964141,1,68,test1,3,1.0545120000024326,-48.0
5,ab,m,19,r,1,(-172.20000000000002, 2.1088417881317425e-14),25,25,4,yes,x,5,x,0.5021636999954353,1,69,test1,3,0.5024357000002055,-20.0
5,ab,m,19,r,1,(1.0544208940658713e-14, 172.20000000000002),23,5,2,no,m,6,m,0.6745252999971854,1,70,test1,3,0.6746259999999893,-20.0
5,ab,m,19,r,1,(121.76378772032346, -121.76378772032352),28,-25,14,no,m,6,m,0.6315313000013703,1,71,test1,3,0.6321652000042377,-20.0
5,ab,m,19,r,1,(1.0544208940658713e-14, 172.20000000000002),23,-7,13,no,m,6,m,0.6650751999986824,1,72,test1,3,0.6656141000057687,-20.0
5,ab,m,19,r,1,(-121.76378772032352, -121.76378772032348),26,-25,14,yes,x,5,x,0.43762590000551427,1,73,test1,3,0.4379138000003877,-70.0
5,ab,m,19,r,1,(-121.76378772032348, 121.76378772032349),24,5,2,no,m,6,m,0.7358107999971253,1,74,test1,3,0.735910800001875,-70.0
5,ab,m,19,r,1,(-172.20000000000002, 2.1088417881317425e-14),25,-25,14,yes,x,5,x,0.45602389999839943,1,75,test1,3,0.4562478000007104,-70.0
5,ab,m,19,r,1,(-121.76378772032352, -121.76378772032348),26,7,3,yes,x,5,x,0.5235911999989185,1,76,test1,3,0.5236972999991849,-38.0
5,ab,m,19,r,1,(121.76378772032349, 121.76378772032349),22,5,2,no,m,6,m,0.690529500003322,1,77,test1,3,0.6910394000005908,-38.0
5,ab,m,19,r,1,(172.20000000000002, 0.0),21,7,3,yes,x,5,x,0.6122308000049088,1,78,test1,3,0.6125969999993686,-38.0
5,ab,m,19,r,1,(172.20000000000002, 0.0),21,-7,13,yes,x,5,x,0.7092016000024159,1,79,test1,3,0.7095907999973861,-52.0
5,ab,m,19,r,1,(1.0544208940658713e-14, 172.20000000000002),23,-7,13,yes,x,5,x,0.4669408000045223,1,80,test1,3,0.467127600000822,-52.0
5,ab,m,19,r,1,(-172.20000000000002, 2.1088417881317425e-14),25,7,3,yes,x,5,x,0.7344738999963738,1,81,test1,3,0.7346452999991016,-38.0
5,ab,m,19,r,1,(121.76378772032346, -121.76378772032352),28,3,1,yes,x,5,x,1.0211773999981233,1,82,test1,3,1.021362700004829,-42.0
5,ab,m,19,r,1,(1.0544208940658713e-14, 172.20000000000002),23,7,3,yes,x,5,x,0.5524284999992233,1,83,test1,3,0.5527250000013737,-38.0
5,ab,m,19,r,1,(172.20000000000002, 0.0),21,-5,12,yes,x,5,x,0.5572652999981074,1,84,test1,3,0.5573923000047216,-50.0
5,ab,m,19,r,1,(172.20000000000002, 0.0),21,5,2,yes,x,5,x,0.45620469999994384,1,85,test1,3,0.4567282999996678,-40.0
5,ab,m,19,r,1,(-172.20000000000002, 2.1088417881317425e-14),25,7,3,yes,x,5,x,0.3957894999985001,1,86,test1,3,0.3962065000014263,-38.0
5,ab,m,19,r,1,(1.0544208940658713e-14, 172.20000000000002),23,5,2,yes,x,5,x,0.465720499996678,1,87,test1,3,0.46594570000161184,-40.0
5,ab,m,19,r,1,(121.76378772032349, 121.76378772032349),22,-7,13,yes,x,5,x,0.5119412999993074,1,88,test1,3,0.5120712999996613,-52.0
5,ab,m,19,r,1,(121.76378772032349, 121.76378772032349),22,7,3,yes,x,5,x,0.4040702999991481,1,89,test1,3,0.4041709999946761,-38.0
5,ab,m,19,r,1,(-121.76378772032352, -121.76378772032348),26,-3,11,no,m,6,m,0.8214672000030987,1,90,test1,3,0.8216799000001629,-38.0
5,ab,m,19,r,1,(-3.163262682197613e-14, -172.20000000000002),27,-3,11,no,m,6,x,0.6787512000009883,0,91,test1,3,0.6789891000007628,-38.0
5,ab,m,19,r,1,(-121.76378772032352, -121.76378772032348),26,-5,12,no,m,6,m,0.9480087999982061,1,92,test1,3,0.9483018000028096,-38.0
5,ab,m,19,r,1,(121.76378772032346, -121.76378772032352),28,-25,14,yes,x,5,x,0.5275267999968491,1,93,test1,3,0.5277534999986528,-70.0
5,ab,m,19,r,1,(1.0544208940658713e-14, 172.20000000000002),23,-3,11,yes,x,5,x,0.5143339000060223,1,94,test1,3,0.5145690999997896,-48.0
5,ab,m,19,r,1,(121.76378772032346, -121.76378772032352),28,7,3,yes,x,5,x,0.5263409000035608,1,95,test1,3,0.5268375999949058,-38.0
5,ab,m,19,r,1,(-3.163262682197613e-14, -172.20000000000002),27,25,4,yes,x,5,x,0.5294313999984297,1,96,test1,3,0.5295310000001336,-20.0
5,ab,m,19,r,1,(1.0544208940658713e-14, 172.20000000000002),23,-3,11,no,m,6,m,0.7256781999967643,1,1,test2,3,0.7263901000042097,-20.0
5,ab,m,19,r,1,(121.76378772032346, -121.76378772032352),28,5,2,yes,x,5,x,0.620690799994918,1,2,test2,3,0.6213480999940657,-40.0
5,ab,m,19,r,1,(121.76378772032346, -121.76378772032352),28,-5,12,no,m,6,m,0.7176076000032481,1,3,test2,3,0.7177104000002146,-40.0
5,ab,m,19,r,1,(121.76378772032346, -121.76378772032352),28,-3,11,yes,x,5,m,0.8547504000016488,0,4,test2,3,0.8551368999978877,-48.0
5,ab,m,19,r,1,(121.76378772032349, 121.76378772032349),22,-3,11,yes,x,5,x,0.6980417999948259,1,5,test2,3,0.6981425999983912,-48.0
5,ab,m,19,r,1,(-3.163262682197613e-14, -172.20000000000002),27,-25,14,yes,x,5,x,0.4503968999997596,1,6,test2,3,0.45102489999408135,-70.0
5,ab,m,19,r,1,(-121.76378772032352, -121.76378772032348),26,3,1,yes,x,5,x,0.8917072999975062,1,7,test2,3,0.8918971999955829,-42.0
5,ab,m,19,r,1,(-121.76378772032352, -121.76378772032348),26,5,2,no,m,6,m,0.9868548000013107,1,8,test2,3,0.9869582999963313,-42.0
5,ab,m,19,r,1,(-3.163262682197613e-14, -172.20000000000002),27,3,1,no,m,6,m,0.5744753999970271,1,9,test2,3,0.5751540999990539,-42.0
5,ab,m,19,r,1,(121.76378772032346, -121.76378772032352),28,25,4,yes,x,5,x,0.4975694999957341,1,10,test2,3,0.4978054000021075,-20.0
5,ab,m,19,r,1,(-3.163262682197613e-14, -172.20000000000002),27,7,3,yes,x,5,x,0.4590484000000288,1,11,test2,3,0.45917159999953583,-38.0
5,ab,m,19,r,1,(121.76378772032349, 121.76378772032349),22,7,3,no,m,6,x,0.5577007000028971,0,12,test2,3,0.5578151000008802,-38.0
5,ab,m,19,r,1,(-172.20000000000002, 2.1088417881317425e-14),25,3,1,yes,x,5,x,0.6291332000037073,1,13,test2,3,0.6292357999991509,-42.0
5,ab,m,19,r,1,(121.76378772032346, -121.76378772032352),28,3,1,no,m,6,m,0.8259410999962711,1,14,test2,3,0.8271273000063957,-42.0
5,ab,m,19,r,1,(121.76378772032346, -121.76378772032352),28,7,3,yes,x,5,x,1.1088411000018823,1,15,test2,3,1.1095014000020456,-38.0
5,ab,m,19,r,1,(1.0544208940658713e-14, 172.20000000000002),23,25,4,yes,x,5,x,1.1270293999987189,1,16,test2,3,1.1272536000033142,-20.0
5,ab,m,19,r,1,(121.76378772032349, 121.76378772032349),22,5,2,yes,x,5,x,1.064851600000111,1,17,test2,3,1.0649709999997867,-40.0
5,ab,m,19,r,1,(-121.76378772032348, 121.76378772032349),24,-7,13,yes,x,5,x,0.5608917999998084,1,18,test2,3,0.561116500000935,-52.0
5,ab,m,19,r,1,(172.20000000000002, 0.0),21,5,2,no,m,6,m,1.0296885999996448,1,19,test2,3,1.0297919000004185,-52.0
5,ab,m,19,r,1,(-121.76378772032348, 121.76378772032349),24,5,2,yes,x,5,x,0.6084247999970103,1,20,test2,3,0.608742100004747,-40.0
5,ab,m,19,r,1,(121.76378772032346, -121.76378772032352),28,3,1,yes,x,5,x,0.8110764000011841,1,21,test2,3,0.8112543000024743,-42.0
5,ab,m,19,r,1,(172.20000000000002, 0.0),21,-3,11,no,m,6,m,0.7158806000006734,1,22,test2,3,0.7165836999993189,-42.0
5,ab,m,19,r,1,(172.20000000000002, 0.0),21,5,2,yes,x,5,x,0.7948585000049206,1,23,test2,3,0.794962799998757,-40.0
5,ab,m,19,r,1,(172.20000000000002, 0.0),21,-5,12,yes,x,5,x,0.631491799998912,1,24,test2,3,0.631723400001647,-50.0
5,ab,m,19,r,1,(121.76378772032346, -121.76378772032352),28,5,2,no,m,6,m,0.9436710000009043,1,25,test2,3,0.9437753000020166,-50.0
5,ab,m,19,r,1,(1.0544208940658713e-14, 172.20000000000002),23,3,1,no,m,6,m,0.820659799996065,1,26,test2,3,0.8207970000003115,-50.0
5,ab,m,19,r,1,(-3.163262682197613e-14, -172.20000000000002),27,-7,13,yes,x,5,x,0.7014217999967514,1,27,test2,3,0.701563000002352,-52.0
5,ab,m,19,r,1,(-172.20000000000002, 2.1088417881317425e-14),25,-3,11,yes,x,5,x,0.9858300999985659,1,28,test2,3,0.9861186999987694,-48.0
5,ab,m,19,r,1,(-3.163262682197613e-14, -172.20000000000002),27,-5,12,yes,x,5,x,0.5176266999988002,1,29,test2,3,0.5177200000034645,-50.0
5,ab,m,19,r,1,(172.20000000000002, 0.0),21,-25,14,yes,x,5,x,0.5255610999956843,1,30,test2,3,0.5256633000026341,-70.0
5,ab,m,19,r,1,(-121.76378772032352, -121.76378772032348),26,-3,11,yes,x,5,x,0.826397700002417,1,31,test2,3,0.826497299996845,-48.0
5,ab,m,19,r,1,(-121.76378772032348, 121.76378772032349),24,3,1,yes,x,5,x,0.5752540999965277,1,32,test2,3,0.5754028000010294,-42.0
5,ab,m,19,r,1,(-121.76378772032348, 121.76378772032349),24,-7,13,no,m,6,m,0.763663000005181,1,33,test2,3,0.7638396999973338,-42.0
5,ab,m,19,r,1,(121.76378772032349, 121.76378772032349),22,3,1,no,m,6,m,1.0536529999953927,1,34,test2,3,1.0540792000028887,-42.0
5,ab,m,19,r,1,(-172.20000000000002, 2.1088417881317425e-14),25,-5,12,yes,x,5,x,0.747528500003682,1,35,test2,3,0.7480869999999413,-50.0
5,ab,m,19,r,1,(-172.20000000000002, 2.1088417881317425e-14),25,5,2,no,m,6,m,0.5960667000035755,1,36,test2,3,0.5967359999995097,-50.0
5,ab,m,19,r,1,(1.0544208940658713e-14, 172.20000000000002),23,7,3,yes,x,5,x,0.8621809000032954,1,37,test2,3,0.8623050000023795,-38.0
5,ab,m,19,r,1,(-3.163262682197613e-14, -172.20000000000002),27,5,2,no,m,6,m,1.037672799997381,1,38,test2,3,1.0377709999957005,-38.0
5,ab,m,19,r,1,(121.76378772032349, 121.76378772032349),22,-5,12,yes,x,5,x,0.5593860000008135,1,39,test2,3,0.5594847000029404,-50.0
5,ab,m,19,r,1,(-172.20000000000002, 2.1088417881317425e-14),25,25,4,no,m,6,m,0.9503862999990815,1,40,test2,3,0.9505541000035009,-50.0
5,ab,m,19,r,1,(1.0544208940658713e-14, 172.20000000000002),23,-5,12,yes,x,5,x,0.7353074999991804,1,41,test2,3,0.7358043999993242,-50.0
5,ab,m,19,r,1,(172.20000000000002, 0.0),21,-5,12,no,m,6,m,0.6109718000006978,1,42,test2,3,0.6110924000022351,-50.0
5,ab,m,19,r,1,(-3.163262682197613e-14, -172.20000000000002),27,7,3,no,m,6,m,0.675649799995881,1,43,test2,3,0.6759762000001501,-50.0
5,ab,m,19,r,1,(172.20000000000002, 0.0),21,7,3,no,m,6,m,0.5635273000007146,1,44,test2,3,0.563995899996371,-50.0
5,ab,m,19,r,1,(-121.76378772032352, -121.76378772032348),26,-25,14,no,m,6,m,0.5895452999975532,1,45,test2,3,0.5896801000053529,-50.0
5,ab,m,19,r,1,(-121.76378772032348, 121.76378772032349),24,-5,12,no,m,6,m,0.6463088000018615,1,46,test2,3,0.6469778999962728,-50.0
5,ab,m,19,r,1,(-121.76378772032348, 121.76378772032349),24,-5,12,yes,x,5,x,0.5936875999977929,1,47,test2,3,0.5939104999997653,-50.0
5,ab,m,19,r,1,(121.76378772032346, -121.76378772032352),28,-3,11,yes,x,5,x,0.6377234999963548,1,48,test2,3,0.6378168000010191,-48.0
5,ab,m,19,r,1,(-121.76378772032348, 121.76378772032349),24,-25,14,yes,x,5,x,0.455385599998408,1,49,test2,3,0.45568449999700533,-70.0
5,ab,m,19,r,1,(121.76378772032349, 121.76378772032349),22,3,1,yes,x,5,x,0.6356750999984797,1,50,test2,3,0.6361719999986235,-42.0
5,ab,m,19,r,1,(-121.76378772032348, 121.76378772032349),24,7,3,yes,x,5,x,0.5057381000005989,1,51,test2,3,0.5062072000000626,-38.0
5,ab,m,19,r,1,(-3.163262682197613e-14, -172.20000000000002),27,-7,13,yes,x,5,x,0.4180625000008149,1,52,test2,3,0.4181631999963429,-52.0
5,ab,m,19,r,1,(-121.76378772032348, 121.76378772032349),24,-7,13,yes,x,5,x,0.8781356000035885,1,53,test2,3,0.8783609999954933,-52.0
5,ab,m,19,r,1,(-121.76378772032348, 121.76378772032349),24,7,3,yes,x,5,x,0.45179839999764226,1,54,test2,3,0.4518954000013764,-38.0
5,ab,m,19,r,1,(121.76378772032349, 121.76378772032349),22,5,2,yes,x,5,x,0.6644729999970878,1,55,test2,3,0.6646724000020185,-40.0
5,ab,m,19,r,1,(121.76378772032346, -121.76378772032352),28,-7,13,yes,x,5,x,0.48981300000014016,1,56,test2,3,0.4899860000004992,-52.0
5,ab,m,19,r,1,(1.0544208940658713e-14, 172.20000000000002),23,25,4,yes,x,5,x,0.48495589999947697,1,57,test2,3,0.4852558999991743,-20.0
5,ab,m,19,r,1,(-172.20000000000002, 2.1088417881317425e-14),25,-3,11,no,m,6,m,0.9728529999993043,1,58,test2,3,0.9734623999975156,-20.0
5,ab,m,19,r,1,(-121.76378772032348, 121.76378772032349),24,25,4,yes,x,5,x,0.5714636999982758,1,59,test2,3,0.5716330999930506,-20.0
5,ab,m,19,r,1,(172.20000000000002, 0.0),21,-3,11,yes,x,5,m,1.2724323000002187,0,60,test2,3,1.2727304000000004,-48.0
5,ab,m,19,r,1,(-121.76378772032352, -121.76378772032348),26,25,4,no,m,6,m,0.8174505999995745,1,61,test2,3,0.8177525999999489,-48.0
5,ab,m,19,r,1,(121.76378772032349, 121.76378772032349),22,-7,13,yes,x,5,x,0.5486518000034266,1,62,test2,3,0.5488007999956608,-52.0
5,ab,m,19,r,1,(-121.76378772032352, -121.76378772032348),26,-5,12,yes,x,5,x,0.7315904999995837,1,63,test2,3,0.7316887000051793,-50.0
5,ab,m,19,r,1,(-121.76378772032348, 121.76378772032349),24,-3,11,yes,x,5,x,0.6455630000054953,1,64,test2,3,0.6461062000016682,-48.0
5,ab,m,19,r,1,(121.76378772032346, -121.76378772032352),28,25,4,no,m,6,m,0.658931300000404,1,65,test2,3,0.6590991999983089,-48.0
5,ab,m,19,r,1,(121.76378772032346, -121.76378772032352),28,-25,14,yes,x,5,x,0.4635991999966791,1,66,test2,3,0.46370000000024447,-70.0
5,ab,m,19,r,1,(-172.20000000000002, 2.1088417881317425e-14),25,-7,13,no,m,6,m,0.7911568999988958,1,67,test2,3,0.7912834999951883,-70.0
5,ab,m,19,r,1,(1.0544208940658713e-14, 172.20000000000002),23,-5,12,yes,x,5,x,0.4533769999979995,1,68,test2,3,0.45347900000342634,-50.0
5,ab,m,19,r,1,(1.0544208940658713e-14, 172.20000000000002),23,-25,14,yes,x,5,x,0.44257910000305856,1,69,test2,3,0.4428247999967425,-70.0
5,ab,m,19,r,1,(-172.20000000000002, 2.1088417881317425e-14),25,-5,12,no,m,6,m,0.7202995000043302,1,70,test2,3,0.7206672000029357,-70.0
5,ab,m,19,r,1,(-172.20000000000002, 2.1088417881317425e-14),25,-5,12,yes,x,5,x,0.7248958000054699,1,71,test2,3,0.7250911000010092,-50.0
5,ab,m,19,r,1,(121.76378772032349, 121.76378772032349),22,-5,12,no,m,6,m,0.7567659999986063,1,72,test2,3,0.7570298000064213,-50.0
5,ab,m,19,r,1,(121.76378772032349, 121.76378772032349),22,3,1,yes,x,5,x,1.0934198999966611,1,73,test2,3,1.0938671000039903,-42.0
5,ab,m,19,r,1,(-121.76378772032348, 121.76378772032349),24,3,1,yes,x,5,x,0.5811998000062886,1,74,test2,3,0.5813815000001341,-42.0
5,ab,m,19,r,1,(-3.163262682197613e-14, -172.20000000000002),27,-5,12,yes,x,5,x,0.638607700006105,1,75,test2,3,0.6387069999982486,-50.0
5,ab,m,19,r,1,(-3.163262682197613e-14, -172.20000000000002),27,-25,14,yes,x,5,x,0.5024160999964806,1,76,test2,3,0.5025559999994584,-70.0
5,ab,m,19,r,1,(-121.76378772032352, -121.76378772032348),26,-7,13,yes,x,5,x,0.5036921000064467,1,77,test2,3,0.5038147000013851,-52.0
5,ab,m,19,r,1,(-121.76378772032352, -121.76378772032348),26,3,1,yes,x,5,x,0.5770991000026697,1,78,test2,3,0.5772128999960842,-42.0
5,ab,m,19,r,1,(121.76378772032346, -121.76378772032352),28,-5,12,yes,x,5,x,0.5835463000039454,1,79,test2,3,0.5836444000015035,-50.0
5,ab,m,19,r,1,(-3.163262682197613e-14, -172.20000000000002),27,-7,13,no,m,6,m,0.6931327000056626,1,80,test2,3,0.6934046000023955,-50.0
5,ab,m,19,r,1,(-121.76378772032348, 121.76378772032349),24,3,1,no,m,6,m,0.7415877999956138,1,81,test2,3,0.741803600001731,-50.0
5,ab,m,19,r,1,(1.0544208940658713e-14, 172.20000000000002),23,25,4,no,m,6,m,1.0578576999978395,1,82,test2,3,1.057972399998107,-50.0
5,ab,m,19,r,1,(-172.20000000000002, 2.1088417881317425e-14),25,-25,14,no,m,6,m,0.5761119000017061,1,83,test2,3,0.5762179000012111,-50.0
5,ab,m,19,r,1,(-121.76378772032352, -121.76378772032348),26,7,3,yes,x,5,x,0.5288512999977684,1,84,test2,3,0.5289518999998108,-38.0
5,ab,m,19,r,1,(-172.20000000000002, 2.1088417881317425e-14),25,-25,14,yes,x,5,x,0.5088528999986011,1,85,test2,3,0.5090619999973569,-70.0
5,ab,m,19,r,1,(-121.76378772032348, 121.76378772032349),24,7,3,no,m,6,m,0.881551300000865,1,86,test2,3,0.8817766000065603,-70.0
5,ab,m,19,r,1,(-121.76378772032352, -121.76378772032348),26,-7,13,no,m,6,m,0.7249179999998887,1,87,test2,3,0.725453799997922,-70.0
5,ab,m,19,r,1,(-3.163262682197613e-14, -172.20000000000002),27,25,4,no,m,6,m,0.638418400005321,1,88,test2,3,0.638734200001636,-70.0
5,ab,m,19,r,1,(121.76378772032349, 121.76378772032349),22,25,4,no,m,6,m,0.6241081999978633,1,89,test2,3,0.6242824000000837,-70.0
5,ab,m,19,r,1,(172.20000000000002, 0.0),21,-7,13,no,m,6,m,0.47037470000213943,1,90,test2,3,0.47047480000037467,-70.0
5,ab,m,19,r,1,(172.20000000000002, 0.0),21,3,1,yes,x,5,x,0.8342665000018314,1,91,test2,3,0.8345759000003454,-42.0
5,ab,m,19,r,1,(172.20000000000002, 0.0),21,-7,13,yes,x,5,x,0.609827000000223,1,92,test2,3,0.6099825000055716,-52.0
5,ab,m,19,r,1,(121.76378772032349, 121.76378772032349),22,7,3,yes,x,5,x,0.6292634999990696,1,93,test2,3,0.6295443999988493,-38.0
5,ab,m,19,r,1,(-172.20000000000002, 2.1088417881317425e-14),25,-7,13,yes,x,5,x,0.5762352000019746,1,94,test2,3,0.5764443000007304,-52.0
5,ab,m,19,r,1,(-3.163262682197613e-14, -172.20000000000002),27,5,2,yes,x,5,x,0.5906775999974343,1,95,test2,3,0.5908062999951653,-40.0
5,ab,m,19,r,1,(121.76378772032349, 121.76378772032349),22,-7,13,no,m,6,m,1.019683200000145,1,96,test2,3,1.0200041999996756,-40.0
5,ab,m,19,r,1,(121.76378772032346, -121.76378772032352),28,-3,11,no,m,6,m,0.5662254999988363,1,1,test1,4,0.5664991999947233,-40.0
5,ab,m,19,r,1,(1.0544208940658713e-14, 172.20000000000002),23,3,1,yes,x,5,x,0.6033879000024172,1,2,test1,4,0.6041553000031854,-42.0
5,ab,m,19,r,1,(1.0544208940658713e-14, 172.20000000000002),23,-5,12,no,m,6,m,0.6269163000033586,1,3,test1,4,0.6270353999934741,-42.0
5,ab,m,19,r,1,(121.76378772032349, 121.76378772032349),22,-5,12,yes,x,5,x,0.5011696000001393,1,4,test1,4,0.5013919999983045,-50.0
5,ab,m,19,r,1,(1.0544208940658713e-14, 172.20000000000002),23,-25,14,yes,x,5,x,0.5780831000010949,1,5,test1,4,0.5782191999969655,-70.0
5,ab,m,19,r,1,(-121.76378772032348, 121.76378772032349),24,5,2,yes,x,5,x,0.9190289999969536,1,6,test1,4,0.9193175999971572,-40.0
5,ab,m,19,r,1,(-3.163262682197613e-14, -172.20000000000002),27,-3,11,yes,x,5,m,1.032550199997786,0,7,test1,4,1.032942700003332,-48.0
5,ab,m,19,r,1,(121.76378772032346, -121.76378772032352),28,-5,12,yes,x,5,x,0.7394133999987389,1,8,test1,4,0.7395143999965512,-50.0
5,ab,m,19,r,1,(172.20000000000002, 0.0),21,25,4,yes,x,5,x,0.7908881999974255,1,9,test1,4,0.7909934999988764,-20.0
5,ab,m,19,r,1,(-172.20000000000002, 2.1088417881317425e-14),25,3,1,yes,x,5,x,0.5546885000003385,1,10,test1,4,0.555334299999231,-42.0
5,ab,m,19,r,1,(-121.76378772032348, 121.76378772032349),24,-5,12,yes,x,5,x,0.6364221999974689,1,11,test1,4,0.6367876000003889,-50.0
5,ab,m,19,r,1,(-121.76378772032352, -121.76378772032348),26,5,2,yes,x,5,x,0.44422150000173133,1,12,test1,4,0.44449229999736417,-40.0
5,ab,m,19,r,1,(-3.163262682197613e-14, -172.20000000000002),27,-3,11,yes,x,5,x,1.0402525000026799,1,13,test1,4,1.0406477000069572,-48.0
5,ab,m,19,r,1,(-172.20000000000002, 2.1088417881317425e-14),25,3,1,no,m,6,m,0.8904953999954159,1,14,test1,4,0.8906344999995781,-48.0
5,ab,m,19,r,1,(121.76378772032349, 121.76378772032349),22,-3,11,yes,x,5,x,0.5390590999959386,1,15,test1,4,0.5395933000036166,-48.0
5,ab,m,19,r,1,(-121.76378772032352, -121.76378772032348),26,-25,14,yes,x,5,x,0.42974040000262903,1,16,test1,4,0.430055299999367,-70.0
5,ab,m,19,r,1,(-172.20000000000002, 2.1088417881317425e-14),25,25,4,yes,x,5,x,0.6267680999953882,1,17,test1,4,0.6273369000045932,-20.0
5,ab,m,19,r,1,(-121.76378772032352, -121.76378772032348),26,5,2,yes,x,5,x,0.499685299997509,1,18,test1,4,0.49985060000472004,-40.0
5,ab,m,19,r,1,(-121.76378772032352, -121.76378772032348),26,-5,12,yes,x,5,x,0.5017496000000392,1,19,test1,4,0.5020889999941573,-50.0
5,ab,m,19,r,1,(121.76378772032346, -121.76378772032352),28,5,2,yes,x,5,x,0.6937477000028593,1,20,test1,4,0.6939630999986548,-40.0
5,ab,m,19,r,1,(172.20000000000002, 0.0),21,3,1,no,m,6,m,0.7179734999954235,1,21,test1,4,0.718098999997892,-40.0
5,ab,m,19,r,1,(-172.20000000000002, 2.1088417881317425e-14),25,5,2,yes,x,5,x,0.580082799999218,1,22,test1,4,0.5802388999945833,-40.0
5,ab,m,19,r,1,(-121.76378772032348, 121.76378772032349),24,-3,11,no,m,6,m,0.6885457999960636,1,23,test1,4,0.6886796999970102,-40.0
5,ab,m,19,r,1,(-121.76378772032352, -121.76378772032348),26,25,4,yes,x,5,x,0.42818160000024363,1,24,test1,4,0.4284087999985786,-20.0
5,ab,m,19,r,1,(121.76378772032346, -121.76378772032352),28,25,4,yes,x,5,x,0.5114394999982323,1,25,test1,4,0.5117879000026733,-20.0
5,ab,m,19,r,1,(-121.76378772032348, 121.76378772032349),24,-3,11,yes,x,5,x,0.7031147000016063,1,26,test1,4,0.7037842999998247,-48.0
5,ab,m,19,r,1,(172.20000000000002, 0.0),21,7,3,yes,x,5,x,0.6486948000019765,1,27,test1,4,0.6488592000023345,-38.0
5,ab,m,19,r,1,(-121.76378772032352, -121.76378772032348),26,7,3,no,m,6,m,0.8055819000001065,1,28,test1,4,0.8058043999990332,-38.0
5,ab,m,19,r,1,(-3.163262682197613e-14, -172.20000000000002),27,3,1,yes,x,5,x,0.9760530999992625,1,29,test1,4,0.976274900000135,-42.0
5,ab,m,19,r,1,(121.76378772032349, 121.76378772032349),22,25,4,yes,x,5,x,0.5096532999959891,1,30,test1,4,0.5099237999966135,-20.0
5,ab,m,19,r,1,(172.20000000000002, 0.0),21,-25,14,yes,x,5,x,0.48714509999990696,1,31,test1,4,0.48729869999806397,-70.0
5,ab,m,19,r,1,(1.0544208940658713e-14, 172.20000000000002),23,7,3,no,m,6,m,0.7966843000031076,1,32,test1,4,0.7968820999958552,-70.0
5,ab,m,19,r,1,(121.76378772032346, -121.76378772032352),28,-7,13,yes,x,5,x,0.5905517999999574,1,33,test1,4,0.5906886000011582,-52.0
5,ab,m,19,r,1,(-3.163262682197613e-14, -172.20000000000002),27,5,2,yes,x,5,x,0.499690600001486,1,34,test1,4,0.49978489999921294,-40.0
5,ab,m,19,r,1,(-172.20000000000002, 2.1088417881317425e-14),25,5,2,yes,x,5,x,0.5945348000022932,1,35,test1,4,0.5948067999997875,-40.0
5,ab,m,19,r,1,(121.76378772032349, 121.76378772032349),22,-25,14,yes,x,5,x,0.4782848000031663,1,36,test1,4,0.478505099999893,-70.0
5,ab,m,19,r,1,(-121.76378772032348, 121.76378772032349),24,25,4,no,m,6,m,0.700980100002198,1,37,test1,4,0.7011994999993476,-70.0
5,ab,m,19,r,1,(-172.20000000000002, 2.1088417881317425e-14),25,-3,11,yes,x,5,x,0.9153977000023588,1,38,test1,4,0.9156195999967167,-48.0
5,ab,m,19,r,1,(-3.163262682197613e-14, -172.20000000000002),27,3,1,yes,x,5,x,1.0801215000028606,1,39,test1,4,1.0802206000007573,-42.0
5,ab,m,19,r,1,(1.0544208940658713e-14, 172.20000000000002),23,-25,14,no,m,6,x,0.7390830999938771,0,40,test1,4,0.7391822999998112,-42.0
5,ab,m,19,r,1,(-121.76378772032348, 121.76378772032349),24,-25,14,yes,x,5,x,0.4720303999929456,1,41,test1,4,0.47215719999803696,-70.0
5,ab,m,19,r,1,(-121.76378772032352, -121.76378772032348),26,3,1,no,m,6,m,0.7396988999971654,1,42,test1,4,0.7397950000013225,-70.0
5,ab,m,19,r,1,(121.76378772032349, 121.76378772032349),22,-25,14,no,m,6,m,0.6605345000061789,1,43,test1,4,0.660780899997917,-70.0
5,ab,m,19,r,1,(1.0544208940658713e-14, 172.20000000000002),23,5,2,yes,x,5,x,0.66770859999815,1,44,test1,4,0.6680634999938775,-40.0
5,ab,m,19,r,1,(-172.20000000000002, 2.1088417881317425e-14),25,-7,13,yes,x,5,x,0.46592930000042543,1,45,test1,4,0.46610730000247713,-52.0
5,ab,m,19,r,1,(-3.163262682197613e-14, -172.20000000000002),27,7,3,yes,x,5,x,0.47324059999664314,1,46,test1,4,0.4733397000018158,-38.0
5,ab,m,19,r,1,(121.76378772032346, -121.76378772032352),28,7,3,no,m,6,m,0.702282500002184,1,47,test1,4,0.7023878999971203,-38.0
5,ab,m,19,r,1,(-121.76378772032352, -121.76378772032348),26,25,4,yes,x,5,x,0.35298380000313045,1,48,test1,4,0.3530878000019584,-20.0
5,ab,m,19,r,1,(172.20000000000002, 0.0),21,-25,14,no,m,6,m,0.6467149000018253,1,49,test1,4,0.6468468000020948,-20.0
5,ab,m,19,r,1,(172.20000000000002, 0.0),21,25,4,yes,x,5,x,0.4754412000038428,1,50,test1,4,0.4756693999952404,-20.0
5,ab,m,19,r,1,(-121.76378772032352, -121.76378772032348),26,-7,13,yes,x,5,x,0.5715591999978642,1,51,test1,4,0.5718030999996699,-52.0
5,ab,m,19,r,1,(1.0544208940658713e-14, 172.20000000000002),23,3,1,yes,x,5,x,0.7387088999967091,1,52,test1,4,0.7389594000051147,-42.0
5,ab,m,19,r,1,(-3.163262682197613e-14, -172.20000000000002),27,-25,14,no,m,6,m,0.6942695000034291,1,53,test1,4,0.6943750999998883,-42.0
5,ab,m,19,r,1,(1.0544208940658713e-14, 172.20000000000002),23,-3,11,yes,x,5,x,0.702080199996999,1,54,test1,4,0.7021827999997186,-48.0
5,ab,m,19,r,1,(-121.76378772032352, -121.76378772032348),26,-3,11,yes,x,5,x,0.8796328000025824,1,55,test1,4,0.8799295999997412,-48.0
5,ab,m,19,r,1,(172.20000000000002, 0.0),21,3,1,yes,x,5,x,1.461324899995816,1,56,test1,4,1.4615563999977894,-42.0
5,ab,m,19,r,1,(-3.163262682197613e-14, -172.20000000000002),27,25,4,yes,x,5,x,0.48975590000191005,1,57,test1,4,0.49041469999792753,-20.0
5,ab,m,19,r,1,(-121.76378772032348, 121.76378772032349),24,25,4,yes,x,5,x,0.6368169000052148,1,58,test1,4,0.6369720000002417,-20.0
5,ab,m,19,r,1,(-121.76378772032348, 121.76378772032349),24,-25,14,no,m,6,x,1.1816486999960034,0,59,test1,4,1.1821099000007962,-20.0
5,ab,m,19,r,1,(-3.163262682197613e-14, -172.20000000000002),27,-5,12,no,m,6,x,1.4979921999984072,0,60,test1,4,1.4983378000033554,-20.0
5,ab,m,19,r,1,(121.76378772032349, 121.76378772032349),22,-25,14,yes,x,5,x,0.5234863000005134,1,61,test1,4,0.5235912999996799,-70.0
5,ab,m,19,r,1,(-172.20000000000002, 2.1088417881317425e-14),25,7,3,no,m,6,m,0.6271038999984739,1,62,test1,4,0.6272559999997611,-70.0
5,ab,m,19,r,1,(172.20000000000002, 0.0),21,25,4,no,m,6,m,0.8735881000029622,1,63,test1,4,0.8737368000001879,-70.0
5,ab,m,19,r,1,(121.76378772032349, 121.76378772032349),22,25,4,yes,x,5,x,0.5386672999957227,1,64,test1,4,0.5393628999954672,-20.0
5,ab,m,19,r,1,(121.76378772032346, -121.76378772032352),28,-7,13,no,m,6,m,0.6521932999967248,1,65,test1,4,0.6527805000005173,-20.0
5,ab,m,19,r,1,(121.76378772032349, 121.76378772032349),22,-3,11,no,m,6,m,1.1286325000037323,1,66,test1,4,1.1291616000016802,-20.0
5,ab,m,19,r,1,(1.0544208940658713e-14, 172.20000000000002),23,-7,13,yes,x,5,x,0.7762444999971194,1,67,test1,4,0.7765116000009584,-52.0
5,ab,m,19,r,1,(172.20000000000002, 0.0),21,-3,11,yes,x,5,x,1.5518416999984765,1,68,test1,4,1.5520243999999366,-48.0
5,ab,m,19,r,1,(-172.20000000000002, 2.1088417881317425e-14),25,25,4,yes,x,5,x,0.5872204999977839,1,69,test1,4,0.5873361000049044,-20.0
5,ab,m,19,r,1,(1.0544208940658713e-14, 172.20000000000002),23,5,2,no,m,6,m,0.6731137999959174,1,70,test1,4,0.67321620000439,-20.0
5,ab,m,19,r,1,(121.76378772032346, -121.76378772032352),28,-25,14,no,m,6,m,0.5700304999991204,1,71,test1,4,0.5701326999987941,-20.0
5,ab,m,19,r,1,(1.0544208940658713e-14, 172.20000000000002),23,-7,13,no,m,6,m,0.614202299999306,1,72,test1,4,0.6144206000026315,-20.0
5,ab,m,19,r,1,(-121.76378772032352, -121.76378772032348),26,-25,14,yes,x,5,x,0.6474256000001333,1,73,test1,4,0.6475933000037912,-70.0
5,ab,m,19,r,1,(-121.76378772032348, 121.76378772032349),24,5,2,no,m,6,m,0.9939806999973371,1,74,test1,4,0.9940831999992952,-70.0
5,ab,m,19,r,1,(-172.20000000000002, 2.1088417881317425e-14),25,-25,14,yes,x,5,x,0.5545389000035357,1,75,test1,4,0.5547211000011885,-70.0
5,ab,m,19,r,1,(-121.76378772032352, -121.76378772032348),26,7,3,yes,x,5,x,0.5948232000009739,1,76,test1,4,0.5949430000036955,-38.0
5,ab,m,19,r,1,(121.76378772032349, 121.76378772032349),22,5,2,no,m,6,m,0.9334010999955353,1,77,test1,4,0.9339584999979706,-38.0
5,ab,m,19,r,1,(172.20000000000002, 0.0),21,7,3,yes,x,5,x,0.7544323000038275,1,78,test1,4,0.755015300004743,-38.0
5,ab,m,19,r,1,(172.20000000000002, 0.0),21,-7,13,yes,x,5,x,0.9215967999989516,1,79,test1,4,0.9218737999981386,-52.0
5,ab,m,19,r,1,(1.0544208940658713e-14, 172.20000000000002),23,-7,13,yes,x,5,x,0.8769316999969305,1,80,test1,4,0.8770288999949116,-52.0
5,ab,m,19,r,1,(-172.20000000000002, 2.1088417881317425e-14),25,7,3,yes,x,5,x,0.592368700003135,1,81,test1,4,0.592495400000189,-38.0
5,ab,m,19,r,1,(121.76378772032346, -121.76378772032352),28,3,1,yes,x,5,m,1.1362418999997317,0,82,test1,4,1.1363412999999127,-42.0
5,ab,m,19,r,1,(1.0544208940658713e-14, 172.20000000000002),23,7,3,yes,x,5,x,0.6059666000001016,1,83,test1,4,0.6060968000019784,-38.0
5,ab,m,19,r,1,(172.20000000000002, 0.0),21,-5,12,yes,x,5,x,0.6554160000014235,1,84,test1,4,0.6559590000033495,-50.0
5,ab,m,19,r,1,(172.20000000000002, 0.0),21,5,2,yes,x,5,x,0.5692345000061323,1,85,test1,4,0.5694749999966007,-40.0
5,ab,m,19,r,1,(-172.20000000000002, 2.1088417881317425e-14),25,7,3,yes,x,5,x,0.7229157000037958,1,86,test1,4,0.7230195000011008,-38.0
5,ab,m,19,r,1,(1.0544208940658713e-14, 172.20000000000002),23,5,2,yes,x,5,x,0.8051347000000533,1,87,test1,4,0.8055366999979015,-40.0
5,ab,m,19,r,1,(121.76378772032349, 121.76378772032349),22,-7,13,yes,x,5,x,0.5634846999964793,1,88,test1,4,0.564097499998752,-52.0
5,ab,m,19,r,1,(121.76378772032349, 121.76378772032349),22,7,3,yes,x,5,x,0.6990688000005321,1,89,test1,4,0.6993556000015815,-38.0
5,ab,m,19,r,1,(-121.76378772032352, -121.76378772032348),26,-3,11,no,m,6,m,1.3229858999984572,1,90,test1,4,1.3233290999996825,-38.0
5,ab,m,19,r,1,(-3.163262682197613e-14, -172.20000000000002),27,-3,11,no,m,6,m,1.6064709999991464,1,91,test1,4,1.6068327000029967,-38.0
5,ab,m,19,r,1,(-121.76378772032352, -121.76378772032348),26,-5,12,no,m,6,m,1.412173000004259,1,92,test1,4,1.412481300001673,-38.0
5,ab,m,19,r,1,(121.76378772032346, -121.76378772032352),28,-25,14,yes,x,5,x,0.7685703999959514,1,93,test1,4,0.7689663999990444,-70.0
5,ab,m,19,r,1,(1.0544208940658713e-14, 172.20000000000002),23,-3,11,yes,x,5,m,1.3879138999982388,0,94,test1,4,1.3882440000015777,-48.0
5,ab,m,19,r,1,(121.76378772032346, -121.76378772032352),28,7,3,yes,x,5,x,1.0167805000019143,1,95,test1,4,1.016882900003111,-38.0
5,ab,m,19,r,1,(-3.163262682197613e-14, -172.20000000000002),27,25,4,yes,x,5,x,0.6980815999995684,1,96,test1,4,0.6982529999950202,-20.0
5,ab,m,19,r,1,(1.0544208940658713e-14, 172.20000000000002),23,-3,11,no,m,6,m,1.0443382000012207,1,1,test2,4,1.0448105000032228,-20.0
5,ab,m,19,r,1,(121.76378772032346, -121.76378772032352),28,5,2,yes,x,5,x,1.3645497000034084,1,2,test2,4,1.364647000002151,-40.0
5,ab,m,19,r,1,(121.76378772032346, -121.76378772032352),28,-5,12,no,m,6,m,0.6107205000007525,1,3,test2,4,0.6111730999982683,-40.0
5,ab,m,19,r,1,(121.76378772032346, -121.76378772032352),28,-3,11,yes,x,5,m,0.8638289000009536,0,4,test2,4,0.864227199999732,-48.0
5,ab,m,19,r,1,(121.76378772032349, 121.76378772032349),22,-3,11,yes,x,5,x,0.7420548000009148,1,5,test2,4,0.7425981999986107,-48.0
5,ab,m,19,r,1,(-3.163262682197613e-14, -172.20000000000002),27,-25,14,yes,x,5,x,0.47451900000305614,1,6,test2,4,0.4747012999941944,-70.0
5,ab,m,19,r,1,(-121.76378772032352, -121.76378772032348),26,3,1,yes,x,5,x,0.46991739999793936,1,7,test2,4,0.470042500004638,-42.0
5,ab,m,19,r,1,(-121.76378772032352, -121.76378772032348),26,5,2,no,m,6,x,0.5426167999976315,0,8,test2,4,0.5427832000059425,-42.0
5,ab,m,19,r,1,(-3.163262682197613e-14, -172.20000000000002),27,3,1,no,m,6,m,1.1059833999970579,1,9,test2,4,1.106363599996257,-42.0
5,ab,m,19,r,1,(121.76378772032346, -121.76378772032352),28,25,4,yes,x,5,x,0.4712580999985221,1,10,test2,4,0.47148079999897163,-20.0
5,ab,m,19,r,1,(-3.163262682197613e-14, -172.20000000000002),27,7,3,yes,x,5,x,0.48897809999471065,1,11,test2,4,0.48926480000227457,-38.0
5,ab,m,19,r,1,(121.76378772032349, 121.76378772032349),22,7,3,no,m,6,m,0.6250852000011946,1,12,test2,4,0.6252835000050254,-38.0
5,ab,m,19,r,1,(-172.20000000000002, 2.1088417881317425e-14),25,3,1,yes,x,5,x,0.613792399999511,1,13,test2,4,0.6139696999962325,-42.0
5,ab,m,19,r,1,(121.76378772032346, -121.76378772032352),28,3,1,no,m,6,m,0.5931682000009459,1,14,test2,4,0.5933307000013883,-42.0
5,ab,m,19,r,1,(121.76378772032346, -121.76378772032352),28,7,3,yes,x,5,x,0.5914784999986296,1,15,test2,4,0.5915769999992335,-38.0
5,ab,m,19,r,1,(1.0544208940658713e-14, 172.20000000000002),23,25,4,yes,x,5,x,0.5330906000017421,1,16,test2,4,0.5332562000039616,-20.0
5,ab,m,19,r,1,(121.76378772032349, 121.76378772032349),22,5,2,yes,x,5,x,0.34705140000005485,1,17,test2,4,0.34717359999922337,-40.0
5,ab,m,19,r,1,(-121.76378772032348, 121.76378772032349),24,-7,13,yes,x,5,x,0.4456320000026608,1,18,test2,4,0.44574550000106683,-52.0
5,ab,m,19,r,1,(172.20000000000002, 0.0),21,5,2,no,m,6,x,1.0015247000046656,0,19,test2,4,1.0017367999971611,-52.0
5,ab,m,19,r,1,(-121.76378772032348, 121.76378772032349),24,5,2,yes,x,5,m,0.952121200003603,0,20,test2,4,0.9523047000038787,-40.0
5,ab,m,19,r,1,(121.76378772032346, -121.76378772032352),28,3,1,yes,x,5,x,0.7559762000018964,1,21,test2,4,0.7561683999956585,-42.0
5,ab,m,19,r,1,(172.20000000000002, 0.0),21,-3,11,no,m,6,x,0.8998604000007617,0,22,test2,4,0.8999824000056833,-42.0
5,ab,m,19,r,1,(172.20000000000002, 0.0),21,5,2,yes,x,5,x,0.8262240000040038,1,23,test2,4,0.8269051000024774,-40.0
5,ab,m,19,r,1,(172.20000000000002, 0.0),21,-5,12,yes,x,5,x,0.9344479999999749,1,24,test2,4,0.9346827000044868,-50.0
5,ab,m,19,r,1,(121.76378772032346, -121.76378772032352),28,5,2,no,m,6,x,1.4526234000004479,0,25,test2,4,1.452826399996411,-50.0
5,ab,m,19,r,1,(1.0544208940658713e-14, 172.20000000000002),23,3,1,no,m,6,x,1.4058845000035944,0,26,test2,4,1.4061692000032053,-50.0
5,ab,m,19,r,1,(-3.163262682197613e-14, -172.20000000000002),27,-7,13,yes,x,5,x,0.6397614000015892,1,27,test2,4,0.6400520000024699,-52.0
5,ab,m,19,r,1,(-172.20000000000002, 2.1088417881317425e-14),25,-3,11,yes,x,5,x,0.8859309999970719,1,28,test2,4,0.8860602999993716,-48.0
5,ab,m,19,r,1,(-3.163262682197613e-14, -172.20000000000002),27,-5,12,yes,x,5,x,0.653256000005058,1,29,test2,4,0.6538984999933746,-50.0
5,ab,m,19,r,1,(172.20000000000002, 0.0),21,-25,14,yes,x,5,x,0.45947800000431016,1,30,test2,4,0.45973159999994095,-70.0
5,ab,m,19,r,1,(-121.76378772032352, -121.76378772032348),26,-3,11,yes,x,5,x,0.8299569000009797,1,31,test2,4,0.8301849999988917,-48.0
5,ab,m,19,r,1,(-121.76378772032348, 121.76378772032349),24,3,1,yes,x,5,x,1.3236472999997204,1,32,test2,4,1.324049599999853,-42.0
5,ab,m,19,r,1,(-121.76378772032348, 121.76378772032349),24,-7,13,no,m,6,m,0.8929710000011255,1,33,test2,4,0.8930743000018992,-42.0
5,ab,m,19,r,1,(121.76378772032349, 121.76378772032349),22,3,1,no,m,6,m,1.785266099999717,1,34,test2,4,1.785367899996345,-42.0
5,ab,m,19,r,1,(-172.20000000000002, 2.1088417881317425e-14),25,-5,12,yes,x,5,x,0.4451187000013306,1,35,test2,4,0.4455798999988474,-50.0
5,ab,m,19,r,1,(-172.20000000000002, 2.1088417881317425e-14),25,5,2,no,m,6,m,1.2987322000044514,1,36,test2,4,1.2989611000011791,-50.0
5,ab,m,19,r,1,(1.0544208940658713e-14, 172.20000000000002),23,7,3,yes,x,5,x,0.8297521000058623,1,37,test2,4,0.8298530000029132,-38.0
5,ab,m,19,r,1,(-3.163262682197613e-14, -172.20000000000002),27,5,2,no,m,6,x,1.649555899995903,0,38,test2,4,1.6496680999989621,-38.0
5,ab,m,19,r,1,(121.76378772032349, 121.76378772032349),22,-5,12,yes,x,5,x,0.7211073999933433,1,39,test2,4,0.7213373999984469,-50.0
5,ab,m,19,r,1,(-172.20000000000002, 2.1088417881317425e-14),25,25,4,no,m,6,m,1.257037199997285,1,40,test2,4,1.2577506999950856,-50.0
5,ab,m,19,r,1,(1.0544208940658713e-14, 172.20000000000002),23,-5,12,yes,x,5,x,0.628667899996799,1,41,test2,4,0.6291894999958458,-50.0
5,ab,m,19,r,1,(172.20000000000002, 0.0),21,-5,12,no,m,6,m,1.0574631000054069,1,42,test2,4,1.0575909000035608,-50.0
5,ab,m,19,r,1,(-3.163262682197613e-14, -172.20000000000002),27,7,3,no,m,6,m,0.9762541000018246,1,43,test2,4,0.9764875999971991,-50.0
5,ab,m,19,r,1,(172.20000000000002, 0.0),21,7,3,no,m,6,m,0.6531528999985312,1,44,test2,4,0.6537815999981831,-50.0
5,ab,m,19,r,1,(-121.76378772032352, -121.76378772032348),26,-25,14,no,m,6,m,0.6898184000019683,1,45,test2,4,0.69038780000119,-50.0
5,ab,m,19,r,1,(-121.76378772032348, 121.76378772032349),24,-5,12,no,m,6,m,0.5568500000008498,1,46,test2,4,0.5570644000035827,-50.0
5,ab,m,19,r,1,(-121.76378772032348, 121.76378772032349),24,-5,12,yes,x,5,x,0.5739033999998355,1,47,test2,4,0.5740292999980738,-50.0
5,ab,m,19,r,1,(121.76378772032346, -121.76378772032352),28,-3,11,yes,x,5,m,0.607658499997342,0,48,test2,4,0.6078859999979613,-48.0
5,ab,m,19,r,1,(-121.76378772032348, 121.76378772032349),24,-25,14,yes,x,5,x,0.4602119999981369,1,49,test2,4,0.4605530999979237,-70.0
5,ab,m,19,r,1,(121.76378772032349, 121.76378772032349),22,3,1,yes,x,5,m,1.1395283000019845,0,50,test2,4,1.139867999998387,-42.0
5,ab,m,19,r,1,(-121.76378772032348, 121.76378772032349),24,7,3,yes,x,5,x,0.47735110000212444,1,51,test2,4,0.4776687999983551,-38.0
5,ab,m,19,r,1,(-3.163262682197613e-14, -172.20000000000002),27,-7,13,yes,x,5,x,0.5583317999989958,1,52,test2,4,0.558447299998079,-52.0
5,ab,m,19,r,1,(-121.76378772032348, 121.76378772032349),24,-7,13,yes,x,5,x,0.41757540000253357,1,53,test2,4,0.4178061999991769,-52.0
5,ab,m,19,r,1,(-121.76378772032348, 121.76378772032349),24,7,3,yes,x,5,x,0.3977750000049127,1,54,test2,4,0.39787670000077924,-38.0
5,ab,m,19,r,1,(121.76378772032349, 121.76378772032349),22,5,2,yes,x,5,x,0.418274299998302,1,55,test2,4,0.4184211000028881,-40.0
5,ab,m,19,r,1,(121.76378772032346, -121.76378772032352),28,-7,13,yes,x,5,x,1.4947843000045395,1,56,test2,4,1.4949124999984633,-52.0
5,ab,m,19,r,1,(1.0544208940658713e-14, 172.20000000000002),23,25,4,yes,x,5,x,0.4505879999996978,1,57,test2,4,0.450762799999211,-20.0
5,ab,m,19,r,1,(-172.20000000000002, 2.1088417881317425e-14),25,-3,11,no,m,6,x,0.7714173999993363,0,58,test2,4,0.7715609000006225,-20.0
5,ab,m,19,r,1,(-121.76378772032348, 121.76378772032349),24,25,4,yes,x,5,x,0.5820875999997952,1,59,test2,4,0.5823641000024509,-20.0
5,ab,m,19,r,1,(172.20000000000002, 0.0),21,-3,11,yes,x,5,x,1.2111638999995193,1,60,test2,4,1.2113814000040293,-48.0
5,ab,m,19,r,1,(-121.76378772032352, -121.76378772032348),26,25,4,no,m,6,m,1.2333093999986886,1,61,test2,4,1.2334637000021758,-48.0
5,ab,m,19,r,1,(121.76378772032349, 121.76378772032349),22,-7,13,yes,x,5,x,0.6485963000013726,1,62,test2,4,0.6487917000049492,-52.0
5,ab,m,19,r,1,(-121.76378772032352, -121.76378772032348),26,-5,12,yes,x,5,x,0.5532820000007632,1,63,test2,4,0.5533878999995068,-50.0
5,ab,m,19,r,1,(-121.76378772032348, 121.76378772032349),24,-3,11,yes,x,5,m,1.534445199999027,0,64,test2,4,1.534883100001025,-48.0
5,ab,m,19,r,1,(121.76378772032346, -121.76378772032352),28,25,4,no,m,6,m,0.74039520000224,1,65,test2,4,0.7408490000016172,-48.0
5,ab,m,19,r,1,(121.76378772032346, -121.76378772032352),28,-25,14,yes,x,5,x,0.6137381000007736,1,66,test2,4,0.6138446999975713,-70.0
5,ab,m,19,r,1,(-172.20000000000002, 2.1088417881317425e-14),25,-7,13,no,m,6,m,0.6121341999969445,1,67,test2,4,0.6122325000033015,-70.0
5,ab,m,19,r,1,(1.0544208940658713e-14, 172.20000000000002),23,-5,12,yes,x,5,x,0.5020599000054062,1,68,test2,4,0.5022049000035622,-50.0
5,ab,m,19,r,1,(1.0544208940658713e-14, 172.20000000000002),23,-25,14,yes,x,5,x,0.6313959999970393,1,69,test2,4,0.6315582000024733,-70.0
