subj_id,subj_name,subj_gender ,subj_age,subj_handedness,subj_runNum,tar_l_x,tar_l_y,loc_code,tar_ori,tar_code,tar_pre ,cor_response,pre_code,subj_response,RT,correct,trial_num,type,bloc_num,dur, real_tar
5,ab,m,19,r,2,(-121.76378772032348, 121.76378772032349),24,7,3,no,m,6,m,0.8682187000013073,1,1,test1,1,0.8685073000015109,0.0
5,ab,m,19,r,2,(-121.76378772032348, 121.76378772032349),24,-3,11,yes,x,5,m,0.67540320000262,0,2,test1,1,0.6755305999977281,-48.0
5,ab,m,19,r,2,(172.20000000000002, 0.0),21,5,2,yes,x,5,x,0.530927599997085,1,3,test1,1,0.5311587000032887,-40.0
5,ab,m,19,r,2,(1.0544208940658713e-14, 172.20000000000002),23,-25,14,no,m,6,None,None,0,4,test1,1,1.9800900999980513,-40.0
5,ab,m,19,r,2,(-3.163262682197613e-14, -172.20000000000002),27,5,2,no,m,6,m,0.5382595000046422,1,5,test1,1,0.5383970000038971,-40.0
5,ab,m,19,r,2,(121.76378772032349, 121.76378772032349),22,25,4,no,m,6,m,0.5148826000004192,1,6,test1,1,0.5150385000015376,-40.0
5,ab,m,19,r,2,(-172.20000000000002, 2.1088417881317425e-14),25,-7,13,no,m,6,m,0.5843287000025157,1,7,test1,1,0.5845553000035579,-40.0
5,ab,m,19,r,2,(1.0544208940658713e-14, 172.20000000000002),23,-7,13,no,m,6,m,0.4147847999993246,1,8,test1,1,0.4150164000020595,-40.0
5,ab,m,19,r,2,(1.0544208940658713e-14, 172.20000000000002),23,25,4,no,m,6,m,0.5390282000007574,1,9,test1,1,0.5392547999945236,-40.0
5,ab,m,19,r,2,(-121.76378772032352, -121.76378772032348),26,7,3,yes,x,5,x,0.6333983000004082,1,10,test1,1,0.6335612999973819,-38.0
5,ab,m,19,r,2,(-121.76378772032352, -121.76378772032348),26,-5,12,yes,x,5,x,0.6622136000005412,1,11,test1,1,0.6625008999981219,-50.0
5,ab,m,19,r,2,(-121.76378772032352, -121.76378772032348),26,7,3,yes,x,5,x,0.5093273999955272,1,12,test1,1,0.5095666999986861,-38.0
5,ab,m,19,r,2,(-121.76378772032348, 121.76378772032349),24,-7,13,yes,x,5,x,0.5727246999958879,1,13,test1,1,0.5728901999973459,-52.0
5,ab,m,19,r,2,(121.76378772032346, -121.76378772032352),28,-7,13,yes,x,5,x,0.694144300003245,1,14,test1,1,0.6943266000016592,-52.0
5,ab,m,19,r,2,(-121.76378772032352, -121.76378772032348),26,3,1,yes,x,5,x,0.6082487000021501,1,15,test1,1,0.6083899000004749,-42.0
5,ab,m,19,r,2,(-121.76378772032348, 121.76378772032349),24,7,3,yes,x,5,x,0.6025703999985126,1,16,test1,1,0.6027995000040391,-38.0
5,ab,m,19,r,2,(172.20000000000002, 0.0),21,-25,14,yes,x,5,x,0.5275935999961803,1,17,test1,1,0.5278210999967996,-70.0
5,ab,m,19,r,2,(-172.20000000000002, 2.1088417881317425e-14),25,3,1,yes,x,5,x,0.6525819000016782,1,18,test1,1,0.6526955000008456,-42.0
5,ab,m,19,r,2,(-121.76378772032348, 121.76378772032349),24,-25,14,no,m,6,m,1.128984599999967,1,19,test1,1,1.129171900000074,-42.0
5,ab,m,19,r,2,(-121.76378772032352, -121.76378772032348),26,7,3,no,m,6,m,0.9354970999993384,1,20,test1,1,0.9356145999990986,-42.0
5,ab,m,19,r,2,(121.76378772032349, 121.76378772032349),22,5,2,yes,x,5,m,0.8868737000011606,0,21,test1,1,0.886991899998975,-40.0
5,ab,m,19,r,2,(-3.163262682197613e-14, -172.20000000000002),27,-5,12,yes,x,5,x,0.6665694999974221,1,22,test1,1,0.6668668999991496,-50.0
5,ab,m,19,r,2,(-121.76378772032352, -121.76378772032348),26,-7,13,yes,x,5,x,0.5496389999971143,1,23,test1,1,0.549731499995687,-52.0
5,ab,m,19,r,2,(-172.20000000000002, 2.1088417881317425e-14),25,-3,11,no,m,6,m,0.7613349000021117,1,24,test1,1,0.7620255000001634,-52.0
5,ab,m,19,r,2,(-3.163262682197613e-14, -172.20000000000002),27,-25,14,yes,x,5,x,0.5068192999970051,1,25,test1,1,0.5069985000009183,-70.0
5,ab,m,19,r,2,(-172.20000000000002, 2.1088417881317425e-14),25,-5,12,no,m,6,m,0.6317695000034291,1,26,test1,1,0.6321853999979794,-70.0
5,ab,m,19,r,2,(-172.20000000000002, 2.1088417881317425e-14),25,-5,12,yes,x,5,x,0.9752427999992506,1,27,test1,1,0.9755263999977615,-50.0
5,ab,m,19,r,2,(121.76378772032349, 121.76378772032349),22,-3,11,yes,x,5,m,0.5621831999960705,0,28,test1,1,0.5622980999978608,-48.0
5,ab,m,19,r,2,(-121.76378772032348, 121.76378772032349),24,-7,13,no,m,6,m,0.6362775999950827,1,29,test1,1,0.6366912000012235,-48.0
5,ab,m,19,r,2,(-121.76378772032352, -121.76378772032348),26,-7,13,yes,x,5,x,0.5692445000022417,1,30,test1,1,0.5694119000036153,-52.0
5,ab,m,19,r,2,(172.20000000000002, 0.0),21,-3,11,yes,x,5,x,0.7074533999984851,1,31,test1,1,0.7075522000013734,-48.0
5,ab,m,19,r,2,(-3.163262682197613e-14, -172.20000000000002),27,-7,13,yes,x,5,x,0.6010475999937626,1,32,test1,1,0.6014148000031128,-52.0
5,ab,m,19,r,2,(172.20000000000002, 0.0),21,25,4,yes,x,5,x,0.4960687000057078,1,33,test1,1,0.49655129999882774,-20.0
5,ab,m,19,r,2,(-172.20000000000002, 2.1088417881317425e-14),25,-7,13,yes,x,5,x,0.569364900002256,1,34,test1,1,0.5694767999957548,-52.0
5,ab,m,19,r,2,(121.76378772032349, 121.76378772032349),22,5,2,yes,x,5,x,0.8506083999964176,1,35,test1,1,0.8512491000001319,-40.0
5,ab,m,19,r,2,(121.76378772032349, 121.76378772032349),22,-25,14,no,m,6,m,0.7679645999960485,1,36,test1,1,0.7682953000039561,-40.0
5,ab,m,19,r,2,(121.76378772032346, -121.76378772032352),28,-3,11,no,m,6,m,0.8758498000024701,1,37,test1,1,0.8764749999972992,-40.0
5,ab,m,19,r,2,(-121.76378772032348, 121.76378772032349),24,5,2,yes,x,5,x,0.7076182000018889,1,38,test1,1,0.707817000002251,-40.0
5,ab,m,19,r,2,(-121.76378772032352, -121.76378772032348),26,3,1,yes,x,5,m,0.9081903000042075,0,39,test1,1,0.9083165999982157,-42.0
5,ab,m,19,r,2,(-121.76378772032352, -121.76378772032348),26,-25,14,no,m,6,m,0.5046946000002208,1,40,test1,1,0.5049188000048161,-42.0
5,ab,m,19,r,2,(-3.163262682197613e-14, -172.20000000000002),27,5,2,yes,x,5,x,0.6344943000003695,1,41,test1,1,0.6346212999997078,-40.0
5,ab,m,19,r,2,(-3.163262682197613e-14, -172.20000000000002),27,7,3,yes,x,5,x,0.5552096999963396,1,42,test1,1,0.555887000002258,-38.0
5,ab,m,19,r,2,(121.76378772032349, 121.76378772032349),22,7,3,no,m,6,m,0.7174849000002723,1,43,test1,1,0.7175882000010461,-38.0
5,ab,m,19,r,2,(121.76378772032346, -121.76378772032352),28,-3,11,yes,x,5,m,0.46412509999936447,0,44,test1,1,0.46422069999971427,-48.0
5,ab,m,19,r,2,(121.76378772032349, 121.76378772032349),22,-25,14,yes,x,5,x,0.5202200999992783,1,45,test1,1,0.520347400000901,-70.0
5,ab,m,19,r,2,(121.76378772032349, 121.76378772032349),22,3,1,yes,x,5,x,0.6141280000010738,1,46,test1,1,0.6144053000025451,-42.0
5,ab,m,19,r,2,(172.20000000000002, 0.0),21,-5,12,yes,x,5,x,0.5657269999937853,1,47,test1,1,0.5658401999971829,-50.0
5,ab,m,19,r,2,(-3.163262682197613e-14, -172.20000000000002),27,25,4,yes,x,5,x,0.4546600999965449,1,48,test1,1,0.4550191000016639,-20.0
5,ab,m,19,r,2,(1.0544208940658713e-14, 172.20000000000002),23,3,1,no,m,6,m,0.5838457999998354,1,49,test1,1,0.5841454000037629,-20.0
5,ab,m,19,r,2,(-3.163262682197613e-14, -172.20000000000002),27,7,3,yes,x,5,x,0.6358143000034033,1,50,test1,1,0.6359801999933552,-38.0
5,ab,m,19,r,2,(121.76378772032346, -121.76378772032352),28,5,2,no,m,6,m,0.7015452000050573,1,51,test1,1,0.7018975000028149,-38.0
5,ab,m,19,r,2,(-3.163262682197613e-14, -172.20000000000002),27,-5,12,yes,x,5,x,0.931898299997556,1,52,test1,1,0.9325133000020287,-50.0
5,ab,m,19,r,2,(121.76378772032349, 121.76378772032349),22,-7,13,no,m,6,m,0.7054728000002797,1,53,test1,1,0.7060445000024629,-50.0
5,ab,m,19,r,2,(-172.20000000000002, 2.1088417881317425e-14),25,7,3,yes,x,5,x,0.5113544999985606,1,54,test1,1,0.5116006999960518,-38.0
5,ab,m,19,r,2,(-121.76378772032352, -121.76378772032348),26,-5,12,yes,x,5,x,0.6526647999999113,1,55,test1,1,0.6528767000054359,-50.0
5,ab,m,19,r,2,(1.0544208940658713e-14, 172.20000000000002),23,7,3,no,m,6,m,0.8242915000009816,1,56,test1,1,0.8244244000015897,-50.0
5,ab,m,19,r,2,(-3.163262682197613e-14, -172.20000000000002),27,-3,11,yes,x,5,x,0.707841900002677,1,57,test1,1,0.7081792000026326,-48.0
5,ab,m,19,r,2,(-172.20000000000002, 2.1088417881317425e-14),25,5,2,no,m,6,m,0.8821873999986565,1,58,test1,1,0.8822843999951147,-48.0
5,ab,m,19,r,2,(-121.76378772032348, 121.76378772032349),24,5,2,yes,x,5,x,0.5485805999996956,1,59,test1,1,0.5488115999978618,-40.0
5,ab,m,19,r,2,(-172.20000000000002, 2.1088417881317425e-14),25,7,3,yes,x,5,x,0.6581489999953192,1,60,test1,1,0.6582743999970262,-38.0
5,ab,m,19,r,2,(121.76378772032346, -121.76378772032352),28,25,4,yes,x,5,x,0.5965638999987277,1,61,test1,1,0.5973309999972116,-20.0
5,ab,m,19,r,2,(1.0544208940658713e-14, 172.20000000000002),23,-7,13,yes,x,5,x,0.5374155000026803,1,62,test1,1,0.5375203000003239,-52.0
5,ab,m,19,r,2,(1.0544208940658713e-14, 172.20000000000002),23,25,4,yes,x,5,x,0.5596918999945046,1,63,test1,1,0.5600289000067278,-20.0
5,ab,m,19,r,2,(121.76378772032346, -121.76378772032352),28,-25,14,yes,x,5,x,0.4999387999996543,1,64,test1,1,0.5000415999966208,-70.0
5,ab,m,19,r,2,(-121.76378772032352, -121.76378772032348),26,-25,14,yes,x,5,x,0.46493740000005346,1,65,test1,1,0.46517450000101235,-70.0
5,ab,m,19,r,2,(121.76378772032346, -121.76378772032352),28,-5,12,yes,x,5,x,0.6659497000000556,1,66,test1,1,0.6661353999952553,-50.0
5,ab,m,19,r,2,(121.76378772032349, 121.76378772032349),22,-25,14,yes,x,5,x,0.4191707999998471,1,67,test1,1,0.41927129999385215,-70.0
5,ab,m,19,r,2,(121.76378772032349, 121.76378772032349),22,25,4,yes,x,5,x,0.47166130000550766,1,68,test1,1,0.4718959999954677,-20.0
5,ab,m,19,r,2,(1.0544208940658713e-14, 172.20000000000002),23,3,1,yes,x,5,x,0.5822173999986262,1,69,test1,1,0.5823213999974541,-42.0
5,ab,m,19,r,2,(-3.163262682197613e-14, -172.20000000000002),27,-25,14,yes,x,5,x,0.4880653000000166,1,70,test1,1,0.4883001999987755,-70.0
5,ab,m,19,r,2,(-3.163262682197613e-14, -172.20000000000002),27,25,4,no,m,6,m,0.7627785000004224,1,71,test1,1,0.7628811999966274,-70.0
5,ab,m,19,r,2,(172.20000000000002, 0.0),21,-7,13,yes,x,5,x,0.5144873999961419,1,72,test1,1,0.514618100001826,-52.0
5,ab,m,19,r,2,(-172.20000000000002, 2.1088417881317425e-14),25,-3,11,yes,x,5,m,0.7958188999982667,0,73,test1,1,0.7959214000002248,-48.0
5,ab,m,19,r,2,(-121.76378772032348, 121.76378772032349),24,-3,11,yes,x,5,x,0.6899100000009639,1,74,test1,1,0.6900651000032667,-48.0
5,ab,m,19,r,2,(-172.20000000000002, 2.1088417881317425e-14),25,-7,13,yes,x,5,x,0.5695638999968651,1,75,test1,1,0.5700534999996307,-52.0
5,ab,m,19,r,2,(1.0544208940658713e-14, 172.20000000000002),23,-5,12,no,m,6,m,0.859038700000383,1,76,test1,1,0.8591497000015806,-52.0
5,ab,m,19,r,2,(-121.76378772032348, 121.76378772032349),24,3,1,yes,x,5,x,0.6557309999989229,1,77,test1,1,0.6560223999986192,-42.0
5,ab,m,19,r,2,(-172.20000000000002, 2.1088417881317425e-14),25,-25,14,no,m,6,m,0.8284122999975807,1,78,test1,1,0.8285312000007252,-42.0
5,ab,m,19,r,2,(121.76378772032349, 121.76378772032349),22,-3,11,yes,x,5,x,0.896708000000217,1,79,test1,1,0.8968697000018437,-48.0
5,ab,m,19,r,2,(172.20000000000002, 0.0),21,25,4,yes,x,5,x,0.45579929999803426,1,80,test1,1,0.45620519999647513,-20.0
5,ab,m,19,r,2,(-3.163262682197613e-14, -172.20000000000002),27,-7,13,no,m,6,m,0.8078888000018196,1,81,test1,1,0.8082179999983055,-20.0
5,ab,m,19,r,2,(-121.76378772032352, -121.76378772032348),26,-5,12,no,m,6,m,0.6404201999976067,1,82,test1,1,0.6407091000000946,-20.0
5,ab,m,19,r,2,(-121.76378772032352, -121.76378772032348),26,5,2,no,m,6,m,0.7920981999996002,1,83,test1,1,0.7923834999965038,-20.0
5,ab,m,19,r,2,(-172.20000000000002, 2.1088417881317425e-14),25,5,2,yes,x,5,x,0.797977100002754,1,84,test1,1,0.7982013000000734,-40.0
5,ab,m,19,r,2,(-121.76378772032352, -121.76378772032348),26,-7,13,no,m,6,m,0.9999083000002429,1,85,test1,1,1.0000371999994968,-40.0
5,ab,m,19,r,2,(-3.163262682197613e-14, -172.20000000000002),27,3,1,no,m,6,m,0.9919112999996287,1,86,test1,1,0.9920388999962597,-40.0
5,ab,m,19,r,2,(121.76378772032346, -121.76378772032352),28,-7,13,no,m,6,m,0.9614901000022655,1,87,test1,1,0.9619199000007939,-40.0
5,ab,m,19,r,2,(-121.76378772032348, 121.76378772032349),24,-25,14,yes,x,5,x,0.6606031999981496,1,88,test1,1,0.6607322999989265,-70.0
5,ab,m,19,r,2,(121.76378772032346, -121.76378772032352),28,25,4,yes,x,5,x,0.9370789999957196,1,89,test1,1,0.9374424000052386,-20.0
5,ab,m,19,r,2,(-121.76378772032352, -121.76378772032348),26,-25,14,yes,x,5,x,0.6143821000005119,1,90,test1,1,0.6145162000029813,-70.0
5,ab,m,19,r,2,(172.20000000000002, 0.0),21,25,4,no,m,6,m,0.9155928000036511,1,91,test1,1,0.9158712999997078,-70.0
5,ab,m,19,r,2,(121.76378772032346, -121.76378772032352),28,3,1,no,m,6,m,0.7487536999979056,1,92,test1,1,0.7491383999949903,-70.0
5,ab,m,19,r,2,(-3.163262682197613e-14, -172.20000000000002),27,3,1,yes,x,5,m,1.3329950999977882,0,93,test1,1,1.3332365000023856,-42.0
5,ab,m,19,r,2,(-121.76378772032348, 121.76378772032349),24,7,3,yes,x,5,x,0.4686673999967752,1,94,test1,1,0.46881310000026133,-38.0
5,ab,m,19,r,2,(121.76378772032349, 121.76378772032349),22,-3,11,no,m,6,m,0.6206187999996473,1,95,test1,1,0.6207192000001669,-38.0
5,ab,m,19,r,2,(172.20000000000002, 0.0),21,-3,11,yes,x,5,x,0.7958719999951427,1,96,test1,1,0.7962614999996731,-48.0
5,ab,m,19,r,2,(-3.163262682197613e-14, -172.20000000000002),27,3,1,yes,x,5,m,0.688140199999907,0,1,test2,1,0.6882554999974673,-42.0
5,ab,m,19,r,2,(-121.76378772032348, 121.76378772032349),24,3,1,no,m,6,x,0.688909299999068,0,2,test2,1,0.6890703000026406,-42.0
5,ab,m,19,r,2,(121.76378772032349, 121.76378772032349),22,-7,13,yes,x,5,x,0.6157917000018642,1,3,test2,1,0.6161710999949719,-52.0
5,ab,m,19,r,2,(-121.76378772032348, 121.76378772032349),24,25,4,yes,x,5,x,0.5461142999993172,1,4,test2,1,0.5462459999980638,-20.0
5,ab,m,19,r,2,(121.76378772032349, 121.76378772032349),22,5,2,no,m,6,m,1.0142200000045705,1,5,test2,1,1.0146730999986175,-20.0
5,ab,m,19,r,2,(-121.76378772032352, -121.76378772032348),26,5,2,yes,x,5,x,0.9499494999981835,1,6,test2,1,0.9500533000027644,-40.0
5,ab,m,19,r,2,(121.76378772032346, -121.76378772032352),28,-5,12,no,m,6,m,0.8379915000041365,1,7,test2,1,0.8382074999972247,-40.0
5,ab,m,19,r,2,(1.0544208940658713e-14, 172.20000000000002),23,-7,13,yes,x,5,x,0.6241243999975268,1,8,test2,1,0.6244659000003594,-52.0
5,ab,m,19,r,2,(172.20000000000002, 0.0),21,7,3,yes,x,5,x,0.5838210000001709,1,9,test2,1,0.5839828000025591,-38.0
5,ab,m,19,r,2,(121.76378772032349, 121.76378772032349),22,3,1,yes,x,5,x,0.7088068000011845,1,10,test2,1,0.7089036999968812,-42.0
5,ab,m,19,r,2,(-121.76378772032352, -121.76378772032348),26,5,2,yes,x,5,x,1.246205800001917,1,11,test2,1,1.2463027999983751,-40.0
5,ab,m,19,r,2,(-121.76378772032348, 121.76378772032349),24,-5,12,no,m,6,m,0.8618745999992825,1,12,test2,1,0.8622472999995807,-40.0
5,ab,m,19,r,2,(-121.76378772032352, -121.76378772032348),26,25,4,no,m,6,m,0.6957046999959857,1,13,test2,1,0.6960041999991518,-40.0
5,ab,m,19,r,2,(121.76378772032349, 121.76378772032349),22,-7,13,yes,x,5,x,0.5694518999953289,1,14,test2,1,0.5700493000040296,-52.0
5,ab,m,19,r,2,(172.20000000000002, 0.0),21,3,1,yes,x,5,x,1.0780152000006638,1,15,test2,1,1.0783181000006152,-42.0
5,ab,m,19,r,2,(-121.76378772032348, 121.76378772032349),24,25,4,yes,x,5,x,0.4767747000005329,1,16,test2,1,0.47687520000181394,-20.0
5,ab,m,19,r,2,(121.76378772032349, 121.76378772032349),22,25,4,yes,x,5,x,0.49872570000297856,1,17,test2,1,0.49888539999665227,-20.0
5,ab,m,19,r,2,(121.76378772032349, 121.76378772032349),22,3,1,no,m,6,m,0.8315332999991369,1,18,test2,1,0.8318381999997655,-20.0
5,ab,m,19,r,2,(1.0544208940658713e-14, 172.20000000000002),23,5,2,yes,x,5,x,0.9007157000014558,1,19,test2,1,0.9011173000035342,-40.0
5,ab,m,19,r,2,(-121.76378772032348, 121.76378772032349),24,3,1,yes,x,5,x,1.0367837000012514,1,20,test2,1,1.0369191999998293,-42.0
5,ab,m,19,r,2,(172.20000000000002, 0.0),21,-3,11,no,m,6,m,0.8381947000016226,1,21,test2,1,0.838403699999617,-42.0
5,ab,m,19,r,2,(121.76378772032346, -121.76378772032352),28,-25,14,no,m,6,m,0.8381854999970528,1,22,test2,1,0.8383026000010432,-42.0
5,ab,m,19,r,2,(1.0544208940658713e-14, 172.20000000000002),23,-5,12,yes,x,5,x,0.5736803999971016,1,23,test2,1,0.5739632000040729,-50.0
5,ab,m,19,r,2,(-172.20000000000002, 2.1088417881317425e-14),25,-25,14,yes,x,5,x,0.6510711000009906,1,24,test2,1,0.6514701999985846,-70.0
5,ab,m,19,r,2,(121.76378772032349, 121.76378772032349),22,7,3,yes,x,5,x,0.8685247999965213,1,25,test2,1,0.8687566000007791,-38.0
5,ab,m,19,r,2,(-172.20000000000002, 2.1088417881317425e-14),25,25,4,no,m,6,m,0.8678910999951768,1,26,test2,1,0.8679927000048338,-38.0
5,ab,m,19,r,2,(-3.163262682197613e-14, -172.20000000000002),27,-7,13,yes,x,5,x,0.669411000002583,1,27,test2,1,0.6695260999986203,-52.0
5,ab,m,19,r,2,(-172.20000000000002, 2.1088417881317425e-14),25,5,2,yes,x,5,x,0.5609582999968552,1,28,test2,1,0.5611927999998443,-40.0
5,ab,m,19,r,2,(1.0544208940658713e-14, 172.20000000000002),23,3,1,yes,x,5,x,0.9738328999956138,1,29,test2,1,0.9741133999996237,-42.0
5,ab,m,19,r,2,(121.76378772032349, 121.76378772032349),22,7,3,yes,x,5,x,0.6599542000039946,1,30,test2,1,0.6600531999938539,-38.0
5,ab,m,19,r,2,(-121.76378772032348, 121.76378772032349),24,-7,13,yes,x,5,x,0.5630317999966792,1,31,test2,1,0.5633588999990025,-52.0
5,ab,m,19,r,2,(-121.76378772032348, 121.76378772032349),24,25,4,no,m,6,m,0.7795026000021608,1,32,test2,1,0.7797253000026103,-52.0
5,ab,m,19,r,2,(-121.76378772032352, -121.76378772032348),26,-3,11,yes,x,5,x,1.0877066999964882,1,33,test2,1,1.08782169999904,-48.0
5,ab,m,19,r,2,(-121.76378772032352, -121.76378772032348),26,25,4,yes,x,5,x,0.646261300003971,1,34,test2,1,0.6463755000004312,-20.0
5,ab,m,19,r,2,(-3.163262682197613e-14, -172.20000000000002),27,25,4,yes,x,5,x,0.6902310000004945,1,35,test2,1,0.6905018000034033,-20.0
5,ab,m,19,r,2,(172.20000000000002, 0.0),21,5,2,no,m,6,m,0.9964464000004227,1,36,test2,1,0.997120799998811,-20.0
5,ab,m,19,r,2,(172.20000000000002, 0.0),21,-25,14,no,m,6,m,0.7780569999958971,1,37,test2,1,0.7781916000021738,-20.0
5,ab,m,19,r,2,(172.20000000000002, 0.0),21,-5,12,yes,x,5,x,0.9099530000021332,1,38,test2,1,0.910395899998548,-50.0
5,ab,m,19,r,2,(1.0544208940658713e-14, 172.20000000000002),23,-3,11,no,m,6,m,0.7790048000024399,1,39,test2,1,0.7792413999995915,-50.0
5,ab,m,19,r,2,(-3.163262682197613e-14, -172.20000000000002),27,5,2,yes,x,5,x,0.7859067000026698,1,40,test2,1,0.7864219000039157,-40.0
5,ab,m,19,r,2,(1.0544208940658713e-14, 172.20000000000002),23,-25,14,yes,x,5,x,0.5929122999950778,1,41,test2,1,0.5932304000016302,-70.0
5,ab,m,19,r,2,(-3.163262682197613e-14, -172.20000000000002),27,-25,14,no,m,6,m,0.9011460000037914,1,42,test2,1,0.9012483999977121,-70.0
5,ab,m,19,r,2,(1.0544208940658713e-14, 172.20000000000002),23,-3,11,yes,x,5,x,0.9133830999999191,1,43,test2,1,0.9140756999986479,-48.0
5,ab,m,19,r,2,(1.0544208940658713e-14, 172.20000000000002),23,5,2,no,m,6,m,0.8587746000048355,1,44,test2,1,0.8589059999940218,-48.0
5,ab,m,19,r,2,(121.76378772032346, -121.76378772032352),28,3,1,yes,x,5,m,0.842061700001068,0,45,test2,1,0.8425541999968118,-42.0
5,ab,m,19,r,2,(-3.163262682197613e-14, -172.20000000000002),27,-3,11,yes,x,5,x,1.0625295999998343,1,46,test2,1,1.0626515000039944,-48.0
5,ab,m,19,r,2,(121.76378772032346, -121.76378772032352),28,-7,13,yes,x,5,x,0.8836335000014515,1,47,test2,1,0.8837660000062897,-52.0
5,ab,m,19,r,2,(172.20000000000002, 0.0),21,7,3,yes,x,5,x,0.877418599993689,1,48,test2,1,0.8780623999991803,-38.0
5,ab,m,19,r,2,(-172.20000000000002, 2.1088417881317425e-14),25,3,1,no,m,6,m,1.3906754999989062,1,49,test2,1,1.390884399996139,-38.0
5,ab,m,19,r,2,(172.20000000000002, 0.0),21,-25,14,yes,x,5,x,0.8612061999956495,1,50,test2,1,0.8614483999990625,-70.0
5,ab,m,19,r,2,(172.20000000000002, 0.0),21,3,1,yes,x,5,x,1.0219103999988874,1,51,test2,1,1.0221250000031432,-42.0
5,ab,m,19,r,2,(1.0544208940658713e-14, 172.20000000000002),23,7,3,yes,x,5,x,0.7649585999970441,1,52,test2,1,0.7653127000012319,-38.0
5,ab,m,19,r,2,(121.76378772032349, 121.76378772032349),22,-5,12,yes,x,5,x,0.900875499995891,1,53,test2,1,0.9010261000003084,-50.0
5,ab,m,19,r,2,(-121.76378772032352, -121.76378772032348),26,-3,11,yes,x,5,x,1.2413941000049817,1,54,test2,1,1.241543099997216,-48.0
5,ab,m,19,r,2,(-3.163262682197613e-14, -172.20000000000002),27,-3,11,no,m,6,m,1.2984123000060208,1,55,test2,1,1.2989642999964417,-48.0
5,ab,m,19,r,2,(-172.20000000000002, 2.1088417881317425e-14),25,25,4,yes,x,5,x,0.615901400000439,1,56,test2,1,0.6159993999972357,-20.0
5,ab,m,19,r,2,(-3.163262682197613e-14, -172.20000000000002),27,-5,12,no,m,6,m,1.2740167000010842,1,57,test2,1,1.2745349000033457,-20.0
5,ab,m,19,r,2,(121.76378772032346, -121.76378772032352),28,7,3,yes,x,5,x,0.8298351999983424,1,58,test2,1,0.8301019999998971,-38.0
5,ab,m,19,r,2,(172.20000000000002, 0.0),21,-7,13,yes,x,5,x,0.5522362999981851,1,59,test2,1,0.5524738000021898,-52.0
5,ab,m,19,r,2,(121.76378772032346, -121.76378772032352),28,5,2,yes,x,5,x,1.1833203999995021,1,60,test2,1,1.1836114000034286,-40.0
5,ab,m,19,r,2,(-121.76378772032352, -121.76378772032348),26,25,4,yes,x,5,x,0.6812858000048436,1,61,test2,1,0.6814945999940392,-20.0
5,ab,m,19,r,2,(172.20000000000002, 0.0),21,7,3,no,m,6,m,0.7611507999972673,1,62,test2,1,0.7614689000038197,-20.0
5,ab,m,19,r,2,(172.20000000000002, 0.0),21,5,2,yes,x,5,x,0.5913558999964152,1,63,test2,1,0.5916454999969574,-40.0
5,ab,m,19,r,2,(121.76378772032346, -121.76378772032352),28,-5,12,yes,x,5,x,0.7100423000010778,1,64,test2,1,0.7104209000026458,-50.0
5,ab,m,19,r,2,(-121.76378772032348, 121.76378772032349),24,-3,11,no,m,6,m,0.704147099997499,1,65,test2,1,0.7044685000000754,-50.0
5,ab,m,19,r,2,(-121.76378772032348, 121.76378772032349),24,-5,12,yes,x,5,x,0.7068811999997706,1,66,test2,1,0.7071326000004774,-50.0
5,ab,m,19,r,2,(-3.163262682197613e-14, -172.20000000000002),27,7,3,no,m,6,m,0.6819243999998434,1,67,test2,1,0.6820477999935974,-50.0
5,ab,m,19,r,2,(1.0544208940658713e-14, 172.20000000000002),23,-3,11,yes,x,5,x,0.9681762000036542,1,68,test2,1,0.9684173999994528,-48.0
5,ab,m,19,r,2,(121.76378772032349, 121.76378772032349),22,-5,12,yes,x,5,x,0.6919718000062858,1,69,test2,1,0.6922302999955718,-50.0
5,ab,m,19,r,2,(121.76378772032346, -121.76378772032352),28,25,4,no,m,6,m,0.7658653999969829,1,70,test2,1,0.766133400000399,-50.0
5,ab,m,19,r,2,(-172.20000000000002, 2.1088417881317425e-14),25,-25,14,yes,x,5,x,0.4493903999973554,1,71,test2,1,0.449786099998164,-70.0
5,ab,m,19,r,2,(121.76378772032346, -121.76378772032352),28,-25,14,yes,x,5,x,0.5365419000008842,1,72,test2,1,0.5367518999992171,-70.0
5,ab,m,19,r,2,(121.76378772032346, -121.76378772032352),28,7,3,yes,x,5,x,0.5179339000023901,1,73,test2,1,0.5180485999953817,-38.0
5,ab,m,19,r,2,(172.20000000000002, 0.0),21,3,1,no,m,6,m,0.6707213999980013,1,74,test2,1,0.6709461999998894,-38.0
5,ab,m,19,r,2,(-172.20000000000002, 2.1088417881317425e-14),25,25,4,yes,x,5,x,0.5466439999945578,1,75,test2,1,0.546898799999326,-20.0
5,ab,m,19,r,2,(-172.20000000000002, 2.1088417881317425e-14),25,-3,11,yes,x,5,m,0.9692009999998845,0,76,test2,1,0.9693017000026884,-48.0
5,ab,m,19,r,2,(121.76378772032346, -121.76378772032352),28,-3,11,yes,x,5,x,0.8242149999932735,1,77,test2,1,0.8243119000035222,-48.0
5,ab,m,19,r,2,(-121.76378772032352, -121.76378772032348),26,3,1,no,m,6,m,0.8440730000002077,1,78,test2,1,0.8442835999958334,-48.0
5,ab,m,19,r,2,(1.0544208940658713e-14, 172.20000000000002),23,5,2,yes,x,5,x,1.1342853000023752,1,79,test2,1,1.1348503999979584,-40.0
5,ab,m,19,r,2,(-172.20000000000002, 2.1088417881317425e-14),25,-5,12,yes,x,5,x,0.6291628000035416,1,80,test2,1,0.629295099999581,-50.0
5,ab,m,19,r,2,(-172.20000000000002, 2.1088417881317425e-14),25,3,1,yes,x,5,x,0.6359402000016416,1,81,test2,1,0.63621730000159,-42.0
5,ab,m,19,r,2,(-172.20000000000002, 2.1088417881317425e-14),25,7,3,no,m,6,m,0.7135512000022572,1,82,test2,1,0.7136866000000737,-42.0
5,ab,m,19,r,2,(1.0544208940658713e-14, 172.20000000000002),23,7,3,yes,x,5,x,0.5442051999998512,1,83,test2,1,0.5444332999977632,-38.0
5,ab,m,19,r,2,(1.0544208940658713e-14, 172.20000000000002),23,25,4,yes,x,5,x,0.5586047000033432,1,84,test2,1,0.5587058000019169,-20.0
5,ab,m,19,r,2,(1.0544208940658713e-14, 172.20000000000002),23,-25,14,yes,x,5,x,0.5506958999976632,1,85,test2,1,0.5508015000013984,-70.0
5,ab,m,19,r,2,(1.0544208940658713e-14, 172.20000000000002),23,-5,12,yes,x,5,x,0.5115258000005269,1,86,test2,1,0.5120519000047352,-50.0
5,ab,m,19,r,2,(-121.76378772032352, -121.76378772032348),26,-3,11,no,m,6,m,0.7789035000023432,1,87,test2,1,0.7790233999985503,-50.0
5,ab,m,19,r,2,(121.76378772032346, -121.76378772032352),28,5,2,yes,x,5,x,0.8053579000043101,1,88,test2,1,0.8055282999994233,-40.0
5,ab,m,19,r,2,(121.76378772032346, -121.76378772032352),28,3,1,yes,x,5,m,0.6713491999980761,0,89,test2,1,0.6718302000008407,-42.0
5,ab,m,19,r,2,(172.20000000000002, 0.0),21,-5,12,no,m,6,m,0.7358269000033033,1,90,test2,1,0.7360440999982529,-42.0
5,ab,m,19,r,2,(172.20000000000002, 0.0),21,-7,13,no,m,6,m,0.7013950999971712,1,91,test2,1,0.7014980999956606,-42.0
5,ab,m,19,r,2,(121.76378772032346, -121.76378772032352),28,7,3,no,m,6,m,0.6460779000044568,1,92,test2,1,0.6462908000030438,-42.0
5,ab,m,19,r,2,(-121.76378772032348, 121.76378772032349),24,5,2,no,m,6,m,0.6194767999986652,1,93,test2,1,0.6196370999969076,-42.0
5,ab,m,19,r,2,(-121.76378772032348, 121.76378772032349),24,-25,14,yes,x,5,x,0.6189184000031673,1,94,test2,1,0.6190847999969264,-70.0
5,ab,m,19,r,2,(121.76378772032349, 121.76378772032349),22,-5,12,no,m,6,m,0.6797122999996645,1,95,test2,1,0.6799213999984204,-70.0
5,ab,m,19,r,2,(-121.76378772032348, 121.76378772032349),24,-5,12,yes,x,5,x,0.5897145999988425,1,96,test2,1,0.5899948999940534,-50.0
5,ab,m,19,r,2,(-121.76378772032348, 121.76378772032349),24,7,3,no,m,6,m,0.6478161999984877,1,1,test1,2,0.6480043000046862,-50.0
5,ab,m,19,r,2,(-121.76378772032348, 121.76378772032349),24,-3,11,yes,x,5,m,0.6401265000022249,0,2,test1,2,0.6402382000014768,-48.0
5,ab,m,19,r,2,(172.20000000000002, 0.0),21,5,2,yes,x,5,x,0.6609173000033479,1,3,test1,2,0.6610273999976926,-40.0
5,ab,m,19,r,2,(1.0544208940658713e-14, 172.20000000000002),23,-25,14,no,m,6,m,0.9818057000011322,1,4,test1,2,0.9819852000000537,-40.0
5,ab,m,19,r,2,(-3.163262682197613e-14, -172.20000000000002),27,5,2,no,m,6,m,0.7937098000038532,1,5,test1,2,0.7939202999987174,-40.0
5,ab,m,19,r,2,(121.76378772032349, 121.76378772032349),22,25,4,no,m,6,m,0.703937300000689,1,6,test1,2,0.7040613999997731,-40.0
5,ab,m,19,r,2,(-172.20000000000002, 2.1088417881317425e-14),25,-7,13,no,m,6,m,1.2150012999991304,1,7,test1,2,1.2151573000010103,-40.0
5,ab,m,19,r,2,(1.0544208940658713e-14, 172.20000000000002),23,-7,13,no,m,6,m,0.7497564000004786,1,8,test1,2,0.7501596000001882,-40.0
5,ab,m,19,r,2,(1.0544208940658713e-14, 172.20000000000002),23,25,4,no,m,6,m,1.2632884000049671,1,9,test1,2,1.263417299996945,-40.0
5,ab,m,19,r,2,(-121.76378772032352, -121.76378772032348),26,7,3,yes,x,5,x,0.7984582999997656,1,10,test1,2,0.7985840999972424,-38.0
5,ab,m,19,r,2,(-121.76378772032352, -121.76378772032348),26,-5,12,yes,x,5,x,0.7443643000005977,1,11,test1,2,0.7444780000005267,-50.0
5,ab,m,19,r,2,(-121.76378772032352, -121.76378772032348),26,7,3,yes,x,5,x,0.5895806000044104,1,12,test1,2,0.5896849999990081,-38.0
5,ab,m,19,r,2,(-121.76378772032348, 121.76378772032349),24,-7,13,yes,x,5,x,0.5548998000012944,1,13,test1,2,0.5553266999995685,-52.0
5,ab,m,19,r,2,(121.76378772032346, -121.76378772032352),28,-7,13,yes,x,5,x,0.6626739999992424,1,14,test1,2,0.6630774000004749,-52.0
5,ab,m,19,r,2,(-121.76378772032352, -121.76378772032348),26,3,1,yes,x,5,x,1.0055674999966868,1,15,test1,2,1.0057278000022052,-42.0
5,ab,m,19,r,2,(-121.76378772032348, 121.76378772032349),24,7,3,yes,x,5,x,0.602161700000579,1,16,test1,2,0.6023812999992515,-38.0
5,ab,m,19,r,2,(172.20000000000002, 0.0),21,-25,14,yes,x,5,m,0.8359545000057551,0,17,test1,2,0.8361046999998507,-70.0
5,ab,m,19,r,2,(-172.20000000000002, 2.1088417881317425e-14),25,3,1,yes,x,5,x,0.9547396999987541,1,18,test1,2,0.9549207000018214,-42.0
5,ab,m,19,r,2,(-121.76378772032348, 121.76378772032349),24,-25,14,no,m,6,m,1.1864979000019957,1,19,test1,2,1.1869844000029843,-42.0
5,ab,m,19,r,2,(-121.76378772032352, -121.76378772032348),26,7,3,no,m,6,m,1.5231468999991193,1,20,test1,2,1.5233848999996553,-42.0
5,ab,m,19,r,2,(121.76378772032349, 121.76378772032349),22,5,2,yes,x,5,x,0.7259516000049189,1,21,test1,2,0.726282200004789,-40.0
5,ab,m,19,r,2,(-3.163262682197613e-14, -172.20000000000002),27,-5,12,yes,x,5,x,1.214833300000464,1,22,test1,2,1.2150524999960908,-50.0
5,ab,m,19,r,2,(-121.76378772032352, -121.76378772032348),26,-7,13,yes,x,5,x,0.7060394000000088,1,23,test1,2,0.7062665999983437,-52.0
5,ab,m,19,r,2,(-172.20000000000002, 2.1088417881317425e-14),25,-3,11,no,m,6,m,1.4417271999991499,1,24,test1,2,1.441862100000435,-52.0
5,ab,m,19,r,2,(-3.163262682197613e-14, -172.20000000000002),27,-25,14,yes,x,5,x,0.5139555999994627,1,25,test1,2,0.5142417999959434,-70.0
5,ab,m,19,r,2,(-172.20000000000002, 2.1088417881317425e-14),25,-5,12,no,m,6,m,0.640186899996479,1,26,test1,2,0.6405413999964367,-70.0
5,ab,m,19,r,2,(-172.20000000000002, 2.1088417881317425e-14),25,-5,12,yes,x,5,x,0.5861527000015485,1,27,test1,2,0.5863547999979346,-50.0
5,ab,m,19,r,2,(121.76378772032349, 121.76378772032349),22,-3,11,yes,x,5,x,0.8099576999957208,1,28,test1,2,0.8101932999998098,-48.0
5,ab,m,19,r,2,(-121.76378772032348, 121.76378772032349),24,-7,13,no,m,6,m,0.6770476999954553,1,29,test1,2,0.6772748000003048,-48.0
5,ab,m,19,r,2,(-121.76378772032352, -121.76378772032348),26,-7,13,yes,x,5,x,0.5424898999990546,1,30,test1,2,0.5426152000000002,-52.0
5,ab,m,19,r,2,(172.20000000000002, 0.0),21,-3,11,yes,x,5,x,0.8031598000015947,1,31,test1,2,0.8033820999989985,-48.0
5,ab,m,19,r,2,(-3.163262682197613e-14, -172.20000000000002),27,-7,13,yes,x,5,x,0.6705074000055902,1,32,test1,2,0.6706402999989223,-52.0
5,ab,m,19,r,2,(172.20000000000002, 0.0),21,25,4,yes,x,5,x,0.5122900999995181,1,33,test1,2,0.5123917000018992,-20.0
5,ab,m,19,r,2,(-172.20000000000002, 2.1088417881317425e-14),25,-7,13,yes,x,5,x,0.4768515000032494,1,34,test1,2,0.47707829999853857,-52.0
5,ab,m,19,r,2,(121.76378772032349, 121.76378772032349),22,5,2,yes,x,5,x,0.595901299995603,1,35,test1,2,0.5959988999966299,-40.0
5,ab,m,19,r,2,(121.76378772032349, 121.76378772032349),22,-25,14,no,m,6,m,0.9096709000004921,1,36,test1,2,0.9099597000022186,-40.0
5,ab,m,19,r,2,(121.76378772032346, -121.76378772032352),28,-3,11,no,m,6,m,0.9051390000022366,1,37,test1,2,0.9055319999970379,-40.0
5,ab,m,19,r,2,(-121.76378772032348, 121.76378772032349),24,5,2,yes,x,5,x,0.55797220000386,1,38,test1,2,0.5581332000001566,-40.0
5,ab,m,19,r,2,(-121.76378772032352, -121.76378772032348),26,3,1,yes,x,5,x,1.3798463999992236,1,39,test1,2,1.380452500001411,-42.0
5,ab,m,19,r,2,(-121.76378772032352, -121.76378772032348),26,-25,14,no,m,6,m,0.7748228999989806,1,40,test1,2,0.7753502999985358,-42.0
5,ab,m,19,r,2,(-3.163262682197613e-14, -172.20000000000002),27,5,2,yes,x,5,x,0.6003902000011294,1,41,test1,2,0.6009954999972251,-40.0
5,ab,m,19,r,2,(-3.163262682197613e-14, -172.20000000000002),27,7,3,yes,x,5,x,0.7998055999996723,1,42,test1,2,0.7999836999952095,-38.0
5,ab,m,19,r,2,(121.76378772032349, 121.76378772032349),22,7,3,no,m,6,m,0.7472896999970544,1,43,test1,2,0.747406399997999,-38.0
5,ab,m,19,r,2,(121.76378772032346, -121.76378772032352),28,-3,11,yes,x,5,x,0.719307999999728,1,44,test1,2,0.7199792000028538,-48.0
5,ab,m,19,r,2,(121.76378772032349, 121.76378772032349),22,-25,14,yes,x,5,x,0.49914669999998296,1,45,test1,2,0.49924730000202544,-70.0
5,ab,m,19,r,2,(121.76378772032349, 121.76378772032349),22,3,1,yes,x,5,x,0.8432014999998501,1,46,test1,2,0.8433033999972395,-42.0
5,ab,m,19,r,2,(172.20000000000002, 0.0),21,-5,12,yes,x,5,x,0.557050799994613,1,47,test1,2,0.5572517000036896,-50.0
5,ab,m,19,r,2,(-3.163262682197613e-14, -172.20000000000002),27,25,4,yes,x,5,x,0.5053828000018257,1,48,test1,2,0.5058974000057788,-20.0
5,ab,m,19,r,2,(1.0544208940658713e-14, 172.20000000000002),23,3,1,no,m,6,m,0.8703657000005478,1,49,test1,2,0.8706035999930464,-20.0
5,ab,m,19,r,2,(-3.163262682197613e-14, -172.20000000000002),27,7,3,yes,x,5,x,0.5411495000007562,1,50,test1,2,0.5413790000020526,-38.0
5,ab,m,19,r,2,(121.76378772032346, -121.76378772032352),28,5,2,no,m,6,m,1.113084999997227,1,51,test1,2,1.1133356999998796,-38.0
5,ab,m,19,r,2,(-3.163262682197613e-14, -172.20000000000002),27,-5,12,yes,x,5,x,0.6469434999962687,1,52,test1,2,0.6473285999963991,-50.0
5,ab,m,19,r,2,(121.76378772032349, 121.76378772032349),22,-7,13,no,m,6,m,0.8822336999946856,1,53,test1,2,0.8825950999962515,-50.0
5,ab,m,19,r,2,(-172.20000000000002, 2.1088417881317425e-14),25,7,3,yes,x,5,x,0.6850612999987788,1,54,test1,2,0.685897199997271,-38.0
5,ab,m,19,r,2,(-121.76378772032352, -121.76378772032348),26,-5,12,yes,x,5,x,0.8411472999941907,1,55,test1,2,0.8414335999987088,-50.0
5,ab,m,19,r,2,(1.0544208940658713e-14, 172.20000000000002),23,7,3,no,m,6,m,0.7759409999998752,1,56,test1,2,0.7762423000021954,-50.0
5,ab,m,19,r,2,(-3.163262682197613e-14, -172.20000000000002),27,-3,11,yes,x,5,x,0.5583929999993416,1,57,test1,2,0.558552000002237,-48.0
5,ab,m,19,r,2,(-172.20000000000002, 2.1088417881317425e-14),25,5,2,no,m,6,m,0.8520079000008991,1,58,test1,2,0.8521094000025187,-48.0
5,ab,m,19,r,2,(-121.76378772032348, 121.76378772032349),24,5,2,yes,x,5,x,0.6076419999953941,1,59,test1,2,0.6077850999936345,-40.0
5,ab,m,19,r,2,(-172.20000000000002, 2.1088417881317425e-14),25,7,3,yes,x,5,x,0.6503351999999722,1,60,test1,2,0.6504350999966846,-38.0
5,ab,m,19,r,2,(121.76378772032346, -121.76378772032352),28,25,4,yes,x,5,x,0.5388954000009107,1,61,test1,2,0.53912400000263,-20.0
5,ab,m,19,r,2,(1.0544208940658713e-14, 172.20000000000002),23,-7,13,yes,x,5,x,0.48905889999878127,1,62,test1,2,0.48922209999727784,-52.0
5,ab,m,19,r,2,(1.0544208940658713e-14, 172.20000000000002),23,25,4,yes,x,5,x,0.5052371000056155,1,63,test1,2,0.5053967999992892,-20.0
5,ab,m,19,r,2,(121.76378772032346, -121.76378772032352),28,-25,14,yes,x,5,x,0.5077810000002501,1,64,test1,2,0.5080803999953787,-70.0
5,ab,m,19,r,2,(-121.76378772032352, -121.76378772032348),26,-25,14,yes,x,5,x,0.47549639999488136,1,65,test1,2,0.4756358000013279,-70.0
5,ab,m,19,r,2,(121.76378772032346, -121.76378772032352),28,-5,12,yes,x,5,x,0.9628238000004785,1,66,test1,2,0.9630701999994926,-50.0
5,ab,m,19,r,2,(121.76378772032349, 121.76378772032349),22,-25,14,yes,x,5,x,0.6543986999968183,1,67,test1,2,0.6545871000053012,-70.0
5,ab,m,19,r,2,(121.76378772032349, 121.76378772032349),22,25,4,yes,x,5,x,0.46335520000138786,1,68,test1,2,0.4639201000027242,-20.0
5,ab,m,19,r,2,(1.0544208940658713e-14, 172.20000000000002),23,3,1,yes,x,5,x,0.853306100005284,1,69,test1,2,0.853460600003018,-42.0
5,ab,m,19,r,2,(-3.163262682197613e-14, -172.20000000000002),27,-25,14,yes,x,5,x,0.4369866000051843,1,70,test1,2,0.43710619999910705,-70.0
5,ab,m,19,r,2,(-3.163262682197613e-14, -172.20000000000002),27,25,4,no,m,6,m,0.8037871999986237,1,71,test1,2,0.8040646999943419,-70.0
5,ab,m,19,r,2,(172.20000000000002, 0.0),21,-7,13,yes,x,5,x,0.6059816999986651,1,72,test1,2,0.6062676000001375,-52.0
5,ab,m,19,r,2,(-172.20000000000002, 2.1088417881317425e-14),25,-3,11,yes,x,5,x,0.7413598999992246,1,73,test1,2,0.7416558000040823,-48.0
5,ab,m,19,r,2,(-121.76378772032348, 121.76378772032349),24,-3,11,yes,x,5,x,0.5841788000034285,1,74,test1,2,0.5842841999983648,-48.0
5,ab,m,19,r,2,(-172.20000000000002, 2.1088417881317425e-14),25,-7,13,yes,x,5,x,0.440192100002605,1,75,test1,2,0.4404145000007702,-52.0
5,ab,m,19,r,2,(1.0544208940658713e-14, 172.20000000000002),23,-5,12,no,m,6,m,0.6917499999981374,1,76,test1,2,0.6923139999998966,-52.0
5,ab,m,19,r,2,(-121.76378772032348, 121.76378772032349),24,3,1,yes,x,5,x,0.5894901000065147,1,77,test1,2,0.5896489000006113,-42.0
5,ab,m,19,r,2,(-172.20000000000002, 2.1088417881317425e-14),25,-25,14,no,m,6,m,0.6376422999965143,1,78,test1,2,0.6379209000006085,-42.0
5,ab,m,19,r,2,(121.76378772032349, 121.76378772032349),22,-3,11,yes,x,5,x,0.8910191999966628,1,79,test1,2,0.8912829999972018,-48.0
5,ab,m,19,r,2,(172.20000000000002, 0.0),21,25,4,yes,x,5,x,0.4699337000056403,1,80,test1,2,0.47024409999721684,-20.0
5,ab,m,19,r,2,(-3.163262682197613e-14, -172.20000000000002),27,-7,13,no,m,6,m,0.8077112000028137,1,81,test1,2,0.8079826000030152,-20.0
5,ab,m,19,r,2,(-121.76378772032352, -121.76378772032348),26,-5,12,no,m,6,m,0.6984668000004604,1,82,test1,2,0.6987021000022651,-20.0
5,ab,m,19,r,2,(-121.76378772032352, -121.76378772032348),26,5,2,no,m,6,m,0.6263403000048129,1,83,test1,2,0.6267135000016424,-20.0
5,ab,m,19,r,2,(-172.20000000000002, 2.1088417881317425e-14),25,5,2,yes,x,5,x,0.5516561999975238,1,84,test1,2,0.5520716000028187,-40.0
5,ab,m,19,r,2,(-121.76378772032352, -121.76378772032348),26,-7,13,no,m,6,m,0.8929637999972329,1,85,test1,2,0.8930758999995305,-40.0
5,ab,m,19,r,2,(-3.163262682197613e-14, -172.20000000000002),27,3,1,no,m,6,m,0.6032373999987612,1,86,test1,2,0.6033372999954736,-40.0
5,ab,m,19,r,2,(121.76378772032346, -121.76378772032352),28,-7,13,no,m,6,m,0.5791679000030854,1,87,test1,2,0.5797380999938468,-40.0
5,ab,m,19,r,2,(-121.76378772032348, 121.76378772032349),24,-25,14,yes,x,5,x,0.48786419999669306,1,88,test1,2,0.48816240000451216,-70.0
5,ab,m,19,r,2,(121.76378772032346, -121.76378772032352),28,25,4,yes,x,5,x,0.5651723999981186,1,89,test1,2,0.5652858000030392,-20.0
5,ab,m,19,r,2,(-121.76378772032352, -121.76378772032348),26,-25,14,yes,x,5,x,0.5469282999983989,1,90,test1,2,0.5470880000066245,-70.0
5,ab,m,19,r,2,(172.20000000000002, 0.0),21,25,4,no,m,6,m,0.6776611000022967,1,91,test1,2,0.6780373000001418,-70.0
5,ab,m,19,r,2,(121.76378772032346, -121.76378772032352),28,3,1,no,m,6,m,0.5833425000018906,1,92,test1,2,0.583979700000782,-70.0
5,ab,m,19,r,2,(-3.163262682197613e-14, -172.20000000000002),27,3,1,yes,x,5,x,0.9759907999978168,1,93,test1,2,0.9762172999980976,-42.0
5,ab,m,19,r,2,(-121.76378772032348, 121.76378772032349),24,7,3,yes,x,5,x,0.5624231999972835,1,94,test1,2,0.5627154999965569,-38.0
5,ab,m,19,r,2,(121.76378772032349, 121.76378772032349),22,-3,11,no,m,6,m,0.8662343999967561,1,95,test1,2,0.8665215000000899,-38.0
5,ab,m,19,r,2,(172.20000000000002, 0.0),21,-3,11,yes,x,5,x,0.6278655999994953,1,96,test1,2,0.628100000001723,-48.0
5,ab,m,19,r,2,(-3.163262682197613e-14, -172.20000000000002),27,3,1,yes,x,5,m,0.5627463999990141,0,1,test2,2,0.5629721000004793,-42.0
5,ab,m,19,r,2,(-121.76378772032348, 121.76378772032349),24,3,1,no,m,6,x,0.7670539999962784,0,2,test2,2,0.7671805999998469,-42.0
5,ab,m,19,r,2,(121.76378772032349, 121.76378772032349),22,-7,13,yes,x,5,x,0.5190819999988889,1,3,test2,2,0.51921069999662,-52.0
5,ab,m,19,r,2,(-121.76378772032348, 121.76378772032349),24,25,4,yes,x,5,x,0.5664753000019118,1,4,test2,2,0.5666139999957522,-20.0
5,ab,m,19,r,2,(121.76378772032349, 121.76378772032349),22,5,2,no,m,6,m,0.6736235999997007,1,5,test2,2,0.6742269000023953,-20.0
5,ab,m,19,r,2,(-121.76378772032352, -121.76378772032348),26,5,2,yes,x,5,x,0.9475358999989112,1,6,test2,2,0.9476572999992641,-40.0
5,ab,m,19,r,2,(121.76378772032346, -121.76378772032352),28,-5,12,no,m,6,m,0.7469749999945634,1,7,test2,2,0.74707849999686,-40.0
5,ab,m,19,r,2,(1.0544208940658713e-14, 172.20000000000002),23,-7,13,yes,x,5,x,0.49499310000101104,1,8,test2,2,0.4954760999971768,-52.0
5,ab,m,19,r,2,(172.20000000000002, 0.0),21,7,3,yes,x,5,x,0.6041712000005646,1,9,test2,2,0.6042742000063299,-38.0
5,ab,m,19,r,2,(121.76378772032349, 121.76378772032349),22,3,1,yes,x,5,x,0.8727773999999044,1,10,test2,2,0.8729597999990801,-42.0
5,ab,m,19,r,2,(-121.76378772032352, -121.76378772032348),26,5,2,yes,x,5,x,1.0050192999988212,1,11,test2,2,1.0054230999958236,-40.0
5,ab,m,19,r,2,(-121.76378772032348, 121.76378772032349),24,-5,12,no,m,6,m,0.9011284000007436,1,12,test2,2,0.9013765000054264,-40.0
5,ab,m,19,r,2,(-121.76378772032352, -121.76378772032348),26,25,4,no,m,6,m,1.1965094000042882,1,13,test2,2,1.1967397000044002,-40.0
5,ab,m,19,r,2,(121.76378772032349, 121.76378772032349),22,-7,13,yes,x,5,x,1.3211462999970536,1,14,test2,2,1.3213548999992781,-52.0
5,ab,m,19,r,2,(172.20000000000002, 0.0),21,3,1,yes,x,5,m,1.1818972999972175,0,15,test2,2,1.1820619999998598,-42.0
5,ab,m,19,r,2,(-121.76378772032348, 121.76378772032349),24,25,4,yes,x,5,x,0.5459556999994675,1,16,test2,2,0.5461442000014358,-20.0
5,ab,m,19,r,2,(121.76378772032349, 121.76378772032349),22,25,4,yes,x,5,x,0.5571142999979202,1,17,test2,2,0.5574179999966873,-20.0
5,ab,m,19,r,2,(121.76378772032349, 121.76378772032349),22,3,1,no,m,6,m,0.7205009999961476,1,18,test2,2,0.7207923000023584,-20.0
5,ab,m,19,r,2,(1.0544208940658713e-14, 172.20000000000002),23,5,2,yes,x,5,x,0.867193899997801,1,19,test2,2,0.8673169000030612,-40.0
5,ab,m,19,r,2,(-121.76378772032348, 121.76378772032349),24,3,1,yes,x,5,m,0.9901534000018728,0,20,test2,2,0.9902736000003642,-42.0
5,ab,m,19,r,2,(172.20000000000002, 0.0),21,-3,11,no,m,6,m,1.5326691000009305,1,21,test2,2,1.5331668000071659,-42.0
5,ab,m,19,r,2,(121.76378772032346, -121.76378772032352),28,-25,14,no,m,6,m,0.8426896000019042,1,22,test2,2,0.842928900005063,-42.0
5,ab,m,19,r,2,(1.0544208940658713e-14, 172.20000000000002),23,-5,12,yes,x,5,x,0.754526500000793,1,23,test2,2,0.7546285999997053,-50.0
5,ab,m,19,r,2,(-172.20000000000002, 2.1088417881317425e-14),25,-25,14,yes,x,5,x,0.4560087999998359,1,24,test2,2,0.45631130000401754,-70.0
5,ab,m,19,r,2,(121.76378772032349, 121.76378772032349),22,7,3,yes,x,5,x,0.6618910999968648,1,25,test2,2,0.6622532999972464,-38.0
5,ab,m,19,r,2,(-172.20000000000002, 2.1088417881317425e-14),25,25,4,no,m,6,m,0.9921481999990647,1,26,test2,2,0.9927775000032852,-38.0
5,ab,m,19,r,2,(-3.163262682197613e-14, -172.20000000000002),27,-7,13,yes,x,5,m,0.7332937999963178,0,27,test2,2,0.7336915999985649,-52.0
5,ab,m,19,r,2,(-172.20000000000002, 2.1088417881317425e-14),25,5,2,yes,x,5,x,1.0934017000035965,1,28,test2,2,1.0936413000017637,-40.0
5,ab,m,19,r,2,(1.0544208940658713e-14, 172.20000000000002),23,3,1,yes,x,5,x,0.9162059000009322,1,29,test2,2,0.9164310999985901,-42.0
5,ab,m,19,r,2,(121.76378772032349, 121.76378772032349),22,7,3,yes,x,5,x,0.7097157999960473,1,30,test2,2,0.7099968000038643,-38.0
5,ab,m,19,r,2,(-121.76378772032348, 121.76378772032349),24,-7,13,yes,x,5,x,0.5498287000009441,1,31,test2,2,0.5500140999938594,-52.0
5,ab,m,19,r,2,(-121.76378772032348, 121.76378772032349),24,25,4,no,m,6,m,1.0483787000048324,1,32,test2,2,1.048477999996976,-52.0
5,ab,m,19,r,2,(-121.76378772032352, -121.76378772032348),26,-3,11,yes,x,5,m,1.2308407999953488,0,33,test2,2,1.2312925000005635,-48.0
5,ab,m,19,r,2,(-121.76378772032352, -121.76378772032348),26,25,4,yes,x,5,x,0.4799076999988756,1,34,test2,2,0.48003529999550665,-20.0
5,ab,m,19,r,2,(-3.163262682197613e-14, -172.20000000000002),27,25,4,yes,x,5,x,0.624383399997896,1,35,test2,2,0.624497100005101,-20.0
5,ab,m,19,r,2,(172.20000000000002, 0.0),21,5,2,no,m,6,m,0.6985191999992821,1,36,test2,2,0.6986169000010705,-20.0
5,ab,m,19,r,2,(172.20000000000002, 0.0),21,-25,14,no,m,6,m,0.6288977000003797,1,37,test2,2,0.629023599998618,-20.0
5,ab,m,19,r,2,(172.20000000000002, 0.0),21,-5,12,yes,x,5,m,0.8517338000019663,0,38,test2,2,0.851839499999187,-50.0
5,ab,m,19,r,2,(1.0544208940658713e-14, 172.20000000000002),23,-3,11,no,m,6,m,1.0307931999996072,1,39,test2,2,1.0309930000003078,-50.0
5,ab,m,19,r,2,(-3.163262682197613e-14, -172.20000000000002),27,5,2,yes,x,5,x,0.5789009000000078,1,40,test2,2,0.5790252999941004,-40.0
5,ab,m,19,r,2,(1.0544208940658713e-14, 172.20000000000002),23,-25,14,yes,x,5,x,0.5407619999969029,1,41,test2,2,0.5411496000015177,-70.0
5,ab,m,19,r,2,(-3.163262682197613e-14, -172.20000000000002),27,-25,14,no,m,6,m,0.5098701000024448,1,42,test2,2,0.5101919000007911,-70.0
5,ab,m,19,r,2,(1.0544208940658713e-14, 172.20000000000002),23,-3,11,yes,x,5,m,0.7585125999976299,0,43,test2,2,0.7586445999986609,-48.0
5,ab,m,19,r,2,(1.0544208940658713e-14, 172.20000000000002),23,5,2,no,m,6,m,0.6511267000023508,1,44,test2,2,0.6514136000041617,-48.0
5,ab,m,19,r,2,(121.76378772032346, -121.76378772032352),28,3,1,yes,x,5,m,0.6088865999990958,0,45,test2,2,0.6091592999946442,-42.0
5,ab,m,19,r,2,(-3.163262682197613e-14, -172.20000000000002),27,-3,11,yes,x,5,m,1.154624100003275,0,46,test2,2,1.1547242999949958,-48.0
5,ab,m,19,r,2,(121.76378772032346, -121.76378772032352),28,-7,13,yes,x,5,x,0.6551551000011386,1,47,test2,2,0.6553147000013269,-52.0
5,ab,m,19,r,2,(172.20000000000002, 0.0),21,7,3,yes,x,5,x,0.5560489999988931,1,48,test2,2,0.5563146999993478,-38.0
5,ab,m,19,r,2,(-172.20000000000002, 2.1088417881317425e-14),25,3,1,no,m,6,m,0.7190718999991077,1,49,test2,2,0.7191690999970888,-38.0
5,ab,m,19,r,2,(172.20000000000002, 0.0),21,-25,14,yes,x,5,x,0.48336180000478635,1,50,test2,2,0.48381930000323337,-70.0
5,ab,m,19,r,2,(172.20000000000002, 0.0),21,3,1,yes,x,5,m,1.5516735999990487,0,51,test2,2,1.551789600001939,-42.0
5,ab,m,19,r,2,(1.0544208940658713e-14, 172.20000000000002),23,7,3,yes,x,5,x,0.5462589000017033,1,52,test2,2,0.546875,-38.0
5,ab,m,19,r,2,(121.76378772032349, 121.76378772032349),22,-5,12,yes,x,5,x,0.8338361999994959,1,53,test2,2,0.8341291999968234,-50.0
5,ab,m,19,r,2,(-121.76378772032352, -121.76378772032348),26,-3,11,yes,x,5,m,1.0737242000031983,0,54,test2,2,1.0739520999995875,-48.0
5,ab,m,19,r,2,(-3.163262682197613e-14, -172.20000000000002),27,-3,11,no,m,6,x,0.5001307999991695,0,55,test2,2,0.5002536000029068,-48.0
5,ab,m,19,r,2,(-172.20000000000002, 2.1088417881317425e-14),25,25,4,yes,x,5,x,0.531044600000314,1,56,test2,2,0.53121960000135,-20.0
5,ab,m,19,r,2,(-3.163262682197613e-14, -172.20000000000002),27,-5,12,no,m,6,m,0.8540146999948774,1,57,test2,2,0.8542128999979468,-20.0
5,ab,m,19,r,2,(121.76378772032346, -121.76378772032352),28,7,3,yes,x,5,x,0.5979558000035468,1,58,test2,2,0.5980857999966247,-38.0
5,ab,m,19,r,2,(172.20000000000002, 0.0),21,-7,13,yes,x,5,x,1.125492999999551,1,59,test2,2,1.1256960999962757,-52.0
5,ab,m,19,r,2,(121.76378772032346, -121.76378772032352),28,5,2,yes,x,5,x,0.573609300001408,1,60,test2,2,0.5738943999967887,-40.0
5,ab,m,19,r,2,(-121.76378772032352, -121.76378772032348),26,25,4,yes,x,5,x,0.4435432000027504,1,61,test2,2,0.4436943999971845,-20.0
5,ab,m,19,r,2,(172.20000000000002, 0.0),21,7,3,no,m,6,m,0.723918000003323,1,62,test2,2,0.7240881999969133,-20.0
5,ab,m,19,r,2,(172.20000000000002, 0.0),21,5,2,yes,x,5,x,0.7931356999979471,1,63,test2,2,0.7935245999979088,-40.0
5,ab,m,19,r,2,(121.76378772032346, -121.76378772032352),28,-5,12,yes,x,5,x,0.5974246000041603,1,64,test2,2,0.5975231999982498,-50.0
5,ab,m,19,r,2,(-121.76378772032348, 121.76378772032349),24,-3,11,no,m,6,m,1.0232734000019263,1,65,test2,2,1.0235872999983258,-50.0
5,ab,m,19,r,2,(-121.76378772032348, 121.76378772032349),24,-5,12,yes,x,5,x,0.5870955999998841,1,66,test2,2,0.5872572000007494,-50.0
5,ab,m,19,r,2,(-3.163262682197613e-14, -172.20000000000002),27,7,3,no,m,6,m,1.1895803000006708,1,67,test2,2,1.1896821999980602,-50.0
5,ab,m,19,r,2,(1.0544208940658713e-14, 172.20000000000002),23,-3,11,yes,x,5,m,0.9638206000017817,0,68,test2,2,0.9639592999956221,-48.0
5,ab,m,19,r,2,(121.76378772032349, 121.76378772032349),22,-5,12,yes,x,5,x,0.5686610999982804,1,69,test2,2,0.5689869999987422,-50.0
5,ab,m,19,r,2,(121.76378772032346, -121.76378772032352),28,25,4,no,m,6,m,0.896801000002597,1,70,test2,2,0.8970473999943351,-50.0
5,ab,m,19,r,2,(-172.20000000000002, 2.1088417881317425e-14),25,-25,14,yes,x,5,x,0.5820681999975932,1,71,test2,2,0.5822906999965198,-70.0
5,ab,m,19,r,2,(121.76378772032346, -121.76378772032352),28,-25,14,yes,x,5,x,0.5421848999976646,1,72,test2,2,0.5423889000012423,-70.0
5,ab,m,19,r,2,(121.76378772032346, -121.76378772032352),28,7,3,yes,x,5,x,0.7460439999995288,1,73,test2,2,0.7461507999978494,-38.0
5,ab,m,19,r,2,(172.20000000000002, 0.0),21,3,1,no,m,6,m,0.9355828999978257,1,74,test2,2,0.9356992999964859,-38.0
5,ab,m,19,r,2,(-172.20000000000002, 2.1088417881317425e-14),25,25,4,yes,x,5,x,0.5556895000045188,1,75,test2,2,0.555994100002863,-20.0
5,ab,m,19,r,2,(-172.20000000000002, 2.1088417881317425e-14),25,-3,11,yes,x,5,m,0.8417716000039945,0,76,test2,2,0.8420672000065679,-48.0
5,ab,m,19,r,2,(121.76378772032346, -121.76378772032352),28,-3,11,yes,x,5,x,1.2769809999954305,1,77,test2,2,1.2774233000018285,-48.0
5,ab,m,19,r,2,(-121.76378772032352, -121.76378772032348),26,3,1,no,m,6,m,0.7658714999997756,1,78,test2,2,0.7660050999984378,-48.0
5,ab,m,19,r,2,(1.0544208940658713e-14, 172.20000000000002),23,5,2,yes,x,5,x,0.6509948000020813,1,79,test2,2,0.6512480999954278,-40.0
5,ab,m,19,r,2,(-172.20000000000002, 2.1088417881317425e-14),25,-5,12,yes,x,5,x,0.5369731999962823,1,80,test2,2,0.5370748999994248,-50.0
5,ab,m,19,r,2,(-172.20000000000002, 2.1088417881317425e-14),25,3,1,yes,x,5,x,0.7364509000035468,1,81,test2,2,0.7369170999954804,-42.0
5,ab,m,19,r,2,(-172.20000000000002, 2.1088417881317425e-14),25,7,3,no,m,6,m,1.3101266000012401,1,82,test2,2,1.310311699999147,-42.0
5,ab,m,19,r,2,(1.0544208940658713e-14, 172.20000000000002),23,7,3,yes,x,5,x,0.5652243000004091,1,83,test2,2,0.5657834000012372,-38.0
5,ab,m,19,r,2,(1.0544208940658713e-14, 172.20000000000002),23,25,4,yes,x,5,x,0.6672323999955552,1,84,test2,2,0.6678707000028226,-20.0
5,ab,m,19,r,2,(1.0544208940658713e-14, 172.20000000000002),23,-25,14,yes,x,5,x,0.5489774999950896,1,85,test2,2,0.5493274999971618,-70.0
5,ab,m,19,r,2,(1.0544208940658713e-14, 172.20000000000002),23,-5,12,yes,x,5,x,1.087255999998888,1,86,test2,2,1.087383600002795,-50.0
5,ab,m,19,r,2,(-121.76378772032352, -121.76378772032348),26,-3,11,no,m,6,m,1.031721799998195,1,87,test2,2,1.0320604000007734,-50.0
5,ab,m,19,r,2,(121.76378772032346, -121.76378772032352),28,5,2,yes,x,5,m,0.8155052000001888,0,88,test2,2,0.8156105999951251,-40.0
5,ab,m,19,r,2,(121.76378772032346, -121.76378772032352),28,3,1,yes,x,5,x,1.1693622000020696,1,89,test2,2,1.1695181999966735,-42.0
5,ab,m,19,r,2,(172.20000000000002, 0.0),21,-5,12,no,m,6,m,1.0603518999996595,1,90,test2,2,1.0604507000025478,-42.0
5,ab,m,19,r,2,(172.20000000000002, 0.0),21,-7,13,no,m,6,m,0.960314500000095,1,91,test2,2,0.9604146999990917,-42.0
5,ab,m,19,r,2,(121.76378772032346, -121.76378772032352),28,7,3,no,m,6,m,0.9520097999993595,1,92,test2,2,0.9525778999959584,-42.0
5,ab,m,19,r,2,(-121.76378772032348, 121.76378772032349),24,5,2,no,m,6,m,1.0065998999998556,1,93,test2,2,1.0067029999991064,-42.0
5,ab,m,19,r,2,(-121.76378772032348, 121.76378772032349),24,-25,14,yes,x,5,x,1.1236012000008486,1,94,test2,2,1.1237005999937537,-70.0
5,ab,m,19,r,2,(121.76378772032349, 121.76378772032349),22,-5,12,no,m,6,m,0.7887339000008069,1,95,test2,2,0.7888650000022608,-70.0
5,ab,m,19,r,2,(-121.76378772032348, 121.76378772032349),24,-5,12,yes,x,5,x,0.5511633999994956,1,96,test2,2,0.5514356999992742,-50.0
5,ab,m,19,r,2,(-121.76378772032348, 121.76378772032349),24,7,3,no,m,6,m,0.6910268000065116,1,1,test1,3,0.6912440000014612,-50.0
5,ab,m,19,r,2,(-121.76378772032348, 121.76378772032349),24,-3,11,yes,x,5,x,0.7258853999956045,1,2,test1,3,0.7267098999946029,-48.0
5,ab,m,19,r,2,(172.20000000000002, 0.0),21,5,2,yes,x,5,x,0.7775822000039625,1,3,test1,3,0.7782651000015903,-40.0
5,ab,m,19,r,2,(1.0544208940658713e-14, 172.20000000000002),23,-25,14,no,m,6,m,0.938340300002892,1,4,test1,3,0.9384730000019772,-40.0
5,ab,m,19,r,2,(-3.163262682197613e-14, -172.20000000000002),27,5,2,no,m,6,m,0.8708274000018719,1,5,test1,3,0.8709307999961311,-40.0
5,ab,m,19,r,2,(121.76378772032349, 121.76378772032349),22,25,4,no,m,6,m,0.7515188000033959,1,6,test1,3,0.75194570000167,-40.0
5,ab,m,19,r,2,(-172.20000000000002, 2.1088417881317425e-14),25,-7,13,no,m,6,m,0.9916211999952793,1,7,test1,3,0.9918481999993674,-40.0
5,ab,m,19,r,2,(1.0544208940658713e-14, 172.20000000000002),23,-7,13,no,m,6,m,0.7382410999998683,1,8,test1,3,0.7384696000008262,-40.0
5,ab,m,19,r,2,(1.0544208940658713e-14, 172.20000000000002),23,25,4,no,m,6,m,0.954594899994845,1,9,test1,3,0.9548645999966539,-40.0
5,ab,m,19,r,2,(-121.76378772032352, -121.76378772032348),26,7,3,yes,x,5,x,0.5767898000049172,1,10,test1,3,0.5769186999968952,-38.0
5,ab,m,19,r,2,(-121.76378772032352, -121.76378772032348),26,-5,12,yes,x,5,x,0.6819575000045006,1,11,test1,3,0.6821398000029149,-50.0
5,ab,m,19,r,2,(-121.76378772032352, -121.76378772032348),26,7,3,yes,x,5,x,0.4850875999982236,1,12,test1,3,0.4851853999934974,-38.0
5,ab,m,19,r,2,(-121.76378772032348, 121.76378772032349),24,-7,13,yes,x,5,x,0.5193884999971488,1,13,test1,3,0.5195173999964027,-52.0
5,ab,m,19,r,2,(121.76378772032346, -121.76378772032352),28,-7,13,yes,x,5,x,0.6121586999943247,1,14,test1,3,0.6123877999998513,-52.0
5,ab,m,19,r,2,(-121.76378772032352, -121.76378772032348),26,3,1,yes,x,5,x,0.6929210999951465,1,15,test1,3,0.6931261999998242,-42.0
5,ab,m,19,r,2,(-121.76378772032348, 121.76378772032349),24,7,3,yes,x,5,x,0.49977980000403477,1,16,test1,3,0.5002010000025621,-38.0
5,ab,m,19,r,2,(172.20000000000002, 0.0),21,-25,14,yes,x,5,x,0.5511996999994153,1,17,test1,3,0.551520499997423,-70.0
5,ab,m,19,r,2,(-172.20000000000002, 2.1088417881317425e-14),25,3,1,yes,x,5,x,0.6119219000029261,1,18,test1,3,0.6121534000048996,-42.0
5,ab,m,19,r,2,(-121.76378772032348, 121.76378772032349),24,-25,14,no,m,6,m,0.7715011000036611,1,19,test1,3,0.7716233999963151,-42.0
5,ab,m,19,r,2,(-121.76378772032352, -121.76378772032348),26,7,3,no,m,6,m,1.045818099999451,1,20,test1,3,1.0461995000005118,-42.0
5,ab,m,19,r,2,(121.76378772032349, 121.76378772032349),22,5,2,yes,x,5,x,0.6882576999996672,1,21,test1,3,0.688496099995973,-40.0
5,ab,m,19,r,2,(-3.163262682197613e-14, -172.20000000000002),27,-5,12,yes,x,5,x,0.6654663000008441,1,22,test1,3,0.6657457999972394,-50.0
5,ab,m,19,r,2,(-121.76378772032352, -121.76378772032348),26,-7,13,yes,x,5,x,0.5990142000009655,1,23,test1,3,0.5999515000003157,-52.0
5,ab,m,19,r,2,(-172.20000000000002, 2.1088417881317425e-14),25,-3,11,no,m,6,m,0.8602545000030659,1,24,test1,3,0.8606830999997328,-52.0
5,ab,m,19,r,2,(-3.163262682197613e-14, -172.20000000000002),27,-25,14,yes,x,5,x,0.46142649999819696,1,25,test1,3,0.46169080000254326,-70.0
5,ab,m,19,r,2,(-172.20000000000002, 2.1088417881317425e-14),25,-5,12,no,m,6,m,0.7677359000008437,1,26,test1,3,0.7682021000000532,-70.0
5,ab,m,19,r,2,(-172.20000000000002, 2.1088417881317425e-14),25,-5,12,yes,x,5,x,0.5633298000029754,1,27,test1,3,0.563428000001295,-50.0
5,ab,m,19,r,2,(121.76378772032349, 121.76378772032349),22,-3,11,yes,x,5,m,1.6858405999955721,0,28,test1,3,1.685946800003876,-48.0
5,ab,m,19,r,2,(-121.76378772032348, 121.76378772032349),24,-7,13,no,m,6,x,0.9131860999987111,0,29,test1,3,0.9133423999955994,-48.0
5,ab,m,19,r,2,(-121.76378772032352, -121.76378772032348),26,-7,13,yes,x,5,x,0.5318256000027759,1,30,test1,3,0.532045099993411,-52.0
5,ab,m,19,r,2,(172.20000000000002, 0.0),21,-3,11,yes,x,5,x,0.71811069999967,1,31,test1,3,0.7183455000049435,-48.0
5,ab,m,19,r,2,(-3.163262682197613e-14, -172.20000000000002),27,-7,13,yes,x,5,x,0.5085779000000912,1,32,test1,3,0.5088306999969063,-52.0
5,ab,m,19,r,2,(172.20000000000002, 0.0),21,25,4,yes,x,5,x,0.4685609000007389,1,33,test1,3,0.46902169999520993,-20.0
5,ab,m,19,r,2,(-172.20000000000002, 2.1088417881317425e-14),25,-7,13,yes,x,5,x,0.3783469000045443,1,34,test1,3,0.37885329999699024,-52.0
5,ab,m,19,r,2,(121.76378772032349, 121.76378772032349),22,5,2,yes,x,5,x,0.5043057000002591,1,35,test1,3,0.5045037000018056,-40.0
5,ab,m,19,r,2,(121.76378772032349, 121.76378772032349),22,-25,14,no,m,6,x,0.5820460000031744,0,36,test1,3,0.5822187000012491,-40.0
5,ab,m,19,r,2,(121.76378772032346, -121.76378772032352),28,-3,11,no,m,6,x,0.5594678999987082,0,37,test1,3,0.5597486999977264,-40.0
5,ab,m,19,r,2,(-121.76378772032348, 121.76378772032349),24,5,2,yes,x,5,x,0.48065569999744184,1,38,test1,3,0.4808255000025383,-40.0
5,ab,m,19,r,2,(-121.76378772032352, -121.76378772032348),26,3,1,yes,x,5,x,1.2120488000000478,1,39,test1,3,1.2121438999965903,-42.0
5,ab,m,19,r,2,(-121.76378772032352, -121.76378772032348),26,-25,14,no,m,6,m,1.2293047999992268,1,40,test1,3,1.2294694000011077,-42.0
5,ab,m,19,r,2,(-3.163262682197613e-14, -172.20000000000002),27,5,2,yes,x,5,x,0.6211051999998745,1,41,test1,3,0.6213139000028605,-40.0
5,ab,m,19,r,2,(-3.163262682197613e-14, -172.20000000000002),27,7,3,yes,x,5,x,0.5919996000011452,1,42,test1,3,0.5922934999980498,-38.0
5,ab,m,19,r,2,(121.76378772032349, 121.76378772032349),22,7,3,no,m,6,m,0.7944333999985247,1,43,test1,3,0.7945478000037838,-38.0
5,ab,m,19,r,2,(121.76378772032346, -121.76378772032352),28,-3,11,yes,x,5,x,0.592767800000729,1,44,test1,3,0.5930052000039723,-48.0
5,ab,m,19,r,2,(121.76378772032349, 121.76378772032349),22,-25,14,yes,x,5,x,0.5012854999949923,1,45,test1,3,0.5016599000009592,-70.0
5,ab,m,19,r,2,(121.76378772032349, 121.76378772032349),22,3,1,yes,x,5,m,1.114811200000986,0,46,test1,3,1.115255899996555,-42.0
5,ab,m,19,r,2,(172.20000000000002, 0.0),21,-5,12,yes,x,5,x,0.49955950000003213,1,47,test1,3,0.49984910000057425,-50.0
5,ab,m,19,r,2,(-3.163262682197613e-14, -172.20000000000002),27,25,4,yes,x,5,x,0.5422686999954749,1,48,test1,3,0.5423713999989559,-20.0
5,ab,m,19,r,2,(1.0544208940658713e-14, 172.20000000000002),23,3,1,no,m,6,m,1.406338799999503,1,49,test1,3,1.4065459999983432,-20.0
5,ab,m,19,r,2,(-3.163262682197613e-14, -172.20000000000002),27,7,3,yes,x,5,x,0.5511908999978914,1,50,test1,3,0.5513086999999359,-38.0
5,ab,m,19,r,2,(121.76378772032346, -121.76378772032352),28,5,2,no,m,6,m,0.7081258999969577,1,51,test1,3,0.7082243000040762,-38.0
5,ab,m,19,r,2,(-3.163262682197613e-14, -172.20000000000002),27,-5,12,yes,x,5,m,0.6976458000062848,0,52,test1,3,0.6977626000007149,-50.0
5,ab,m,19,r,2,(121.76378772032349, 121.76378772032349),22,-7,13,no,m,6,m,0.7016653000027873,1,53,test1,3,0.7020288999992772,-50.0
5,ab,m,19,r,2,(-172.20000000000002, 2.1088417881317425e-14),25,7,3,yes,x,5,x,0.5527594000013778,1,54,test1,3,0.5530006999979378,-38.0
5,ab,m,19,r,2,(-121.76378772032352, -121.76378772032348),26,-5,12,yes,x,5,m,0.6411111999987043,0,55,test1,3,0.6420114000065951,-50.0
5,ab,m,19,r,2,(1.0544208940658713e-14, 172.20000000000002),23,7,3,no,m,6,m,0.7353307000012137,1,56,test1,3,0.7356718000010005,-50.0
5,ab,m,19,r,2,(-3.163262682197613e-14, -172.20000000000002),27,-3,11,yes,x,5,x,0.6833763000031468,1,57,test1,3,0.6839497999972082,-48.0
5,ab,m,19,r,2,(-172.20000000000002, 2.1088417881317425e-14),25,5,2,no,m,6,m,0.8497147000016412,1,58,test1,3,0.8501112000012654,-48.0
5,ab,m,19,r,2,(-121.76378772032348, 121.76378772032349),24,5,2,yes,x,5,x,0.6239780999967479,1,59,test1,3,0.6241060000029393,-40.0
5,ab,m,19,r,2,(-172.20000000000002, 2.1088417881317425e-14),25,7,3,yes,x,5,x,0.5904926000002888,1,60,test1,3,0.5906269000042812,-38.0
5,ab,m,19,r,2,(121.76378772032346, -121.76378772032352),28,25,4,yes,x,5,x,0.49561849999736296,1,61,test1,3,0.4960934000046109,-20.0
5,ab,m,19,r,2,(1.0544208940658713e-14, 172.20000000000002),23,-7,13,yes,x,5,x,0.5090667000040412,1,62,test1,3,0.5092256999996607,-52.0
5,ab,m,19,r,2,(1.0544208940658713e-14, 172.20000000000002),23,25,4,yes,x,5,x,0.5310341000003973,1,63,test1,3,0.5312466999967,-20.0
5,ab,m,19,r,2,(121.76378772032346, -121.76378772032352),28,-25,14,yes,x,5,x,0.527185200000531,1,64,test1,3,0.5274014999959036,-70.0
5,ab,m,19,r,2,(-121.76378772032352, -121.76378772032348),26,-25,14,yes,x,5,x,0.8609949000019697,1,65,test1,3,0.8612266999989515,-70.0
5,ab,m,19,r,2,(121.76378772032346, -121.76378772032352),28,-5,12,yes,x,5,x,0.5081108000013046,1,66,test1,3,0.5086546000020462,-50.0
5,ab,m,19,r,2,(121.76378772032349, 121.76378772032349),22,-25,14,yes,x,5,x,0.42676139999821316,1,67,test1,3,0.42710470000019995,-70.0
5,ab,m,19,r,2,(121.76378772032349, 121.76378772032349),22,25,4,yes,x,5,x,0.43279900000197813,1,68,test1,3,0.4329989999969257,-20.0
5,ab,m,19,r,2,(1.0544208940658713e-14, 172.20000000000002),23,3,1,yes,x,5,x,0.5687385000055656,1,69,test1,3,0.56897019999451,-42.0
5,ab,m,19,r,2,(-3.163262682197613e-14, -172.20000000000002),27,-25,14,yes,x,5,x,0.4924823999972432,1,70,test1,3,0.49299059999611927,-70.0
5,ab,m,19,r,2,(-3.163262682197613e-14, -172.20000000000002),27,25,4,no,m,6,m,0.7260420999955386,1,71,test1,3,0.7261918000003789,-70.0
5,ab,m,19,r,2,(172.20000000000002, 0.0),21,-7,13,yes,x,5,x,0.5407828000024892,1,72,test1,3,0.5408876000001328,-52.0
5,ab,m,19,r,2,(-172.20000000000002, 2.1088417881317425e-14),25,-3,11,yes,x,5,x,1.0669464000020525,1,73,test1,3,1.067464799998561,-48.0
5,ab,m,19,r,2,(-121.76378772032348, 121.76378772032349),24,-3,11,yes,x,5,m,1.510010300000431,0,74,test1,3,1.5102302000013879,-48.0
5,ab,m,19,r,2,(-172.20000000000002, 2.1088417881317425e-14),25,-7,13,yes,x,5,x,0.44957500000600703,1,75,test1,3,0.44967259999975795,-52.0
5,ab,m,19,r,2,(1.0544208940658713e-14, 172.20000000000002),23,-5,12,no,m,6,m,0.6960885999942548,1,76,test1,3,0.6962459000060335,-52.0
5,ab,m,19,r,2,(-121.76378772032348, 121.76378772032349),24,3,1,yes,x,5,m,0.699455099995248,0,77,test1,3,0.6995778999989852,-42.0
5,ab,m,19,r,2,(-172.20000000000002, 2.1088417881317425e-14),25,-25,14,no,m,6,x,0.4440584000039962,0,78,test1,3,0.4441882000028272,-42.0
5,ab,m,19,r,2,(121.76378772032349, 121.76378772032349),22,-3,11,yes,x,5,x,0.7831269999951473,1,79,test1,3,0.7832949000003282,-48.0
5,ab,m,19,r,2,(172.20000000000002, 0.0),21,25,4,yes,x,5,x,0.5308934000058798,1,80,test1,3,0.5311088000016753,-20.0
5,ab,m,19,r,2,(-3.163262682197613e-14, -172.20000000000002),27,-7,13,no,m,6,m,0.9094257999968249,1,81,test1,3,0.9097265000018524,-20.0
5,ab,m,19,r,2,(-121.76378772032352, -121.76378772032348),26,-5,12,no,m,6,m,0.6379921999978251,1,82,test1,3,0.6382809999995516,-20.0
5,ab,m,19,r,2,(-121.76378772032352, -121.76378772032348),26,5,2,no,m,6,m,0.7067480000041542,1,83,test1,3,0.7069558000002871,-20.0
5,ab,m,19,r,2,(-172.20000000000002, 2.1088417881317425e-14),25,5,2,yes,x,5,x,0.6428777000037371,1,84,test1,3,0.6431520999976783,-40.0
5,ab,m,19,r,2,(-121.76378772032352, -121.76378772032348),26,-7,13,no,m,6,m,1.302813000002061,1,85,test1,3,1.302944800001569,-40.0
5,ab,m,19,r,2,(-3.163262682197613e-14, -172.20000000000002),27,3,1,no,m,6,m,0.6241547000026912,1,86,test1,3,0.6244586999964667,-40.0
5,ab,m,19,r,2,(121.76378772032346, -121.76378772032352),28,-7,13,no,m,6,m,0.7663642000043183,1,87,test1,3,0.7667137999960687,-40.0
5,ab,m,19,r,2,(-121.76378772032348, 121.76378772032349),24,-25,14,yes,x,5,x,0.6073261000055936,1,88,test1,3,0.6075216000026558,-70.0
5,ab,m,19,r,2,(121.76378772032346, -121.76378772032352),28,25,4,yes,x,5,x,0.5694749000031152,1,89,test1,3,0.5696878000017023,-20.0
5,ab,m,19,r,2,(-121.76378772032352, -121.76378772032348),26,-25,14,yes,x,5,x,0.5264749999987544,1,90,test1,3,0.5266695999962394,-70.0
5,ab,m,19,r,2,(172.20000000000002, 0.0),21,25,4,no,m,6,m,1.0951553999984753,1,91,test1,3,1.0955306999967434,-70.0
5,ab,m,19,r,2,(121.76378772032346, -121.76378772032352),28,3,1,no,m,6,m,0.7165800000002491,1,92,test1,3,0.7166810999988229,-70.0
5,ab,m,19,r,2,(-3.163262682197613e-14, -172.20000000000002),27,3,1,yes,x,5,x,0.9723443999973824,1,93,test1,3,0.972555199994531,-42.0
5,ab,m,19,r,2,(-121.76378772032348, 121.76378772032349),24,7,3,yes,x,5,x,0.5526381000017864,1,94,test1,3,0.5528871999995317,-38.0
5,ab,m,19,r,2,(121.76378772032349, 121.76378772032349),22,-3,11,no,m,6,m,0.590743000000657,1,95,test1,3,0.5912626999997883,-38.0
5,ab,m,19,r,2,(172.20000000000002, 0.0),21,-3,11,yes,x,5,x,0.976176399999531,1,96,test1,3,0.9763021999970078,-48.0
5,ab,m,19,r,2,(-3.163262682197613e-14, -172.20000000000002),27,3,1,yes,x,5,m,0.6188115999975707,0,1,test2,3,0.6189434000043548,-42.0
5,ab,m,19,r,2,(-121.76378772032348, 121.76378772032349),24,3,1,no,m,6,m,0.7902146000051289,1,2,test2,3,0.7905893999995897,-42.0
5,ab,m,19,r,2,(121.76378772032349, 121.76378772032349),22,-7,13,yes,x,5,x,0.5870787999956519,1,3,test2,3,0.5875171000006958,-52.0
5,ab,m,19,r,2,(-121.76378772032348, 121.76378772032349),24,25,4,yes,x,5,x,0.534037299999909,1,4,test2,3,0.5344108999997843,-20.0
5,ab,m,19,r,2,(121.76378772032349, 121.76378772032349),22,5,2,no,m,6,m,1.2560546000022441,1,5,test2,3,1.2562675999943167,-20.0
5,ab,m,19,r,2,(-121.76378772032352, -121.76378772032348),26,5,2,yes,x,5,x,0.5465790000016568,1,6,test2,3,0.547223399997165,-40.0
5,ab,m,19,r,2,(121.76378772032346, -121.76378772032352),28,-5,12,no,m,6,m,0.6865371000021696,1,7,test2,3,0.6866656999991392,-40.0
5,ab,m,19,r,2,(1.0544208940658713e-14, 172.20000000000002),23,-7,13,yes,x,5,x,0.5688358999977936,1,8,test2,3,0.5690479000040796,-52.0
5,ab,m,19,r,2,(172.20000000000002, 0.0),21,7,3,yes,x,5,x,0.5441781000045012,1,9,test2,3,0.5443930000037653,-38.0
5,ab,m,19,r,2,(121.76378772032349, 121.76378772032349),22,3,1,yes,x,5,x,0.9958828000017093,1,10,test2,3,0.996267300004547,-42.0
5,ab,m,19,r,2,(-121.76378772032352, -121.76378772032348),26,5,2,yes,x,5,x,0.59758210000291,1,11,test2,3,0.5977471000005607,-40.0
5,ab,m,19,r,2,(-121.76378772032348, 121.76378772032349),24,-5,12,no,m,6,m,1.1161575000005541,1,12,test2,3,1.1163929000031203,-40.0
5,ab,m,19,r,2,(-121.76378772032352, -121.76378772032348),26,25,4,no,m,6,m,0.7277634000056423,1,13,test2,3,0.7278925999999046,-40.0
5,ab,m,19,r,2,(121.76378772032349, 121.76378772032349),22,-7,13,yes,x,5,x,0.5202117000008002,1,14,test2,3,0.5204885999992257,-52.0
5,ab,m,19,r,2,(172.20000000000002, 0.0),21,3,1,yes,x,5,x,0.8676126999998814,1,15,test2,3,0.8680088999972213,-42.0
5,ab,m,19,r,2,(-121.76378772032348, 121.76378772032349),24,25,4,yes,x,5,x,0.5864650000003166,1,16,test2,3,0.5865936999980477,-20.0
5,ab,m,19,r,2,(121.76378772032349, 121.76378772032349),22,25,4,yes,x,5,x,0.4567088000039803,1,17,test2,3,0.45711389999632956,-20.0
5,ab,m,19,r,2,(121.76378772032349, 121.76378772032349),22,3,1,no,m,6,m,1.1437818999984302,1,18,test2,3,1.1439121999937925,-20.0
5,ab,m,19,r,2,(1.0544208940658713e-14, 172.20000000000002),23,5,2,yes,x,5,x,0.8981602000058047,1,19,test2,3,0.8984081000016886,-40.0
5,ab,m,19,r,2,(-121.76378772032348, 121.76378772032349),24,3,1,yes,x,5,x,0.872894100000849,1,20,test2,3,0.8731830999968224,-42.0
5,ab,m,19,r,2,(172.20000000000002, 0.0),21,-3,11,no,m,6,m,0.904538999995566,1,21,test2,3,0.9048870999977225,-42.0
5,ab,m,19,r,2,(121.76378772032346, -121.76378772032352),28,-25,14,no,m,6,m,0.6718938999983948,1,22,test2,3,0.6720781999974861,-42.0
5,ab,m,19,r,2,(1.0544208940658713e-14, 172.20000000000002),23,-5,12,yes,x,5,x,0.5873401000062586,1,23,test2,3,0.5876830999986851,-50.0
5,ab,m,19,r,2,(-172.20000000000002, 2.1088417881317425e-14),25,-25,14,yes,x,5,x,0.4825605000005453,1,24,test2,3,0.48295599999983096,-70.0
5,ab,m,19,r,2,(121.76378772032349, 121.76378772032349),22,7,3,yes,x,5,x,0.6605311000021175,1,25,test2,3,0.6607034999979078,-38.0
5,ab,m,19,r,2,(-172.20000000000002, 2.1088417881317425e-14),25,25,4,no,m,6,m,0.7208657000010135,1,26,test2,3,0.7211682999986806,-38.0
5,ab,m,19,r,2,(-3.163262682197613e-14, -172.20000000000002),27,-7,13,yes,x,5,x,0.480291899999429,1,27,test2,3,0.4808541000020341,-52.0
5,ab,m,19,r,2,(-172.20000000000002, 2.1088417881317425e-14),25,5,2,yes,x,5,x,0.5299241000029724,1,28,test2,3,0.5300816999952076,-40.0
5,ab,m,19,r,2,(1.0544208940658713e-14, 172.20000000000002),23,3,1,yes,x,5,x,1.2192636000036146,1,29,test2,3,1.219606600003317,-42.0
5,ab,m,19,r,2,(121.76378772032349, 121.76378772032349),22,7,3,yes,x,5,x,0.5154323999959161,1,30,test2,3,0.5156870999999228,-38.0
5,ab,m,19,r,2,(-121.76378772032348, 121.76378772032349),24,-7,13,yes,x,5,x,0.48290190000261646,1,31,test2,3,0.4831562999970629,-52.0
5,ab,m,19,r,2,(-121.76378772032348, 121.76378772032349),24,25,4,no,m,6,m,1.0886256999947364,1,32,test2,3,1.0887944999994943,-52.0
5,ab,m,19,r,2,(-121.76378772032352, -121.76378772032348),26,-3,11,yes,x,5,x,1.2252770000050077,1,33,test2,3,1.225661799995578,-48.0
5,ab,m,19,r,2,(-121.76378772032352, -121.76378772032348),26,25,4,yes,x,5,x,0.610380999998597,1,34,test2,3,0.6105033000058029,-20.0
5,ab,m,19,r,2,(-3.163262682197613e-14, -172.20000000000002),27,25,4,yes,x,5,x,0.4679868999955943,1,35,test2,3,0.4682782999952906,-20.0
5,ab,m,19,r,2,(172.20000000000002, 0.0),21,5,2,no,m,6,m,1.1648036999977194,1,36,test2,3,1.1650530000042636,-20.0
5,ab,m,19,r,2,(172.20000000000002, 0.0),21,-25,14,no,m,6,m,1.017914900003234,1,37,test2,3,1.0182840999987093,-20.0
5,ab,m,19,r,2,(172.20000000000002, 0.0),21,-5,12,yes,x,5,x,0.5806990999990376,1,38,test2,3,0.5808151000019279,-50.0
5,ab,m,19,r,2,(1.0544208940658713e-14, 172.20000000000002),23,-3,11,no,m,6,m,0.850884200001019,1,39,test2,3,0.851084499998251,-50.0
5,ab,m,19,r,2,(-3.163262682197613e-14, -172.20000000000002),27,5,2,yes,x,5,x,0.6078951000017696,1,40,test2,3,0.6081826000008732,-40.0
5,ab,m,19,r,2,(1.0544208940658713e-14, 172.20000000000002),23,-25,14,yes,x,5,x,0.5067249000057927,1,41,test2,3,0.5068248999959906,-70.0
5,ab,m,19,r,2,(-3.163262682197613e-14, -172.20000000000002),27,-25,14,no,m,6,m,0.7477254000041285,1,42,test2,3,0.7478310000005877,-70.0
5,ab,m,19,r,2,(1.0544208940658713e-14, 172.20000000000002),23,-3,11,yes,x,5,x,0.7794518000009703,1,43,test2,3,0.7798002999988967,-48.0
5,ab,m,19,r,2,(1.0544208940658713e-14, 172.20000000000002),23,5,2,no,m,6,m,0.881253799998376,1,44,test2,3,0.881914899997355,-48.0
5,ab,m,19,r,2,(121.76378772032346, -121.76378772032352),28,3,1,yes,x,5,m,1.2959799999953248,0,45,test2,3,1.2962141999960295,-42.0
5,ab,m,19,r,2,(-3.163262682197613e-14, -172.20000000000002),27,-3,11,yes,x,5,x,0.7037550999957602,1,46,test2,3,0.7042793000000529,-48.0
5,ab,m,19,r,2,(121.76378772032346, -121.76378772032352),28,-7,13,yes,x,5,x,0.8689544000008027,1,47,test2,3,0.8690846000026795,-52.0
5,ab,m,19,r,2,(172.20000000000002, 0.0),21,7,3,yes,x,5,x,0.527954299999692,1,48,test2,3,0.5283287999991444,-38.0
5,ab,m,19,r,2,(-172.20000000000002, 2.1088417881317425e-14),25,3,1,no,m,6,m,0.903760000001057,1,49,test2,3,0.9038634000025922,-38.0
5,ab,m,19,r,2,(172.20000000000002, 0.0),21,-25,14,yes,x,5,x,0.46528830000170274,1,50,test2,3,0.46540510000340873,-70.0
5,ab,m,19,r,2,(172.20000000000002, 0.0),21,3,1,yes,x,5,x,0.9362871999983327,1,51,test2,3,0.9365258999969228,-42.0
5,ab,m,19,r,2,(1.0544208940658713e-14, 172.20000000000002),23,7,3,yes,x,5,x,0.5401329000014812,1,52,test2,3,0.5403649999934714,-38.0
5,ab,m,19,r,2,(121.76378772032349, 121.76378772032349),22,-5,12,yes,x,5,x,0.5582510000022012,1,53,test2,3,0.558489399998507,-50.0
5,ab,m,19,r,2,(-121.76378772032352, -121.76378772032348),26,-3,11,yes,x,5,x,1.0017774000007194,1,54,test2,3,1.001989299998968,-48.0
5,ab,m,19,r,2,(-3.163262682197613e-14, -172.20000000000002),27,-3,11,no,m,6,m,0.9437141000016709,1,55,test2,3,0.9439435999956913,-48.0
5,ab,m,19,r,2,(-172.20000000000002, 2.1088417881317425e-14),25,25,4,yes,x,5,x,0.46343350000097416,1,56,test2,3,0.46364919999905396,-20.0
5,ab,m,19,r,2,(-3.163262682197613e-14, -172.20000000000002),27,-5,12,no,m,6,m,1.0366193000008934,1,57,test2,3,1.03684329999669,-20.0
5,ab,m,19,r,2,(121.76378772032346, -121.76378772032352),28,7,3,yes,x,5,x,0.7002505999989808,1,58,test2,3,0.7005629999985103,-38.0
5,ab,m,19,r,2,(172.20000000000002, 0.0),21,-7,13,yes,x,5,x,0.5849005000054603,1,59,test2,3,0.584998699996504,-52.0
5,ab,m,19,r,2,(121.76378772032346, -121.76378772032352),28,5,2,yes,x,5,x,1.0392726999998558,1,60,test2,3,1.039477699996496,-40.0
5,ab,m,19,r,2,(-121.76378772032352, -121.76378772032348),26,25,4,yes,x,5,x,0.5392770999969798,1,61,test2,3,0.5394400999939535,-20.0
5,ab,m,19,r,2,(172.20000000000002, 0.0),21,7,3,no,m,6,m,1.1157433000043966,1,62,test2,3,1.116049500000372,-20.0
5,ab,m,19,r,2,(172.20000000000002, 0.0),21,5,2,yes,x,5,x,0.5256359999984852,1,63,test2,3,0.5258758999989368,-40.0
5,ab,m,19,r,2,(121.76378772032346, -121.76378772032352),28,-5,12,yes,x,5,x,0.5330850000027567,1,64,test2,3,0.5332458999982919,-50.0
5,ab,m,19,r,2,(-121.76378772032348, 121.76378772032349),24,-3,11,no,m,6,m,0.924411300002248,1,65,test2,3,0.9246392000059132,-50.0
5,ab,m,19,r,2,(-121.76378772032348, 121.76378772032349),24,-5,12,yes,x,5,x,0.6781788000007509,1,66,test2,3,0.6784493000013754,-50.0
5,ab,m,19,r,2,(-3.163262682197613e-14, -172.20000000000002),27,7,3,no,m,6,m,0.7488841000013053,1,67,test2,3,0.7491169999993872,-50.0
5,ab,m,19,r,2,(1.0544208940658713e-14, 172.20000000000002),23,-3,11,yes,x,5,m,1.0720034999976633,0,68,test2,3,1.0721007000029203,-48.0
5,ab,m,19,r,2,(121.76378772032349, 121.76378772032349),22,-5,12,yes,x,5,x,0.6506193999957759,1,69,test2,3,0.6508866000003763,-50.0
5,ab,m,19,r,2,(121.76378772032346, -121.76378772032352),28,25,4,no,m,6,m,0.7645728999996209,1,70,test2,3,0.7646926999950665,-50.0
5,ab,m,19,r,2,(-172.20000000000002, 2.1088417881317425e-14),25,-25,14,yes,x,5,x,0.45924440000089817,1,71,test2,3,0.45957829999679234,-70.0
5,ab,m,19,r,2,(121.76378772032346, -121.76378772032352),28,-25,14,yes,x,5,x,0.5321048999976483,1,72,test2,3,0.5328769999978249,-70.0
5,ab,m,19,r,2,(121.76378772032346, -121.76378772032352),28,7,3,yes,x,5,x,0.5540315999969607,1,73,test2,3,0.5541872999965562,-38.0
5,ab,m,19,r,2,(172.20000000000002, 0.0),21,3,1,no,m,6,m,0.7998451000021305,1,74,test2,3,0.8000002999979188,-38.0
5,ab,m,19,r,2,(-172.20000000000002, 2.1088417881317425e-14),25,25,4,yes,x,5,x,0.4083528999981354,1,75,test2,3,0.4085875999953714,-20.0
5,ab,m,19,r,2,(-172.20000000000002, 2.1088417881317425e-14),25,-3,11,yes,x,5,x,0.7148252999977558,1,76,test2,3,0.7150470999986283,-48.0
5,ab,m,19,r,2,(121.76378772032346, -121.76378772032352),28,-3,11,yes,x,5,m,0.7729363000034937,0,77,test2,3,0.7730343000002904,-48.0
5,ab,m,19,r,2,(-121.76378772032352, -121.76378772032348),26,3,1,no,m,6,m,1.0467403000002378,1,78,test2,3,1.0469861000019591,-48.0
5,ab,m,19,r,2,(1.0544208940658713e-14, 172.20000000000002),23,5,2,yes,x,5,x,0.6032629999972414,1,79,test2,3,0.603558199996769,-40.0
5,ab,m,19,r,2,(-172.20000000000002, 2.1088417881317425e-14),25,-5,12,yes,x,5,x,0.5845783999975538,1,80,test2,3,0.5848670999985188,-50.0
5,ab,m,19,r,2,(-172.20000000000002, 2.1088417881317425e-14),25,3,1,yes,x,5,x,0.5492602000012994,1,81,test2,3,0.5498583999942639,-42.0
5,ab,m,19,r,2,(-172.20000000000002, 2.1088417881317425e-14),25,7,3,no,m,6,m,0.7406143999978667,1,82,test2,3,0.7407344000021112,-42.0
5,ab,m,19,r,2,(1.0544208940658713e-14, 172.20000000000002),23,7,3,yes,x,5,x,0.7064057000025059,1,83,test2,3,0.7065685000052326,-38.0
5,ab,m,19,r,2,(1.0544208940658713e-14, 172.20000000000002),23,25,4,yes,x,5,x,0.7798800000018673,1,84,test2,3,0.7799823000023025,-20.0
5,ab,m,19,r,2,(1.0544208940658713e-14, 172.20000000000002),23,-25,14,yes,x,5,x,0.46344780000072205,1,85,test2,3,0.4638093999965349,-70.0
5,ab,m,19,r,2,(1.0544208940658713e-14, 172.20000000000002),23,-5,12,yes,x,5,x,0.6324569999997038,1,86,test2,3,0.6326411999980337,-50.0
5,ab,m,19,r,2,(-121.76378772032352, -121.76378772032348),26,-3,11,no,m,6,m,0.9889531000007992,1,87,test2,3,0.9892980000004172,-50.0
5,ab,m,19,r,2,(121.76378772032346, -121.76378772032352),28,5,2,yes,x,5,None,None,0,88,test2,3,1.9801321000049938,-40.0
5,ab,m,19,r,2,(121.76378772032346, -121.76378772032352),28,3,1,yes,x,5,m,0.920847599998524,0,89,test2,3,0.9211368000032962,-42.0
5,ab,m,19,r,2,(172.20000000000002, 0.0),21,-5,12,no,m,6,m,0.9099140999969677,1,90,test2,3,0.9101049000018975,-42.0
5,ab,m,19,r,2,(172.20000000000002, 0.0),21,-7,13,no,m,6,m,0.6206717000022763,1,91,test2,3,0.6208047999971313,-42.0
5,ab,m,19,r,2,(121.76378772032346, -121.76378772032352),28,7,3,no,m,6,m,0.5422341000012239,1,92,test2,3,0.5423680000021704,-42.0
5,ab,m,19,r,2,(-121.76378772032348, 121.76378772032349),24,5,2,no,m,6,m,0.6517563000015798,1,93,test2,3,0.6518758999955026,-42.0
5,ab,m,19,r,2,(-121.76378772032348, 121.76378772032349),24,-25,14,yes,x,5,x,0.5150941999963834,1,94,test2,3,0.5157981000011205,-70.0
5,ab,m,19,r,2,(121.76378772032349, 121.76378772032349),22,-5,12,no,m,6,m,0.5361319000003277,1,95,test2,3,0.5366943999979412,-70.0
5,ab,m,19,r,2,(-121.76378772032348, 121.76378772032349),24,-5,12,yes,x,5,x,0.6024695000014617,1,96,test2,3,0.6026996000000509,-50.0
5,ab,m,19,r,2,(-121.76378772032348, 121.76378772032349),24,7,3,no,m,6,m,0.634018400000059,1,1,test1,4,0.6341585000045598,-50.0
5,ab,m,19,r,2,(-121.76378772032348, 121.76378772032349),24,-3,11,yes,x,5,m,0.6160717000020668,0,2,test1,4,0.6163712999987183,-48.0
5,ab,m,19,r,2,(172.20000000000002, 0.0),21,5,2,yes,x,5,x,0.6839270999989822,1,3,test1,4,0.6840413999962038,-40.0
5,ab,m,19,r,2,(1.0544208940658713e-14, 172.20000000000002),23,-25,14,no,m,6,m,0.551809399999911,1,4,test1,4,0.5519681000005221,-40.0
5,ab,m,19,r,2,(-3.163262682197613e-14, -172.20000000000002),27,5,2,no,m,6,x,0.5646410999979707,0,5,test1,4,0.5647652999978163,-40.0
5,ab,m,19,r,2,(121.76378772032349, 121.76378772032349),22,25,4,no,m,6,m,0.6277114999975311,1,6,test1,4,0.6280149000012898,-40.0
5,ab,m,19,r,2,(-172.20000000000002, 2.1088417881317425e-14),25,-7,13,no,m,6,m,0.6156658000036259,1,7,test1,4,0.6158033000028809,-40.0
5,ab,m,19,r,2,(1.0544208940658713e-14, 172.20000000000002),23,-7,13,no,m,6,m,0.6681513000003179,1,8,test1,4,0.6686296999978367,-40.0
5,ab,m,19,r,2,(1.0544208940658713e-14, 172.20000000000002),23,25,4,no,m,6,m,0.595107300003292,1,9,test1,4,0.5952017000017804,-40.0
5,ab,m,19,r,2,(-121.76378772032352, -121.76378772032348),26,7,3,yes,x,5,x,0.6001868000021204,1,10,test1,4,0.6004332000011345,-38.0
5,ab,m,19,r,2,(-121.76378772032352, -121.76378772032348),26,-5,12,yes,x,5,x,0.5632631000044057,1,11,test1,4,0.5633594000028097,-50.0
5,ab,m,19,r,2,(-121.76378772032352, -121.76378772032348),26,7,3,yes,x,5,x,0.5804102000038256,1,12,test1,4,0.5805833999984316,-38.0
5,ab,m,19,r,2,(-121.76378772032348, 121.76378772032349),24,-7,13,yes,x,5,x,0.6374997000020812,1,13,test1,4,0.6376148000053945,-52.0
5,ab,m,19,r,2,(121.76378772032346, -121.76378772032352),28,-7,13,yes,x,5,x,0.5122603999989224,1,14,test1,4,0.5128113000027952,-52.0
5,ab,m,19,r,2,(-121.76378772032352, -121.76378772032348),26,3,1,yes,x,5,x,0.45314610000059474,1,15,test1,4,0.4533799999990151,-42.0
5,ab,m,19,r,2,(-121.76378772032348, 121.76378772032349),24,7,3,yes,x,5,x,0.6385795000023791,1,16,test1,4,0.6386946999991778,-38.0
5,ab,m,19,r,2,(172.20000000000002, 0.0),21,-25,14,yes,x,5,x,0.6449069000009331,1,17,test1,4,0.6451908000017283,-70.0
5,ab,m,19,r,2,(-172.20000000000002, 2.1088417881317425e-14),25,3,1,yes,x,5,x,0.4120117999991635,1,18,test1,4,0.4121140999995987,-42.0
5,ab,m,19,r,2,(-121.76378772032348, 121.76378772032349),24,-25,14,no,m,6,x,1.0336466000007931,0,19,test1,4,1.0337504999988596,-42.0
5,ab,m,19,r,2,(-121.76378772032352, -121.76378772032348),26,7,3,no,m,6,m,0.6538674000039464,1,20,test1,4,0.6540863000045647,-42.0
5,ab,m,19,r,2,(121.76378772032349, 121.76378772032349),22,5,2,yes,x,5,x,0.6061536999986856,1,21,test1,4,0.6063716999997268,-40.0
5,ab,m,19,r,2,(-3.163262682197613e-14, -172.20000000000002),27,-5,12,yes,x,5,x,0.6077784999943106,1,22,test1,4,0.607990600001358,-50.0
5,ab,m,19,r,2,(-121.76378772032352, -121.76378772032348),26,-7,13,yes,x,5,x,0.6264078999956837,1,23,test1,4,0.6265328000008594,-52.0
5,ab,m,19,r,2,(-172.20000000000002, 2.1088417881317425e-14),25,-3,11,no,m,6,m,0.6697112000038032,1,24,test1,4,0.6702356999958283,-52.0
5,ab,m,19,r,2,(-3.163262682197613e-14, -172.20000000000002),27,-25,14,yes,x,5,x,0.5325062999982038,1,25,test1,4,0.5328026999995927,-70.0
5,ab,m,19,r,2,(-172.20000000000002, 2.1088417881317425e-14),25,-5,12,no,m,6,m,0.6190559000024223,1,26,test1,4,0.6194057000029716,-70.0
5,ab,m,19,r,2,(-172.20000000000002, 2.1088417881317425e-14),25,-5,12,yes,x,5,x,0.673195700001088,1,27,test1,4,0.6733815999978106,-50.0
5,ab,m,19,r,2,(121.76378772032349, 121.76378772032349),22,-3,11,yes,x,5,x,0.7210818999956246,1,28,test1,4,0.7212501999965752,-48.0
5,ab,m,19,r,2,(-121.76378772032348, 121.76378772032349),24,-7,13,no,m,6,m,0.8079967999947257,1,29,test1,4,0.8082469000000856,-48.0
5,ab,m,19,r,2,(-121.76378772032352, -121.76378772032348),26,-7,13,yes,x,5,x,0.7244385000012699,1,30,test1,4,0.7246393999957945,-52.0
5,ab,m,19,r,2,(172.20000000000002, 0.0),21,-3,11,yes,x,5,None,None,0,31,test1,4,1.9801031000024523,-48.0
5,ab,m,19,r,2,(-3.163262682197613e-14, -172.20000000000002),27,-7,13,yes,x,5,x,0.4759173000056762,1,32,test1,4,0.4760884999996051,-52.0
5,ab,m,19,r,2,(172.20000000000002, 0.0),21,25,4,yes,x,5,x,0.46388329999899724,1,33,test1,4,0.46400339999672724,-20.0
5,ab,m,19,r,2,(-172.20000000000002, 2.1088417881317425e-14),25,-7,13,yes,x,5,x,0.5357282999975723,1,34,test1,4,0.5363298000011127,-52.0
5,ab,m,19,r,2,(121.76378772032349, 121.76378772032349),22,5,2,yes,x,5,x,0.6003557000003639,1,35,test1,4,0.6004689000037615,-40.0
5,ab,m,19,r,2,(121.76378772032349, 121.76378772032349),22,-25,14,no,m,6,m,0.6608084999970743,1,36,test1,4,0.6609243000057177,-40.0
5,ab,m,19,r,2,(121.76378772032346, -121.76378772032352),28,-3,11,no,m,6,m,0.7785595000023022,1,37,test1,4,0.7790328999981284,-40.0
5,ab,m,19,r,2,(-121.76378772032348, 121.76378772032349),24,5,2,yes,x,5,x,0.5401886000036029,1,38,test1,4,0.5403206999981194,-40.0
5,ab,m,19,r,2,(-121.76378772032352, -121.76378772032348),26,3,1,yes,x,5,m,0.7635779999982333,0,39,test1,4,0.763693199995032,-42.0
5,ab,m,19,r,2,(-121.76378772032352, -121.76378772032348),26,-25,14,no,m,6,m,0.6063625000024331,1,40,test1,4,0.606733799999347,-42.0
5,ab,m,19,r,2,(-3.163262682197613e-14, -172.20000000000002),27,5,2,yes,x,5,x,0.6780579000042053,1,41,test1,4,0.678179700000328,-40.0
5,ab,m,19,r,2,(-3.163262682197613e-14, -172.20000000000002),27,7,3,yes,x,5,x,0.48843029999989085,1,42,test1,4,0.4885558999958448,-38.0
5,ab,m,19,r,2,(121.76378772032349, 121.76378772032349),22,7,3,no,m,6,m,0.8531712000039988,1,43,test1,4,0.8536027999944054,-38.0
5,ab,m,19,r,2,(121.76378772032346, -121.76378772032352),28,-3,11,yes,x,5,x,0.5491844999996829,1,44,test1,4,0.5499593999993522,-48.0
5,ab,m,19,r,2,(121.76378772032349, 121.76378772032349),22,-25,14,yes,x,5,x,0.4541447000010521,1,45,test1,4,0.4545295999996597,-70.0
5,ab,m,19,r,2,(121.76378772032349, 121.76378772032349),22,3,1,yes,x,5,x,1.2151868000000832,1,46,test1,4,1.2155000000057044,-42.0
5,ab,m,19,r,2,(172.20000000000002, 0.0),21,-5,12,yes,x,5,x,0.6161026999980095,1,47,test1,4,0.616196700000728,-50.0
5,ab,m,19,r,2,(-3.163262682197613e-14, -172.20000000000002),27,25,4,yes,x,5,x,0.4339823999980581,1,48,test1,4,0.4342204999993555,-20.0
5,ab,m,19,r,2,(1.0544208940658713e-14, 172.20000000000002),23,3,1,no,m,6,m,1.1987596999970265,1,49,test1,4,1.1990489000017988,-20.0
5,ab,m,19,r,2,(-3.163262682197613e-14, -172.20000000000002),27,7,3,yes,x,5,x,0.5562881999940146,1,50,test1,4,0.5564783000008902,-38.0
5,ab,m,19,r,2,(121.76378772032346, -121.76378772032352),28,5,2,no,m,6,m,0.6866494000059902,1,51,test1,4,0.6868696000019554,-38.0
5,ab,m,19,r,2,(-3.163262682197613e-14, -172.20000000000002),27,-5,12,yes,x,5,x,0.5659660000019358,1,52,test1,4,0.5663174000001163,-50.0
5,ab,m,19,r,2,(121.76378772032349, 121.76378772032349),22,-7,13,no,m,6,m,0.6799257000020589,1,53,test1,4,0.6800484999985201,-50.0
5,ab,m,19,r,2,(-172.20000000000002, 2.1088417881317425e-14),25,7,3,yes,x,5,x,0.5630661000031978,1,54,test1,4,0.5636016999997082,-38.0
5,ab,m,19,r,2,(-121.76378772032352, -121.76378772032348),26,-5,12,yes,x,5,x,0.5101264999975683,1,55,test1,4,0.5104995000001509,-50.0
5,ab,m,19,r,2,(1.0544208940658713e-14, 172.20000000000002),23,7,3,no,m,6,m,0.5677270000014687,1,56,test1,4,0.567874499996833,-50.0
5,ab,m,19,r,2,(-3.163262682197613e-14, -172.20000000000002),27,-3,11,yes,x,5,x,0.71346099999937,1,57,test1,4,0.7135657999970135,-48.0
5,ab,m,19,r,2,(-172.20000000000002, 2.1088417881317425e-14),25,5,2,no,m,6,m,0.5285581999996793,1,58,test1,4,0.5289149999953224,-48.0
5,ab,m,19,r,2,(-121.76378772032348, 121.76378772032349),24,5,2,yes,x,5,x,0.565788200001407,1,59,test1,4,0.5659407000057399,-40.0
5,ab,m,19,r,2,(-172.20000000000002, 2.1088417881317425e-14),25,7,3,yes,x,5,x,0.4970419999954174,1,60,test1,4,0.4972751999957836,-38.0
5,ab,m,19,r,2,(121.76378772032346, -121.76378772032352),28,25,4,yes,x,5,x,0.4868733999974211,1,61,test1,4,0.4875224999996135,-20.0
5,ab,m,19,r,2,(1.0544208940658713e-14, 172.20000000000002),23,-7,13,yes,x,5,x,0.4478242999975919,1,62,test1,4,0.44792629999574274,-52.0
5,ab,m,19,r,2,(1.0544208940658713e-14, 172.20000000000002),23,25,4,yes,x,5,x,0.4156608999983291,1,63,test1,4,0.41588070000580046,-20.0
5,ab,m,19,r,2,(121.76378772032346, -121.76378772032352),28,-25,14,yes,x,5,x,0.4397480000043288,1,64,test1,4,0.4398476999995182,-70.0
5,ab,m,19,r,2,(-121.76378772032352, -121.76378772032348),26,-25,14,yes,x,5,x,0.4074890000047162,1,65,test1,4,0.40763309999601915,-70.0
5,ab,m,19,r,2,(121.76378772032346, -121.76378772032352),28,-5,12,yes,x,5,x,0.7044953999939025,1,66,test1,4,0.7047069000036572,-50.0
5,ab,m,19,r,2,(121.76378772032349, 121.76378772032349),22,-25,14,yes,x,5,x,0.4227842000036617,1,67,test1,4,0.42301920000318205,-70.0
5,ab,m,19,r,2,(121.76378772032349, 121.76378772032349),22,25,4,yes,x,5,x,0.4461362000001827,1,68,test1,4,0.44623180000053253,-20.0
5,ab,m,19,r,2,(1.0544208940658713e-14, 172.20000000000002),23,3,1,yes,x,5,x,0.7824223000061465,1,69,test1,4,0.782644099999743,-42.0
5,ab,m,19,r,2,(-3.163262682197613e-14, -172.20000000000002),27,-25,14,yes,x,5,x,0.5384862999999314,1,70,test1,4,0.538834200000565,-70.0
5,ab,m,19,r,2,(-3.163262682197613e-14, -172.20000000000002),27,25,4,no,m,6,m,0.9726047999938601,1,71,test1,4,0.9727104000048712,-70.0
5,ab,m,19,r,2,(172.20000000000002, 0.0),21,-7,13,yes,x,5,x,0.790106200001901,1,72,test1,4,0.7902967999980319,-52.0
5,ab,m,19,r,2,(-172.20000000000002, 2.1088417881317425e-14),25,-3,11,yes,x,5,x,0.5066162000002805,1,73,test1,4,0.5067299000002095,-48.0
5,ab,m,19,r,2,(-121.76378772032348, 121.76378772032349),24,-3,11,yes,x,5,m,0.7881722999954945,0,74,test1,4,0.7885341000001063,-48.0
5,ab,m,19,r,2,(-172.20000000000002, 2.1088417881317425e-14),25,-7,13,yes,x,5,x,0.5147727000003215,1,75,test1,4,0.514912300001015,-52.0
5,ab,m,19,r,2,(1.0544208940658713e-14, 172.20000000000002),23,-5,12,no,m,6,m,0.704111400002148,1,76,test1,4,0.7042270000019926,-52.0
5,ab,m,19,r,2,(-121.76378772032348, 121.76378772032349),24,3,1,yes,x,5,x,0.5127829000048223,1,77,test1,4,0.5131268000041018,-42.0
5,ab,m,19,r,2,(-172.20000000000002, 2.1088417881317425e-14),25,-25,14,no,m,6,m,0.6368129999973462,1,78,test1,4,0.6369437000030302,-42.0
5,ab,m,19,r,2,(121.76378772032349, 121.76378772032349),22,-3,11,yes,x,5,x,0.8820344000050682,1,79,test1,4,0.8821932000064407,-48.0
5,ab,m,19,r,2,(172.20000000000002, 0.0),21,25,4,yes,x,5,x,0.4736498999991454,1,80,test1,4,0.47375369999645045,-20.0
5,ab,m,19,r,2,(-3.163262682197613e-14, -172.20000000000002),27,-7,13,no,m,6,m,0.7155242000008002,1,81,test1,4,0.715892399995937,-20.0
5,ab,m,19,r,2,(-121.76378772032352, -121.76378772032348),26,-5,12,no,m,6,m,0.9582657999999356,1,82,test1,4,0.9587940999990678,-20.0
5,ab,m,19,r,2,(-121.76378772032352, -121.76378772032348),26,5,2,no,m,6,m,0.702075799999875,1,83,test1,4,0.7022118000022601,-20.0
5,ab,m,19,r,2,(-172.20000000000002, 2.1088417881317425e-14),25,5,2,yes,x,5,x,1.0124553999994532,1,84,test1,4,1.0125924000021769,-40.0
5,ab,m,19,r,2,(-121.76378772032352, -121.76378772032348),26,-7,13,no,m,6,None,None,0,85,test1,4,1.9800848000013502,-40.0
5,ab,m,19,r,2,(-3.163262682197613e-14, -172.20000000000002),27,3,1,no,m,6,m,0.6021098000055645,1,86,test1,4,0.6023306999995839,-40.0
5,ab,m,19,r,2,(121.76378772032346, -121.76378772032352),28,-7,13,no,m,6,m,0.6304658000008203,1,87,test1,4,0.6305678999997326,-40.0
5,ab,m,19,r,2,(-121.76378772032348, 121.76378772032349),24,-25,14,yes,x,5,x,0.501560899996548,1,88,test1,4,0.5026199999992969,-70.0
5,ab,m,19,r,2,(121.76378772032346, -121.76378772032352),28,25,4,yes,x,5,x,0.9177015999957803,1,89,test1,4,0.9179923999981838,-20.0
5,ab,m,19,r,2,(-121.76378772032352, -121.76378772032348),26,-25,14,yes,x,5,x,0.46428320000268286,1,90,test1,4,0.46459100000356557,-70.0
5,ab,m,19,r,2,(172.20000000000002, 0.0),21,25,4,no,m,6,m,0.7654330000004848,1,91,test1,4,0.7657218999956967,-70.0
5,ab,m,19,r,2,(121.76378772032346, -121.76378772032352),28,3,1,no,m,6,m,0.6197819000008167,1,92,test1,4,0.6199386000007507,-70.0
5,ab,m,19,r,2,(-3.163262682197613e-14, -172.20000000000002),27,3,1,yes,x,5,m,0.5356988999992609,0,93,test1,4,0.5359946000025957,-42.0
5,ab,m,19,r,2,(-121.76378772032348, 121.76378772032349),24,7,3,yes,x,5,x,0.5621541000000434,1,94,test1,4,0.56228689999989,-38.0
5,ab,m,19,r,2,(121.76378772032349, 121.76378772032349),22,-3,11,no,m,6,m,0.9186246000026586,1,95,test1,4,0.9188298000008217,-38.0
5,ab,m,19,r,2,(172.20000000000002, 0.0),21,-3,11,yes,x,5,x,0.8302313000021968,1,96,test1,4,0.8304360000038287,-48.0
5,ab,m,19,r,2,(-3.163262682197613e-14, -172.20000000000002),27,3,1,yes,x,5,x,0.7277323000016622,1,1,test2,4,0.7278547000023536,-42.0
5,ab,m,19,r,2,(-121.76378772032348, 121.76378772032349),24,3,1,no,m,6,m,0.8778145000032964,1,2,test2,4,0.8780037999968044,-42.0
5,ab,m,19,r,2,(121.76378772032349, 121.76378772032349),22,-7,13,yes,x,5,x,0.5164173000011942,1,3,test2,4,0.5166434000057052,-52.0
5,ab,m,19,r,2,(-121.76378772032348, 121.76378772032349),24,25,4,yes,x,5,x,0.4487795000022743,1,4,test2,4,0.4490633000023081,-20.0
5,ab,m,19,r,2,(121.76378772032349, 121.76378772032349),22,5,2,no,m,6,m,0.6863408999997773,1,5,test2,4,0.6864401999991969,-20.0
5,ab,m,19,r,2,(-121.76378772032352, -121.76378772032348),26,5,2,yes,x,5,x,0.674635199997283,1,6,test2,4,0.6747378000000026,-40.0
5,ab,m,19,r,2,(121.76378772032346, -121.76378772032352),28,-5,12,no,m,6,m,0.714224600000307,1,7,test2,4,0.7144437000024482,-40.0
5,ab,m,19,r,2,(1.0544208940658713e-14, 172.20000000000002),23,-7,13,yes,x,5,x,0.5601573000021745,1,8,test2,4,0.5605837000039173,-52.0
5,ab,m,19,r,2,(172.20000000000002, 0.0),21,7,3,yes,x,5,x,0.573433000005025,1,9,test2,4,0.5739265999945928,-38.0
5,ab,m,19,r,2,(121.76378772032349, 121.76378772032349),22,3,1,yes,x,5,x,0.6867035999966902,1,10,test2,4,0.6869748999961303,-42.0
5,ab,m,19,r,2,(-121.76378772032352, -121.76378772032348),26,5,2,yes,x,5,x,0.5275491000065813,1,11,test2,4,0.5280827999959001,-40.0
5,ab,m,19,r,2,(-121.76378772032348, 121.76378772032349),24,-5,12,no,m,6,m,0.611417199994321,1,12,test2,4,0.6116869000034058,-40.0
5,ab,m,19,r,2,(-121.76378772032352, -121.76378772032348),26,25,4,no,m,6,x,0.7158823999998276,0,13,test2,4,0.7162017000009655,-40.0
5,ab,m,19,r,2,(121.76378772032349, 121.76378772032349),22,-7,13,yes,x,5,x,0.4257071999963955,1,14,test2,4,0.4259319000047981,-52.0
5,ab,m,19,r,2,(172.20000000000002, 0.0),21,3,1,yes,x,5,x,1.0132601999939652,1,15,test2,4,1.0135835000037332,-42.0
5,ab,m,19,r,2,(-121.76378772032348, 121.76378772032349),24,25,4,yes,x,5,x,0.6846788999973796,1,16,test2,4,0.6849126000015531,-20.0
5,ab,m,19,r,2,(121.76378772032349, 121.76378772032349),22,25,4,yes,x,5,x,0.642415100002836,1,17,test2,4,0.6427094000027864,-20.0
5,ab,m,19,r,2,(121.76378772032349, 121.76378772032349),22,3,1,no,m,6,m,0.6659148999970057,1,18,test2,4,0.6660410000040429,-20.0
5,ab,m,19,r,2,(1.0544208940658713e-14, 172.20000000000002),23,5,2,yes,x,5,x,0.48306769999908283,1,19,test2,4,0.4831653000001097,-40.0
5,ab,m,19,r,2,(-121.76378772032348, 121.76378772032349),24,3,1,yes,x,5,x,0.9068277999976999,1,20,test2,4,0.9069288000027882,-42.0
5,ab,m,19,r,2,(172.20000000000002, 0.0),21,-3,11,no,m,6,m,0.6817331999991438,1,21,test2,4,0.6818702000018675,-42.0
5,ab,m,19,r,2,(121.76378772032346, -121.76378772032352),28,-25,14,no,m,6,m,0.7249194999967585,1,22,test2,4,0.7253022000004421,-42.0
5,ab,m,19,r,2,(1.0544208940658713e-14, 172.20000000000002),23,-5,12,yes,x,5,x,0.5340303000048152,1,23,test2,4,0.5341576999999234,-50.0
5,ab,m,19,r,2,(-172.20000000000002, 2.1088417881317425e-14),25,-25,14,yes,x,5,x,0.5363849999994272,1,24,test2,4,0.5365644999983488,-70.0
5,ab,m,19,r,2,(121.76378772032349, 121.76378772032349),22,7,3,yes,x,5,x,0.5510279000009177,1,25,test2,4,0.5512462999977288,-38.0
5,ab,m,19,r,2,(-172.20000000000002, 2.1088417881317425e-14),25,25,4,no,m,6,m,1.5925120000028983,1,26,test2,4,1.5926140999945346,-38.0
5,ab,m,19,r,2,(-3.163262682197613e-14, -172.20000000000002),27,-7,13,yes,x,5,x,0.5082854000065709,1,27,test2,4,0.5085637000011047,-52.0
5,ab,m,19,r,2,(-172.20000000000002, 2.1088417881317425e-14),25,5,2,yes,x,5,x,0.45470619999832707,1,28,test2,4,0.454809099996055,-40.0
5,ab,m,19,r,2,(1.0544208940658713e-14, 172.20000000000002),23,3,1,yes,x,5,x,0.7940625000046566,1,29,test2,4,0.7944261000011466,-42.0
5,ab,m,19,r,2,(121.76378772032349, 121.76378772032349),22,7,3,yes,x,5,x,0.8924001999985194,1,30,test2,4,0.8929589000035776,-38.0
5,ab,m,19,r,2,(-121.76378772032348, 121.76378772032349),24,-7,13,yes,x,5,x,0.6323207000023103,1,31,test2,4,0.632491200005461,-52.0
5,ab,m,19,r,2,(-121.76378772032348, 121.76378772032349),24,25,4,no,m,6,m,0.9384408999976586,1,32,test2,4,0.9385547999991104,-52.0
5,ab,m,19,r,2,(-121.76378772032352, -121.76378772032348),26,-3,11,yes,x,5,x,0.6363808999958565,1,33,test2,4,0.6366081000014674,-48.0
5,ab,m,19,r,2,(-121.76378772032352, -121.76378772032348),26,25,4,yes,x,5,x,0.5179210999995121,1,34,test2,4,0.5181243999977596,-20.0
5,ab,m,19,r,2,(-3.163262682197613e-14, -172.20000000000002),27,25,4,yes,x,5,x,0.4437067999970168,1,35,test2,4,0.4439889999994193,-20.0
5,ab,m,19,r,2,(172.20000000000002, 0.0),21,5,2,no,m,6,m,0.6351465999978245,1,36,test2,4,0.6353043999988586,-20.0
5,ab,m,19,r,2,(172.20000000000002, 0.0),21,-25,14,no,m,6,m,0.5375270000004093,1,37,test2,4,0.5379443999991054,-20.0
5,ab,m,19,r,2,(172.20000000000002, 0.0),21,-5,12,yes,x,5,x,0.5790666000029887,1,38,test2,4,0.5793096999987029,-50.0
5,ab,m,19,r,2,(1.0544208940658713e-14, 172.20000000000002),23,-3,11,no,m,6,m,0.6229431999963708,1,39,test2,4,0.6230448999995133,-50.0
5,ab,m,19,r,2,(-3.163262682197613e-14, -172.20000000000002),27,5,2,yes,x,5,x,0.5340198999983841,1,40,test2,4,0.5341224000003422,-40.0
5,ab,m,19,r,2,(1.0544208940658713e-14, 172.20000000000002),23,-25,14,yes,x,5,x,0.5553035999982967,1,41,test2,4,0.555460999996285,-70.0
5,ab,m,19,r,2,(-3.163262682197613e-14, -172.20000000000002),27,-25,14,no,m,6,m,0.7162323000011384,1,42,test2,4,0.7163534999999683,-70.0
5,ab,m,19,r,2,(1.0544208940658713e-14, 172.20000000000002),23,-3,11,yes,x,5,x,0.9169173999980558,1,43,test2,4,0.9172292999937781,-48.0
5,ab,m,19,r,2,(1.0544208940658713e-14, 172.20000000000002),23,5,2,no,m,6,m,0.6203326999966521,1,44,test2,4,0.6204318999953102,-48.0
5,ab,m,19,r,2,(121.76378772032346, -121.76378772032352),28,3,1,yes,x,5,m,0.7195662999947672,0,45,test2,4,0.7196946999974898,-42.0
5,ab,m,19,r,2,(-3.163262682197613e-14, -172.20000000000002),27,-3,11,yes,x,5,m,0.7820567000017036,0,46,test2,4,0.7821881999989273,-48.0
5,ab,m,19,r,2,(121.76378772032346, -121.76378772032352),28,-7,13,yes,x,5,x,0.6430498999980045,1,47,test2,4,0.6435322000033921,-52.0
5,ab,m,19,r,2,(172.20000000000002, 0.0),21,7,3,yes,x,5,x,0.5314732999977423,1,48,test2,4,0.5315751000016462,-38.0
5,ab,m,19,r,2,(-172.20000000000002, 2.1088417881317425e-14),25,3,1,no,m,6,m,1.0003237999990233,1,49,test2,4,1.0004558000000543,-38.0
5,ab,m,19,r,2,(172.20000000000002, 0.0),21,-25,14,yes,x,5,x,0.4669919000007212,1,50,test2,4,0.46752939999714727,-70.0
5,ab,m,19,r,2,(172.20000000000002, 0.0),21,3,1,yes,x,5,x,0.526819799997611,1,51,test2,4,0.5273903000052087,-42.0
5,ab,m,19,r,2,(1.0544208940658713e-14, 172.20000000000002),23,7,3,yes,x,5,x,0.5480114000019967,1,52,test2,4,0.5483721999989939,-38.0
5,ab,m,19,r,2,(121.76378772032349, 121.76378772032349),22,-5,12,yes,x,5,m,0.9973334000023897,0,53,test2,4,0.9974326000010478,-50.0
5,ab,m,19,r,2,(-121.76378772032352, -121.76378772032348),26,-3,11,yes,x,5,m,0.8213321000002907,0,54,test2,4,0.821460200000729,-48.0
5,ab,m,19,r,2,(-3.163262682197613e-14, -172.20000000000002),27,-3,11,no,m,6,m,1.2382236000048579,1,55,test2,4,1.2384976999965147,-48.0
5,ab,m,19,r,2,(-172.20000000000002, 2.1088417881317425e-14),25,25,4,yes,x,5,x,0.5349744999984978,1,56,test2,4,0.5351349999982631,-20.0
5,ab,m,19,r,2,(-3.163262682197613e-14, -172.20000000000002),27,-5,12,no,m,6,m,0.7671570000020438,1,57,test2,4,0.767337299999781,-20.0
5,ab,m,19,r,2,(121.76378772032346, -121.76378772032352),28,7,3,yes,x,5,x,0.8245450999966124,1,58,test2,4,0.824675699994259,-38.0
5,ab,m,19,r,2,(172.20000000000002, 0.0),21,-7,13,yes,x,5,x,1.1898680000012973,1,59,test2,4,1.1902371999967727,-52.0
5,ab,m,19,r,2,(121.76378772032346, -121.76378772032352),28,5,2,yes,x,5,x,1.0428946999963955,1,60,test2,4,1.0431391000020085,-40.0
5,ab,m,19,r,2,(-121.76378772032352, -121.76378772032348),26,25,4,yes,x,5,x,0.49446419999731006,1,61,test2,4,0.49477199999819277,-20.0
5,ab,m,19,r,2,(172.20000000000002, 0.0),21,7,3,no,m,6,m,0.6238506000008783,1,62,test2,4,0.6241566000026069,-20.0
5,ab,m,19,r,2,(172.20000000000002, 0.0),21,5,2,yes,x,5,m,0.7762016999986372,0,63,test2,4,0.7766415000005509,-40.0
5,ab,m,19,r,2,(121.76378772032346, -121.76378772032352),28,-5,12,yes,x,5,x,0.6386510000011185,1,64,test2,4,0.6389426000023377,-50.0
5,ab,m,19,r,2,(-121.76378772032348, 121.76378772032349),24,-3,11,no,m,6,m,0.5730738999991445,1,65,test2,4,0.5736568000065745,-50.0
5,ab,m,19,r,2,(-121.76378772032348, 121.76378772032349),24,-5,12,yes,x,5,x,0.5684009000033257,1,66,test2,4,0.5685662999967462,-50.0
5,ab,m,19,r,2,(-3.163262682197613e-14, -172.20000000000002),27,7,3,no,m,6,m,0.8642446000012569,1,67,test2,4,0.8647038999988581,-50.0
5,ab,m,19,r,2,(1.0544208940658713e-14, 172.20000000000002),23,-3,11,yes,x,5,x,0.6547162999995635,1,68,test2,4,0.654987699999765,-48.0
5,ab,m,19,r,2,(121.76378772032349, 121.76378772032349),22,-5,12,yes,x,5,x,0.6926557999977376,1,69,test2,4,0.6927539999960572,-50.0
5,ab,m,19,r,2,(121.76378772032346, -121.76378772032352),28,25,4,no,m,6,m,1.1132469999938621,1,70,test2,4,1.1134729999976116,-50.0
5,ab,m,19,r,2,(-172.20000000000002, 2.1088417881317425e-14),25,-25,14,yes,x,5,x,0.4765987999999197,1,71,test2,4,0.4769132000001264,-70.0
5,ab,m,19,r,2,(121.76378772032346, -121.76378772032352),28,-25,14,yes,x,5,x,0.4419326999995974,1,72,test2,4,0.4420479000036721,-70.0
5,ab,m,19,r,2,(121.76378772032346, -121.76378772032352),28,7,3,yes,x,5,x,0.4761937000002945,1,73,test2,4,0.4762907999975141,-38.0
5,ab,m,19,r,2,(172.20000000000002, 0.0),21,3,1,no,m,6,m,0.6627280999964569,1,74,test2,4,0.662979999993695,-38.0
5,ab,m,19,r,2,(-172.20000000000002, 2.1088417881317425e-14),25,25,4,yes,x,5,x,0.426841799999238,1,75,test2,4,0.42693940000026487,-20.0
5,ab,m,19,r,2,(-172.20000000000002, 2.1088417881317425e-14),25,-3,11,yes,x,5,x,0.5684655000004568,1,76,test2,4,0.5685671999963233,-48.0
5,ab,m,19,r,2,(121.76378772032346, -121.76378772032352),28,-3,11,yes,x,5,x,0.6770946000033291,1,77,test2,4,0.6773119000063161,-48.0
5,ab,m,19,r,2,(-121.76378772032352, -121.76378772032348),26,3,1,no,m,6,m,0.7323237999953562,1,78,test2,4,0.7324452000029851,-48.0
5,ab,m,19,r,2,(1.0544208940658713e-14, 172.20000000000002),23,5,2,yes,x,5,m,1.6175674999976764,0,79,test2,4,1.6178075999996508,-40.0
5,ab,m,19,r,2,(-172.20000000000002, 2.1088417881317425e-14),25,-5,12,yes,x,5,x,0.5800616999986232,1,80,test2,4,0.5801912000024458,-50.0
5,ab,m,19,r,2,(-172.20000000000002, 2.1088417881317425e-14),25,3,1,yes,x,5,m,0.9250138999996125,0,81,test2,4,0.9251472000032663,-42.0
5,ab,m,19,r,2,(-172.20000000000002, 2.1088417881317425e-14),25,7,3,no,m,6,m,0.7876018999959342,1,82,test2,4,0.787699699998484,-42.0
5,ab,m,19,r,2,(1.0544208940658713e-14, 172.20000000000002),23,7,3,yes,x,5,m,0.7227726999990409,0,83,test2,4,0.7230300000010175,-38.0
5,ab,m,19,r,2,(1.0544208940658713e-14, 172.20000000000002),23,25,4,yes,x,5,x,0.4309891000011703,1,84,test2,4,0.4311622000022908,-20.0
5,ab,m,19,r,2,(1.0544208940658713e-14, 172.20000000000002),23,-25,14,yes,x,5,x,0.4944882999989204,1,85,test2,4,0.49472769999556476,-70.0
5,ab,m,19,r,2,(1.0544208940658713e-14, 172.20000000000002),23,-5,12,yes,x,5,m,0.8764614999963669,0,86,test2,4,0.8767432999957236,-50.0
5,ab,m,19,r,2,(-121.76378772032352, -121.76378772032348),26,-3,11,no,m,6,m,0.6273598000043421,1,87,test2,4,0.6277107999994769,-50.0
5,ab,m,19,r,2,(121.76378772032346, -121.76378772032352),28,5,2,yes,x,5,x,0.5919714000046952,1,88,test2,4,0.5920979000002262,-40.0
5,ab,m,19,r,2,(121.76378772032346, -121.76378772032352),28,3,1,yes,x,5,m,0.7503502000035951,0,89,test2,4,0.7508411999951932,-42.0
