subj_id,subj_name,subj_gender ,subj_age,subj_handedness,subj_runNum,tar_l_x,tar_l_y,loc_code,tar_ori,tar_code,tar_pre ,cor_response,pre_code,subj_response,RT,correct,trial_num,type,bloc_num,dur, real_tar
6,lxy,f,19,r,2,(121.76378772032349, 121.76378772032349),22,3,1,no,m,6,m,1.047085700003663,1,1,test1,1,1.0472832000086783,0.0
6,lxy,f,19,r,2,(-121.76378772032352, -121.76378772032348),26,5,2,yes,x,5,x,0.5957149000023492,1,2,test1,1,0.5959531999978935,-40.0
6,lxy,f,19,r,2,(121.76378772032349, 121.76378772032349),22,3,1,yes,x,5,x,0.9560440999921411,1,3,test1,1,0.9565938000014285,-42.0
6,lxy,f,19,r,2,(1.0544208940658713e-14, 172.20000000000002),23,25,4,yes,x,5,x,0.4781938999949489,1,4,test1,1,0.47831729998870287,-20.0
6,lxy,f,19,r,2,(-172.20000000000002, 2.1088417881317425e-14),25,25,4,yes,x,5,x,0.36210250000294764,1,5,test1,1,0.3622613000043202,-20.0
6,lxy,f,19,r,2,(121.76378772032346, -121.76378772032352),28,-25,14,yes,x,5,x,0.46144750001258217,1,6,test1,1,0.461854699999094,-70.0
6,lxy,f,19,r,2,(-172.20000000000002, 2.1088417881317425e-14),25,-7,13,no,m,6,m,0.7829626000020653,1,7,test1,1,0.7831987000099616,-70.0
6,lxy,f,19,r,2,(121.76378772032346, -121.76378772032352),28,25,4,no,m,6,m,0.8102302999905078,1,8,test1,1,0.8103450000053272,-70.0
6,lxy,f,19,r,2,(121.76378772032346, -121.76378772032352),28,3,1,no,m,6,m,0.9031224000063958,1,9,test1,1,0.9033703000022797,-70.0
6,lxy,f,19,r,2,(121.76378772032346, -121.76378772032352),28,-3,11,yes,x,5,m,0.8858127999992575,0,10,test1,1,0.8861960999929579,-48.0
6,lxy,f,19,r,2,(-121.76378772032352, -121.76378772032348),26,-3,11,yes,x,5,x,0.5238800000079209,1,11,test1,1,0.523998999997275,-48.0
6,lxy,f,19,r,2,(-121.76378772032352, -121.76378772032348),26,5,2,no,m,6,m,0.9908562000055099,1,12,test1,1,0.9909744000033243,-48.0
6,lxy,f,19,r,2,(1.0544208940658713e-14, 172.20000000000002),23,5,2,yes,x,5,x,0.7101941000000807,1,13,test1,1,0.7102926999941701,-40.0
6,lxy,f,19,r,2,(-121.76378772032348, 121.76378772032349),24,3,1,yes,x,5,x,0.9403419000009308,1,14,test1,1,0.9406240999960573,-42.0
6,lxy,f,19,r,2,(1.0544208940658713e-14, 172.20000000000002),23,7,3,no,m,6,x,0.7186605000024429,0,15,test1,1,0.7187589999957709,-42.0
6,lxy,f,19,r,2,(-121.76378772032348, 121.76378772032349),24,3,1,no,m,6,m,1.2090182999963872,1,16,test1,1,1.2093189000006532,-42.0
6,lxy,f,19,r,2,(172.20000000000002, 0.0),21,25,4,no,m,6,x,0.9523848999961047,0,17,test1,1,0.9525092999974731,-42.0
6,lxy,f,19,r,2,(-3.163262682197613e-14, -172.20000000000002),27,7,3,yes,x,5,x,0.5141055999993114,1,18,test1,1,0.5142056000040611,-38.0
6,lxy,f,19,r,2,(-172.20000000000002, 2.1088417881317425e-14),25,25,4,yes,x,5,x,0.5495929000026081,1,19,test1,1,0.5498695999995107,-20.0
6,lxy,f,19,r,2,(172.20000000000002, 0.0),21,7,3,yes,x,5,x,0.7901932999957353,1,20,test1,1,0.7903258000005735,-38.0
6,lxy,f,19,r,2,(-121.76378772032352, -121.76378772032348),26,-7,13,yes,x,5,x,0.5105101000081049,1,21,test1,1,0.5108402999903774,-52.0
6,lxy,f,19,r,2,(172.20000000000002, 0.0),21,-5,12,yes,x,5,m,1.055006800001138,0,22,test1,1,1.055214000007254,-50.0
6,lxy,f,19,r,2,(-3.163262682197613e-14, -172.20000000000002),27,-25,14,yes,x,5,x,0.5126783000014257,1,23,test1,1,0.5127763000054983,-70.0
6,lxy,f,19,r,2,(121.76378772032349, 121.76378772032349),22,-25,14,yes,x,5,x,0.40767840000626165,1,24,test1,1,0.40800020001188386,-70.0
6,lxy,f,19,r,2,(172.20000000000002, 0.0),21,-3,11,no,m,6,m,1.0881593999947654,1,25,test1,1,1.0882775000063702,-70.0
6,lxy,f,19,r,2,(1.0544208940658713e-14, 172.20000000000002),23,-25,14,yes,x,5,x,0.38288639999518637,1,26,test1,1,0.3831757000007201,-70.0
6,lxy,f,19,r,2,(-121.76378772032352, -121.76378772032348),26,25,4,no,m,6,m,0.8306475999997929,1,27,test1,1,0.831042299992987,-70.0
6,lxy,f,19,r,2,(121.76378772032349, 121.76378772032349),22,7,3,yes,x,5,x,0.5104330999893136,1,28,test1,1,0.5106900999962818,-38.0
6,lxy,f,19,r,2,(172.20000000000002, 0.0),21,3,1,no,m,6,m,0.7709361000015633,1,29,test1,1,0.771290599994245,-38.0
6,lxy,f,19,r,2,(-3.163262682197613e-14, -172.20000000000002),27,-3,11,yes,x,5,x,0.6397392000071704,1,30,test1,1,0.6399028000014368,-48.0
6,lxy,f,19,r,2,(-172.20000000000002, 2.1088417881317425e-14),25,7,3,yes,x,5,x,0.4822152999986429,1,31,test1,1,0.48240639999858104,-38.0
6,lxy,f,19,r,2,(-3.163262682197613e-14, -172.20000000000002),27,5,2,no,m,6,m,0.8878288999985671,1,32,test1,1,0.8884558999998262,-38.0
6,lxy,f,19,r,2,(172.20000000000002, 0.0),21,-25,14,yes,x,5,x,0.5191701000003377,1,33,test1,1,0.5197700999997323,-70.0
6,lxy,f,19,r,2,(-121.76378772032352, -121.76378772032348),26,7,3,yes,x,5,x,0.5357265000056941,1,34,test1,1,0.5359662999981083,-38.0
6,lxy,f,19,r,2,(-3.163262682197613e-14, -172.20000000000002),27,25,4,yes,x,5,x,0.42566079999960493,1,35,test1,1,0.42624489999434445,-20.0
6,lxy,f,19,r,2,(121.76378772032346, -121.76378772032352),28,5,2,yes,x,5,m,0.818431599996984,0,36,test1,1,0.8187171000026865,-40.0
6,lxy,f,19,r,2,(-121.76378772032348, 121.76378772032349),24,7,3,yes,x,5,x,0.41633740000543185,1,37,test1,1,0.4165052999887848,-38.0
6,lxy,f,19,r,2,(1.0544208940658713e-14, 172.20000000000002),23,5,2,no,m,6,x,0.4376018000039039,0,38,test1,1,0.4379636999947252,-38.0
6,lxy,f,19,r,2,(-172.20000000000002, 2.1088417881317425e-14),25,-25,14,no,m,6,m,1.064404699995066,1,39,test1,1,1.064534300006926,-38.0
6,lxy,f,19,r,2,(-172.20000000000002, 2.1088417881317425e-14),25,-25,14,yes,x,5,x,0.4546353000041563,1,40,test1,1,0.4548676999984309,-70.0
6,lxy,f,19,r,2,(1.0544208940658713e-14, 172.20000000000002),23,-5,12,yes,x,5,x,0.6372801999968942,1,41,test1,1,0.6374045999982627,-50.0
6,lxy,f,19,r,2,(-172.20000000000002, 2.1088417881317425e-14),25,-5,12,yes,x,5,x,0.9032703999982914,1,42,test1,1,0.9033742999890819,-50.0
6,lxy,f,19,r,2,(121.76378772032349, 121.76378772032349),22,-7,13,yes,x,5,x,0.6356588000053307,1,43,test1,1,0.635869100005948,-52.0
6,lxy,f,19,r,2,(-3.163262682197613e-14, -172.20000000000002),27,7,3,no,m,6,m,0.7923738000099547,1,44,test1,1,0.7925236000010045,-52.0
6,lxy,f,19,r,2,(121.76378772032349, 121.76378772032349),22,-3,11,yes,x,5,x,0.5755027000122936,1,45,test1,1,0.5756811999890488,-48.0
6,lxy,f,19,r,2,(1.0544208940658713e-14, 172.20000000000002),23,25,4,yes,x,5,x,0.4167699999961769,1,46,test1,1,0.41694450000068173,-20.0
6,lxy,f,19,r,2,(-121.76378772032348, 121.76378772032349),24,-3,11,no,m,6,m,0.7225574000040069,1,47,test1,1,0.7226768000109587,-20.0
6,lxy,f,19,r,2,(-172.20000000000002, 2.1088417881317425e-14),25,-3,11,yes,x,5,m,0.7782803000009153,0,48,test1,1,0.7785012000094866,-48.0
6,lxy,f,19,r,2,(1.0544208940658713e-14, 172.20000000000002),23,3,1,yes,x,5,x,0.5583899000048405,1,49,test1,1,0.5584899000095902,-42.0
6,lxy,f,19,r,2,(172.20000000000002, 0.0),21,5,2,yes,x,5,x,0.760693899996113,1,50,test1,1,0.7609940000111237,-40.0
6,lxy,f,19,r,2,(-172.20000000000002, 2.1088417881317425e-14),25,3,1,no,m,6,m,0.8352669999876525,1,51,test1,1,0.835564399996656,-40.0
6,lxy,f,19,r,2,(-121.76378772032348, 121.76378772032349),24,25,4,yes,x,5,x,0.5511076999973739,1,52,test1,1,0.5513141999981599,-20.0
6,lxy,f,19,r,2,(121.76378772032346, -121.76378772032352),28,3,1,yes,x,5,m,0.9374173999967752,0,53,test1,1,0.9375337999954354,-42.0
6,lxy,f,19,r,2,(172.20000000000002, 0.0),21,5,2,yes,x,5,x,1.0924381999939214,1,54,test1,1,1.0927694999991218,-40.0
6,lxy,f,19,r,2,(121.76378772032349, 121.76378772032349),22,-7,13,no,m,6,m,1.348993799998425,1,55,test1,1,1.3493713999923784,-40.0
6,lxy,f,19,r,2,(121.76378772032346, -121.76378772032352),28,5,2,no,m,6,m,1.1002123999933247,1,56,test1,1,1.1009047999978065,-40.0
6,lxy,f,19,r,2,(1.0544208940658713e-14, 172.20000000000002),23,-3,11,no,m,6,m,1.3688977999991039,1,57,test1,1,1.3692167999979574,-40.0
6,lxy,f,19,r,2,(-121.76378772032348, 121.76378772032349),24,-3,11,yes,x,5,m,1.2943130999919958,0,58,test1,1,1.2946152999938931,-48.0
6,lxy,f,19,r,2,(121.76378772032346, -121.76378772032352),28,-7,13,no,m,6,m,1.585282100000768,1,59,test1,1,1.5854934999952093,-48.0
6,lxy,f,19,r,2,(1.0544208940658713e-14, 172.20000000000002),23,5,2,yes,x,5,x,0.5380870000080904,1,60,test1,1,0.5382071999920299,-40.0
6,lxy,f,19,r,2,(-172.20000000000002, 2.1088417881317425e-14),25,3,1,yes,x,5,x,0.5051400999946054,1,61,test1,1,0.5052718999941135,-42.0
6,lxy,f,19,r,2,(-121.76378772032352, -121.76378772032348),26,25,4,yes,x,5,x,0.4272007000108715,1,62,test1,1,0.4272983999981079,-20.0
6,lxy,f,19,r,2,(-172.20000000000002, 2.1088417881317425e-14),25,7,3,yes,x,5,x,0.46923959998821374,1,63,test1,1,0.46991639999032486,-38.0
6,lxy,f,19,r,2,(-3.163262682197613e-14, -172.20000000000002),27,5,2,yes,x,5,x,0.5345167000050424,1,64,test1,1,0.5347478999901796,-40.0
6,lxy,f,19,r,2,(-121.76378772032348, 121.76378772032349),24,-5,12,no,m,6,m,0.6984882999968249,1,65,test1,1,0.6985869999916758,-40.0
6,lxy,f,19,r,2,(121.76378772032349, 121.76378772032349),22,7,3,no,m,6,m,0.7716713000118034,1,66,test1,1,0.7718261999980314,-40.0
6,lxy,f,19,r,2,(1.0544208940658713e-14, 172.20000000000002),23,-7,13,yes,x,5,x,0.49394489999394864,1,67,test1,1,0.49404589999176096,-52.0
6,lxy,f,19,r,2,(1.0544208940658713e-14, 172.20000000000002),23,-25,14,yes,x,5,x,0.43665279999549966,1,68,test1,1,0.43699270000797696,-70.0
6,lxy,f,19,r,2,(121.76378772032346, -121.76378772032352),28,5,2,yes,x,5,x,1.0154091000003973,1,69,test1,1,1.0155593999952544,-40.0
6,lxy,f,19,r,2,(1.0544208940658713e-14, 172.20000000000002),23,-3,11,yes,x,5,x,0.704884700011462,1,70,test1,1,0.7050297999958275,-48.0
6,lxy,f,19,r,2,(-3.163262682197613e-14, -172.20000000000002),27,-7,13,yes,x,5,x,0.574993700007326,1,71,test1,1,0.5750971999950707,-52.0
6,lxy,f,19,r,2,(121.76378772032346, -121.76378772032352),28,-5,12,no,m,6,m,0.9144171999942046,1,72,test1,1,0.9145198000042001,-52.0
6,lxy,f,19,r,2,(-172.20000000000002, 2.1088417881317425e-14),25,5,2,yes,x,5,x,0.48791529999289196,1,73,test1,1,0.4881472999986727,-40.0
6,lxy,f,19,r,2,(121.76378772032349, 121.76378772032349),22,-25,14,yes,x,5,x,0.5081223000015598,1,74,test1,1,0.508617299987236,-70.0
6,lxy,f,19,r,2,(1.0544208940658713e-14, 172.20000000000002),23,3,1,yes,x,5,x,0.9855873000051361,1,75,test1,1,0.9857972999889171,-42.0
6,lxy,f,19,r,2,(172.20000000000002, 0.0),21,-3,11,yes,x,5,x,1.3931405000039376,1,76,test1,1,1.3932442000077572,-48.0
6,lxy,f,19,r,2,(1.0544208940658713e-14, 172.20000000000002),23,-5,12,no,m,6,m,0.978951800003415,1,77,test1,1,0.9791168999945512,-48.0
6,lxy,f,19,r,2,(-172.20000000000002, 2.1088417881317425e-14),25,-7,13,yes,x,5,x,0.41709249999257736,1,78,test1,1,0.4172050000051968,-52.0
6,lxy,f,19,r,2,(1.0544208940658713e-14, 172.20000000000002),23,-25,14,no,m,6,m,0.6481870999996318,1,79,test1,1,0.6486017999995966,-52.0
6,lxy,f,19,r,2,(-121.76378772032352, -121.76378772032348),26,-3,11,no,m,6,m,0.7131140999990748,1,80,test1,1,0.7132149999961257,-52.0
6,lxy,f,19,r,2,(-172.20000000000002, 2.1088417881317425e-14),25,-3,11,yes,x,5,x,0.8656226000020979,1,81,test1,1,0.865825799992308,-48.0
6,lxy,f,19,r,2,(-121.76378772032348, 121.76378772032349),24,5,2,yes,x,5,x,0.7018085000017891,1,82,test1,1,0.7019089999957941,-40.0
6,lxy,f,19,r,2,(172.20000000000002, 0.0),21,7,3,yes,x,5,x,0.5784513999969931,1,83,test1,1,0.5785525000101188,-38.0
6,lxy,f,19,r,2,(121.76378772032346, -121.76378772032352),28,7,3,yes,x,5,x,0.4933300999982748,1,84,test1,1,0.4934769999963464,-38.0
6,lxy,f,19,r,2,(121.76378772032346, -121.76378772032352),28,7,3,yes,x,5,x,0.5232459000108065,1,85,test1,1,0.5237455000024056,-38.0
6,lxy,f,19,r,2,(121.76378772032349, 121.76378772032349),22,-25,14,no,m,6,m,0.913987800013274,1,86,test1,1,0.9144369999994524,-38.0
6,lxy,f,19,r,2,(172.20000000000002, 0.0),21,5,2,no,m,6,m,0.7932556000014301,1,87,test1,1,0.7934854999912204,-38.0
6,lxy,f,19,r,2,(-3.163262682197613e-14, -172.20000000000002),27,-5,12,no,m,6,m,1.351243199998862,1,88,test1,1,1.3513682000047993,-38.0
6,lxy,f,19,r,2,(-172.20000000000002, 2.1088417881317425e-14),25,-25,14,yes,x,5,x,0.4451260000059847,1,89,test1,1,0.4454529999929946,-70.0
6,lxy,f,19,r,2,(121.76378772032349, 121.76378772032349),22,-3,11,yes,x,5,x,0.771958800003631,1,90,test1,1,0.7722977999947034,-48.0
6,lxy,f,19,r,2,(-121.76378772032352, -121.76378772032348),26,-5,12,no,m,6,x,0.9724522000033176,0,91,test1,1,0.9728665000002366,-48.0
6,lxy,f,19,r,2,(172.20000000000002, 0.0),21,7,3,no,m,6,m,1.3017472000065027,1,92,test1,1,1.3022131999896374,-48.0
6,lxy,f,19,r,2,(-121.76378772032348, 121.76378772032349),24,-25,14,no,m,6,m,0.952819999991334,1,93,test1,1,0.9529315999971004,-48.0
6,lxy,f,19,r,2,(-3.163262682197613e-14, -172.20000000000002),27,-25,14,no,m,6,m,1.1253884000034304,1,94,test1,1,1.125595700010308,-48.0
6,lxy,f,19,r,2,(-121.76378772032352, -121.76378772032348),26,7,3,yes,x,5,x,0.5403139000118244,1,95,test1,1,0.5405882999912137,-38.0
6,lxy,f,19,r,2,(121.76378772032349, 121.76378772032349),22,-5,12,yes,x,5,x,0.6377961999969557,1,96,test1,1,0.6380828999972437,-50.0
6,lxy,f,19,r,2,(-121.76378772032348, 121.76378772032349),24,-7,13,yes,x,5,x,0.5239296999934595,1,1,test2,1,0.5241629000083776,-52.0
6,lxy,f,19,r,2,(-121.76378772032352, -121.76378772032348),26,-25,14,yes,x,5,x,0.3977714999928139,1,2,test2,1,0.39793570000620093,-70.0
6,lxy,f,19,r,2,(-172.20000000000002, 2.1088417881317425e-14),25,3,1,yes,x,5,m,1.0814039999968372,0,3,test2,1,1.0816978999937419,-42.0
6,lxy,f,19,r,2,(172.20000000000002, 0.0),21,25,4,yes,x,5,x,0.4142451999941841,1,4,test2,1,0.41449070000089705,-20.0
6,lxy,f,19,r,2,(121.76378772032346, -121.76378772032352),28,-7,13,yes,x,5,x,0.510843299998669,1,5,test2,1,0.5110543000046164,-52.0
6,lxy,f,19,r,2,(-121.76378772032348, 121.76378772032349),24,-5,12,yes,x,5,x,0.42254590000084136,1,6,test2,1,0.42264540000178386,-50.0
6,lxy,f,19,r,2,(1.0544208940658713e-14, 172.20000000000002),23,25,4,no,m,6,m,0.7989378999918699,1,7,test2,1,0.7991884999937611,-50.0
6,lxy,f,19,r,2,(172.20000000000002, 0.0),21,-5,12,yes,x,5,x,0.7825655000051484,1,8,test2,1,0.782684199992218,-50.0
6,lxy,f,19,r,2,(-121.76378772032352, -121.76378772032348),26,-7,13,no,m,6,m,0.7847951000003377,1,9,test2,1,0.7851936999941245,-50.0
6,lxy,f,19,r,2,(172.20000000000002, 0.0),21,-7,13,yes,x,5,x,0.5044047999981558,1,10,test2,1,0.5045071999920765,-52.0
6,lxy,f,19,r,2,(-121.76378772032348, 121.76378772032349),24,7,3,no,m,6,m,0.8533138999919174,1,11,test2,1,0.8536410000087926,-52.0
6,lxy,f,19,r,2,(172.20000000000002, 0.0),21,25,4,yes,x,5,x,0.4406083999929251,1,12,test2,1,0.44072159999632277,-20.0
6,lxy,f,19,r,2,(121.76378772032346, -121.76378772032352),28,7,3,no,m,6,m,0.8025228000042262,1,13,test2,1,0.8026775000034831,-20.0
6,lxy,f,19,r,2,(-3.163262682197613e-14, -172.20000000000002),27,3,1,no,m,6,m,0.726127699992503,1,14,test2,1,0.726275799999712,-20.0
6,lxy,f,19,r,2,(-121.76378772032348, 121.76378772032349),24,-25,14,yes,x,5,x,0.4531083000038052,1,15,test2,1,0.453213799992227,-70.0
6,lxy,f,19,r,2,(-172.20000000000002, 2.1088417881317425e-14),25,-7,13,yes,x,5,x,0.5287289999978384,1,16,test2,1,0.5290361999941524,-52.0
6,lxy,f,19,r,2,(-121.76378772032348, 121.76378772032349),24,-7,13,no,m,6,m,0.6756320999993477,1,17,test2,1,0.6757534000062151,-52.0
6,lxy,f,19,r,2,(-121.76378772032352, -121.76378772032348),26,-25,14,no,m,6,m,0.6832909000077052,1,18,test2,1,0.6834229999949457,-52.0
6,lxy,f,19,r,2,(-121.76378772032352, -121.76378772032348),26,3,1,yes,x,5,x,0.8456409000064014,1,19,test2,1,0.8460009999980684,-42.0
6,lxy,f,19,r,2,(172.20000000000002, 0.0),21,3,1,yes,x,5,x,0.7916525000036927,1,20,test2,1,0.791823799998383,-42.0
6,lxy,f,19,r,2,(121.76378772032349, 121.76378772032349),22,5,2,yes,x,5,x,0.6135482999961823,1,21,test2,1,0.6137773000082234,-40.0
6,lxy,f,19,r,2,(-121.76378772032348, 121.76378772032349),24,-5,12,yes,x,5,x,0.5605523000122048,1,22,test2,1,0.5606861999985995,-50.0
6,lxy,f,19,r,2,(-3.163262682197613e-14, -172.20000000000002),27,-3,11,no,m,6,m,0.7569315000000643,1,23,test2,1,0.7575433000019984,-50.0
6,lxy,f,19,r,2,(-172.20000000000002, 2.1088417881317425e-14),25,5,2,yes,x,5,x,0.594327600003453,1,24,test2,1,0.5944230000022799,-40.0
6,lxy,f,19,r,2,(-3.163262682197613e-14, -172.20000000000002),27,-7,13,no,m,6,m,0.8646260999958031,1,25,test2,1,0.8648008999880403,-40.0
6,lxy,f,19,r,2,(-121.76378772032348, 121.76378772032349),24,7,3,yes,x,5,x,0.5043611000000965,1,26,test2,1,0.5045195999991847,-38.0
6,lxy,f,19,r,2,(-121.76378772032352, -121.76378772032348),26,-7,13,yes,x,5,x,0.5028557000041474,1,27,test2,1,0.5030224000074668,-52.0
6,lxy,f,19,r,2,(121.76378772032349, 121.76378772032349),22,25,4,yes,x,5,x,0.5093357999867294,1,28,test2,1,0.5094378999929177,-20.0
6,lxy,f,19,r,2,(121.76378772032349, 121.76378772032349),22,3,1,yes,x,5,m,0.7088346999953501,0,29,test2,1,0.7089375000068685,-42.0
6,lxy,f,19,r,2,(1.0544208940658713e-14, 172.20000000000002),23,7,3,yes,x,5,x,0.4674562000000151,1,30,test2,1,0.46762399999715853,-38.0
6,lxy,f,19,r,2,(172.20000000000002, 0.0),21,-5,12,no,m,6,m,0.6848938000039198,1,31,test2,1,0.685059800001909,-38.0
6,lxy,f,19,r,2,(-121.76378772032348, 121.76378772032349),24,25,4,no,m,6,m,0.8298095000063768,1,32,test2,1,0.8300744000007398,-38.0
6,lxy,f,19,r,2,(-121.76378772032352, -121.76378772032348),26,3,1,yes,x,5,x,0.7182029999967199,1,33,test2,1,0.7184306999988621,-42.0
6,lxy,f,19,r,2,(172.20000000000002, 0.0),21,-25,14,yes,x,5,x,0.5652265999960946,1,34,test2,1,0.565407400004915,-70.0
6,lxy,f,19,r,2,(-121.76378772032348, 121.76378772032349),24,-7,13,yes,x,5,x,0.6001321999938227,1,35,test2,1,0.6002313000062713,-52.0
6,lxy,f,19,r,2,(-3.163262682197613e-14, -172.20000000000002),27,-25,14,yes,x,5,x,0.5200171000033151,1,36,test2,1,0.520710800003144,-70.0
6,lxy,f,19,r,2,(-3.163262682197613e-14, -172.20000000000002),27,-5,12,yes,x,5,x,0.5655114999972284,1,37,test2,1,0.5656166999979177,-50.0
6,lxy,f,19,r,2,(121.76378772032346, -121.76378772032352),28,-7,13,yes,x,5,x,0.7369986999983666,1,38,test2,1,0.7373503999988316,-52.0
6,lxy,f,19,r,2,(-121.76378772032352, -121.76378772032348),26,-25,14,yes,x,5,x,0.5568580999970436,1,39,test2,1,0.5573663999966811,-70.0
6,lxy,f,19,r,2,(-121.76378772032348, 121.76378772032349),24,-25,14,yes,x,5,x,0.46787380000751,1,40,test2,1,0.4680011000018567,-70.0
6,lxy,f,19,r,2,(121.76378772032349, 121.76378772032349),22,7,3,yes,x,5,x,0.5853496000054292,1,41,test2,1,0.5854674000001978,-38.0
6,lxy,f,19,r,2,(-121.76378772032352, -121.76378772032348),26,3,1,no,m,6,m,0.6359637999994447,1,42,test2,1,0.636308499990264,-38.0
6,lxy,f,19,r,2,(121.76378772032349, 121.76378772032349),22,-5,12,no,m,6,x,0.40879190000123344,0,43,test2,1,0.40909450000617653,-38.0
6,lxy,f,19,r,2,(-3.163262682197613e-14, -172.20000000000002),27,3,1,yes,x,5,m,0.9035643999959575,0,44,test2,1,0.9036663000006229,-42.0
6,lxy,f,19,r,2,(121.76378772032346, -121.76378772032352),28,25,4,yes,x,5,x,0.5841954000061378,1,45,test2,1,0.5843586000119103,-20.0
6,lxy,f,19,r,2,(-3.163262682197613e-14, -172.20000000000002),27,7,3,yes,x,5,x,0.5925042000017129,1,46,test2,1,0.5926026999950409,-38.0
6,lxy,f,19,r,2,(-121.76378772032352, -121.76378772032348),26,5,2,yes,x,5,x,0.5049715999921318,1,47,test2,1,0.5050851999985753,-40.0
6,lxy,f,19,r,2,(-3.163262682197613e-14, -172.20000000000002),27,-7,13,yes,x,5,x,0.5150573999999324,1,48,test2,1,0.5153939999872819,-52.0
6,lxy,f,19,r,2,(121.76378772032349, 121.76378772032349),22,25,4,yes,x,5,x,0.47471609999774955,1,49,test2,1,0.47486199998820666,-20.0
6,lxy,f,19,r,2,(-172.20000000000002, 2.1088417881317425e-14),25,-5,12,yes,x,5,x,1.1010189000080572,1,50,test2,1,1.1012320000008913,-50.0
6,lxy,f,19,r,2,(172.20000000000002, 0.0),21,3,1,yes,x,5,m,0.6016558999981498,0,51,test2,1,0.6017893000098411,-42.0
6,lxy,f,19,r,2,(-172.20000000000002, 2.1088417881317425e-14),25,-5,12,no,m,6,m,1.2371468000055756,1,52,test2,1,1.237282200003392,-42.0
6,lxy,f,19,r,2,(121.76378772032346, -121.76378772032352),28,-25,14,yes,x,5,x,0.6390734000015073,1,53,test2,1,0.6391921999893384,-70.0
6,lxy,f,19,r,2,(121.76378772032349, 121.76378772032349),22,5,2,yes,x,5,m,0.8887761999940267,0,54,test2,1,0.8888917000003858,-40.0
6,lxy,f,19,r,2,(121.76378772032349, 121.76378772032349),22,25,4,no,m,6,m,1.138955199989141,1,55,test2,1,1.139079300002777,-40.0
6,lxy,f,19,r,2,(121.76378772032346, -121.76378772032352),28,-5,12,yes,x,5,x,0.5502987000072608,1,56,test2,1,0.5503965999960201,-50.0
6,lxy,f,19,r,2,(121.76378772032346, -121.76378772032352),28,-3,11,no,m,6,m,0.7538265000039246,1,57,test2,1,0.7539836000069045,-50.0
6,lxy,f,19,r,2,(-121.76378772032352, -121.76378772032348),26,-5,12,yes,x,5,x,0.6007156999985455,1,58,test2,1,0.6008150999987265,-50.0
6,lxy,f,19,r,2,(-3.163262682197613e-14, -172.20000000000002),27,-3,11,yes,x,5,x,0.9794919999985723,1,59,test2,1,0.9795907999941846,-48.0
6,lxy,f,19,r,2,(121.76378772032346, -121.76378772032352),28,-25,14,no,m,6,m,0.8230107999988832,1,60,test2,1,0.82325889999629,-48.0
6,lxy,f,19,r,2,(1.0544208940658713e-14, 172.20000000000002),23,-3,11,yes,x,5,x,0.8392794999963371,1,61,test2,1,0.8394149000087054,-48.0
6,lxy,f,19,r,2,(121.76378772032346, -121.76378772032352),28,-5,12,yes,x,5,x,0.8360908000031486,1,62,test2,1,0.8361888999934308,-50.0
6,lxy,f,19,r,2,(-121.76378772032352, -121.76378772032348),26,25,4,yes,x,5,x,0.5111365000047954,1,63,test2,1,0.5113416999956826,-20.0
6,lxy,f,19,r,2,(121.76378772032349, 121.76378772032349),22,-7,13,yes,x,5,x,0.8707312000042293,1,64,test2,1,0.8711597000074107,-52.0
6,lxy,f,19,r,2,(1.0544208940658713e-14, 172.20000000000002),23,-7,13,yes,x,5,x,0.5888927000050899,1,65,test2,1,0.5890239000000292,-52.0
6,lxy,f,19,r,2,(-3.163262682197613e-14, -172.20000000000002),27,-5,12,yes,x,5,x,0.5186548999918159,1,66,test2,1,0.5192154999967897,-50.0
6,lxy,f,19,r,2,(1.0544208940658713e-14, 172.20000000000002),23,7,3,yes,x,5,x,0.5249976000050083,1,67,test2,1,0.5251716000057058,-38.0
6,lxy,f,19,r,2,(121.76378772032349, 121.76378772032349),22,5,2,no,m,6,m,1.092102900001919,1,68,test2,1,1.0923391999967862,-38.0
6,lxy,f,19,r,2,(-121.76378772032352, -121.76378772032348),26,7,3,no,m,6,m,1.3918606999941403,1,69,test2,1,1.3921658000035677,-38.0
6,lxy,f,19,r,2,(1.0544208940658713e-14, 172.20000000000002),23,-7,13,no,m,6,m,1.057293399993796,1,70,test2,1,1.057506299999659,-38.0
6,lxy,f,19,r,2,(121.76378772032349, 121.76378772032349),22,-5,12,yes,x,5,x,0.9151091999956407,1,71,test2,1,0.9152422999904957,-50.0
6,lxy,f,19,r,2,(-172.20000000000002, 2.1088417881317425e-14),25,-3,11,no,m,6,m,1.3523076999990735,1,72,test2,1,1.3524093000014545,-50.0
6,lxy,f,19,r,2,(172.20000000000002, 0.0),21,-3,11,yes,x,5,m,0.7959563000040362,0,73,test2,1,0.7960607999993954,-48.0
6,lxy,f,19,r,2,(-3.163262682197613e-14, -172.20000000000002),27,25,4,no,m,6,m,1.317845199999283,1,74,test2,1,1.3183692000020528,-48.0
6,lxy,f,19,r,2,(-121.76378772032348, 121.76378772032349),24,25,4,yes,x,5,x,0.4810635000030743,1,75,test2,1,0.4812734999868553,-20.0
6,lxy,f,19,r,2,(-172.20000000000002, 2.1088417881317425e-14),25,7,3,no,m,6,x,1.8026165999908699,0,76,test2,1,1.8028186000010464,-20.0
6,lxy,f,19,r,2,(-172.20000000000002, 2.1088417881317425e-14),25,25,4,no,m,6,m,1.3610253000078956,1,77,test2,1,1.3614820999937365,-20.0
6,lxy,f,19,r,2,(121.76378772032349, 121.76378772032349),22,-3,11,no,m,6,m,0.8850761000066996,1,78,test2,1,0.8851902000023983,-20.0
6,lxy,f,19,r,2,(121.76378772032346, -121.76378772032352),28,-3,11,yes,x,5,m,0.7759214999969117,0,79,test2,1,0.7760203999932855,-48.0
6,lxy,f,19,r,2,(-3.163262682197613e-14, -172.20000000000002),27,3,1,yes,x,5,x,1.368073599995114,1,80,test2,1,1.368288700003177,-42.0
6,lxy,f,19,r,2,(-3.163262682197613e-14, -172.20000000000002),27,25,4,yes,x,5,x,0.47105130000272766,1,81,test2,1,0.47128199999860954,-20.0
6,lxy,f,19,r,2,(-121.76378772032348, 121.76378772032349),24,-3,11,yes,x,5,m,0.854394299996784,0,82,test2,1,0.8546299999870826,-48.0
6,lxy,f,19,r,2,(172.20000000000002, 0.0),21,-7,13,yes,x,5,x,0.5727880999911577,1,83,test2,1,0.5729208999982802,-52.0
6,lxy,f,19,r,2,(-121.76378772032348, 121.76378772032349),24,3,1,yes,x,5,x,1.0540079999918817,1,84,test2,1,1.0542510999948718,-42.0
6,lxy,f,19,r,2,(-121.76378772032348, 121.76378772032349),24,5,2,no,m,6,m,1.2024995999963721,1,85,test2,1,1.2026024000078905,-42.0
6,lxy,f,19,r,2,(-3.163262682197613e-14, -172.20000000000002),27,5,2,yes,x,5,m,1.340238999997382,0,86,test2,1,1.3404713000054471,-40.0
6,lxy,f,19,r,2,(-121.76378772032352, -121.76378772032348),26,-5,12,yes,x,5,x,0.5885707999987062,1,87,test2,1,0.5886918000032892,-50.0
6,lxy,f,19,r,2,(-121.76378772032348, 121.76378772032349),24,5,2,yes,x,5,x,0.6540767999977106,1,88,test2,1,0.654212199995527,-40.0
6,lxy,f,19,r,2,(-172.20000000000002, 2.1088417881317425e-14),25,5,2,no,m,6,None,None,0,89,test2,1,1.98009070000262,-40.0
6,lxy,f,19,r,2,(-121.76378772032352, -121.76378772032348),26,-3,11,yes,x,5,x,0.5959967000089819,1,90,test2,1,0.5961267999955453,-48.0
6,lxy,f,19,r,2,(1.0544208940658713e-14, 172.20000000000002),23,-5,12,yes,x,5,x,0.8984921999945072,1,91,test2,1,0.8986211000010371,-50.0
6,lxy,f,19,r,2,(121.76378772032346, -121.76378772032352),28,3,1,yes,x,5,m,0.7653788999887183,0,92,test2,1,0.7660717000107979,-42.0
6,lxy,f,19,r,2,(172.20000000000002, 0.0),21,-7,13,no,m,6,x,0.8618985999928555,0,93,test2,1,0.8622450999973807,-42.0
6,lxy,f,19,r,2,(172.20000000000002, 0.0),21,-25,14,no,m,6,m,1.0296464999992168,1,94,test2,1,1.0302292999986093,-42.0
6,lxy,f,19,r,2,(1.0544208940658713e-14, 172.20000000000002),23,3,1,no,m,6,m,1.0281020999973407,1,95,test2,1,1.0285197999910451,-42.0
6,lxy,f,19,r,2,(121.76378772032346, -121.76378772032352),28,25,4,yes,x,5,x,0.5265617999975802,1,96,test2,1,0.526742899994133,-20.0
6,lxy,f,19,r,2,(121.76378772032349, 121.76378772032349),22,3,1,no,m,6,x,1.0156837000104133,0,1,test1,2,1.015899599995464,-20.0
6,lxy,f,19,r,2,(-121.76378772032352, -121.76378772032348),26,5,2,yes,x,5,x,0.5108841000037501,1,2,test1,2,0.5110113000118872,-40.0
6,lxy,f,19,r,2,(121.76378772032349, 121.76378772032349),22,3,1,yes,x,5,x,0.6028969999897527,1,3,test1,2,0.6033975000027567,-42.0
6,lxy,f,19,r,2,(1.0544208940658713e-14, 172.20000000000002),23,25,4,yes,x,5,x,0.8538095999974757,1,4,test1,2,0.8543030000000726,-20.0
6,lxy,f,19,r,2,(-172.20000000000002, 2.1088417881317425e-14),25,25,4,yes,x,5,x,0.47547259999555536,1,5,test1,2,0.47563450000598095,-20.0
6,lxy,f,19,r,2,(121.76378772032346, -121.76378772032352),28,-25,14,yes,x,5,x,0.590806899999734,1,6,test1,2,0.5911004999943543,-70.0
6,lxy,f,19,r,2,(-172.20000000000002, 2.1088417881317425e-14),25,-7,13,no,m,6,m,0.763481200003298,1,7,test1,2,0.7637257000023965,-70.0
6,lxy,f,19,r,2,(121.76378772032346, -121.76378772032352),28,25,4,no,m,6,m,1.2059889000083786,1,8,test1,2,1.206160200003069,-70.0
6,lxy,f,19,r,2,(121.76378772032346, -121.76378772032352),28,3,1,no,m,6,m,0.8948587999911979,1,9,test1,2,0.8950507999979891,-70.0
6,lxy,f,19,r,2,(121.76378772032346, -121.76378772032352),28,-3,11,yes,x,5,x,0.8060705999960192,1,10,test1,2,0.8062337000010302,-48.0
6,lxy,f,19,r,2,(-121.76378772032352, -121.76378772032348),26,-3,11,yes,x,5,x,1.1958225999987917,1,11,test1,2,1.1961125999951037,-48.0
6,lxy,f,19,r,2,(-121.76378772032352, -121.76378772032348),26,5,2,no,m,6,None,None,0,12,test1,2,1.9801078000018606,-48.0
6,lxy,f,19,r,2,(1.0544208940658713e-14, 172.20000000000002),23,5,2,yes,x,5,x,0.6935607000050368,1,13,test1,2,0.693677100003697,-40.0
6,lxy,f,19,r,2,(-121.76378772032348, 121.76378772032349),24,3,1,yes,x,5,x,0.5979110000043875,1,14,test1,2,0.5983090000081575,-42.0
6,lxy,f,19,r,2,(1.0544208940658713e-14, 172.20000000000002),23,7,3,no,m,6,m,1.2155676999973366,1,15,test1,2,1.2156734000018332,-42.0
6,lxy,f,19,r,2,(-121.76378772032348, 121.76378772032349),24,3,1,no,m,6,x,1.139031700004125,0,16,test1,2,1.1392809000099078,-42.0
6,lxy,f,19,r,2,(172.20000000000002, 0.0),21,25,4,no,m,6,x,0.661617000005208,0,17,test1,2,0.6617140000016661,-42.0
6,lxy,f,19,r,2,(-3.163262682197613e-14, -172.20000000000002),27,7,3,yes,x,5,x,0.6017027000052622,1,18,test1,2,0.6020573999994667,-38.0
6,lxy,f,19,r,2,(-172.20000000000002, 2.1088417881317425e-14),25,25,4,yes,x,5,x,0.5975603999977466,1,19,test1,2,0.597688100009691,-20.0
6,lxy,f,19,r,2,(172.20000000000002, 0.0),21,7,3,yes,x,5,x,0.7581540000101086,1,20,test1,2,0.7588222000049427,-38.0
6,lxy,f,19,r,2,(-121.76378772032352, -121.76378772032348),26,-7,13,yes,x,5,x,0.7539440999971703,1,21,test1,2,0.7540643999964232,-52.0
6,lxy,f,19,r,2,(172.20000000000002, 0.0),21,-5,12,yes,x,5,m,0.9557342000043718,0,22,test1,2,0.9561307999974815,-50.0
6,lxy,f,19,r,2,(-3.163262682197613e-14, -172.20000000000002),27,-25,14,yes,x,5,x,0.5250734000001103,1,23,test1,2,0.5252935999887995,-70.0
6,lxy,f,19,r,2,(121.76378772032349, 121.76378772032349),22,-25,14,yes,x,5,x,0.5124862000084249,1,24,test1,2,0.5127250999939861,-70.0
6,lxy,f,19,r,2,(172.20000000000002, 0.0),21,-3,11,no,m,6,m,0.935696900007315,1,25,test1,2,0.9358576000086032,-70.0
6,lxy,f,19,r,2,(1.0544208940658713e-14, 172.20000000000002),23,-25,14,yes,x,5,x,0.47421500000928063,1,26,test1,2,0.4746056000003591,-70.0
6,lxy,f,19,r,2,(-121.76378772032352, -121.76378772032348),26,25,4,no,m,6,m,0.9974875000043539,1,27,test1,2,0.9976028000091901,-70.0
6,lxy,f,19,r,2,(121.76378772032349, 121.76378772032349),22,7,3,yes,x,5,x,1.0600828000024194,1,28,test1,2,1.0604033000126947,-38.0
6,lxy,f,19,r,2,(172.20000000000002, 0.0),21,3,1,no,m,6,m,0.9185096000001067,1,29,test1,2,0.9186781000025803,-38.0
6,lxy,f,19,r,2,(-3.163262682197613e-14, -172.20000000000002),27,-3,11,yes,x,5,x,0.9044909000076586,1,30,test1,2,0.9046378000057302,-48.0
6,lxy,f,19,r,2,(-172.20000000000002, 2.1088417881317425e-14),25,7,3,yes,x,5,m,0.9855903999996372,0,31,test1,2,0.9857770999951754,-38.0
6,lxy,f,19,r,2,(-3.163262682197613e-14, -172.20000000000002),27,5,2,no,m,6,m,1.208176200001617,1,32,test1,2,1.2083482000016375,-38.0
6,lxy,f,19,r,2,(172.20000000000002, 0.0),21,-25,14,yes,x,5,x,0.6409887000045273,1,33,test1,2,0.6410900999908336,-70.0
6,lxy,f,19,r,2,(-121.76378772032352, -121.76378772032348),26,7,3,yes,x,5,m,0.7627905999979703,0,34,test1,2,0.7628945000033127,-38.0
6,lxy,f,19,r,2,(-3.163262682197613e-14, -172.20000000000002),27,25,4,yes,x,5,x,0.5191346000065096,1,35,test1,2,0.519245299990871,-20.0
6,lxy,f,19,r,2,(121.76378772032346, -121.76378772032352),28,5,2,yes,x,5,x,0.6836574000044493,1,36,test1,2,0.6838446000037948,-40.0
6,lxy,f,19,r,2,(-121.76378772032348, 121.76378772032349),24,7,3,yes,x,5,x,0.6678363000100944,1,37,test1,2,0.6680570999888005,-38.0
6,lxy,f,19,r,2,(1.0544208940658713e-14, 172.20000000000002),23,5,2,no,m,6,m,1.0249965999973938,1,38,test1,2,1.0251007999904687,-38.0
6,lxy,f,19,r,2,(-172.20000000000002, 2.1088417881317425e-14),25,-25,14,no,m,6,m,0.8290266999974847,1,39,test1,2,0.8293019999982789,-38.0
6,lxy,f,19,r,2,(-172.20000000000002, 2.1088417881317425e-14),25,-25,14,yes,x,5,x,0.44082230000640266,1,40,test1,2,0.4412700000102632,-70.0
6,lxy,f,19,r,2,(1.0544208940658713e-14, 172.20000000000002),23,-5,12,yes,x,5,m,0.8127924000000348,0,41,test1,2,0.8133321000059368,-50.0
6,lxy,f,19,r,2,(-172.20000000000002, 2.1088417881317425e-14),25,-5,12,yes,x,5,x,0.7137634999962756,1,42,test1,2,0.713992999997572,-50.0
6,lxy,f,19,r,2,(121.76378772032349, 121.76378772032349),22,-7,13,yes,x,5,x,0.5572414000052959,1,43,test1,2,0.5576374999945983,-52.0
6,lxy,f,19,r,2,(-3.163262682197613e-14, -172.20000000000002),27,7,3,no,m,6,x,1.0366350999975111,0,44,test1,2,1.0369843999942532,-52.0
6,lxy,f,19,r,2,(121.76378772032349, 121.76378772032349),22,-3,11,yes,x,5,m,0.9360935000004247,0,45,test1,2,0.9361941000097431,-48.0
6,lxy,f,19,r,2,(1.0544208940658713e-14, 172.20000000000002),23,25,4,yes,x,5,x,0.4705638000014005,1,46,test1,2,0.4706798999977764,-20.0
6,lxy,f,19,r,2,(-121.76378772032348, 121.76378772032349),24,-3,11,no,m,6,m,1.0801580000115791,1,47,test1,2,1.0803923000057694,-20.0
6,lxy,f,19,r,2,(-172.20000000000002, 2.1088417881317425e-14),25,-3,11,yes,x,5,x,0.9573402999958489,1,48,test1,2,0.9574420000135433,-48.0
6,lxy,f,19,r,2,(1.0544208940658713e-14, 172.20000000000002),23,3,1,yes,x,5,x,0.5298908000113443,1,49,test1,2,0.5301004999928409,-42.0
6,lxy,f,19,r,2,(172.20000000000002, 0.0),21,5,2,yes,x,5,x,0.5588693000026979,1,50,test1,2,0.5594680999929551,-40.0
6,lxy,f,19,r,2,(-172.20000000000002, 2.1088417881317425e-14),25,3,1,no,m,6,m,0.8401461000030395,1,51,test1,2,0.8406287999969209,-40.0
6,lxy,f,19,r,2,(-121.76378772032348, 121.76378772032349),24,25,4,yes,x,5,x,0.5023756000009598,1,52,test1,2,0.5024928999919211,-20.0
6,lxy,f,19,r,2,(121.76378772032346, -121.76378772032352),28,3,1,yes,x,5,m,0.8630638999893563,0,53,test1,2,0.8632501999964006,-42.0
6,lxy,f,19,r,2,(172.20000000000002, 0.0),21,5,2,yes,x,5,x,0.848849899994093,1,54,test1,2,0.8490281000122195,-40.0
6,lxy,f,19,r,2,(121.76378772032349, 121.76378772032349),22,-7,13,no,m,6,x,1.0447801999980584,0,55,test1,2,1.0448783000028925,-40.0
6,lxy,f,19,r,2,(121.76378772032346, -121.76378772032352),28,5,2,no,m,6,m,0.8468716999923345,1,56,test1,2,0.8471434000093723,-40.0
6,lxy,f,19,r,2,(1.0544208940658713e-14, 172.20000000000002),23,-3,11,no,m,6,m,0.9395456999918679,1,57,test1,2,0.9398638000129722,-40.0
6,lxy,f,19,r,2,(-121.76378772032348, 121.76378772032349),24,-3,11,yes,x,5,m,1.0448289000050863,0,58,test1,2,1.045076299997163,-48.0
6,lxy,f,19,r,2,(121.76378772032346, -121.76378772032352),28,-7,13,no,m,6,x,1.065247399994405,0,59,test1,2,1.0655389000021387,-48.0
6,lxy,f,19,r,2,(1.0544208940658713e-14, 172.20000000000002),23,5,2,yes,x,5,x,0.5182203000003938,1,60,test1,2,0.5183229999965988,-40.0
6,lxy,f,19,r,2,(-172.20000000000002, 2.1088417881317425e-14),25,3,1,yes,x,5,x,1.2436172000016086,1,61,test1,2,1.243919200001983,-42.0
6,lxy,f,19,r,2,(-121.76378772032352, -121.76378772032348),26,25,4,yes,x,5,x,0.5636928000021726,1,62,test1,2,0.5638063999940641,-20.0
6,lxy,f,19,r,2,(-172.20000000000002, 2.1088417881317425e-14),25,7,3,yes,x,5,x,0.7713193000090541,1,63,test1,2,0.7714325999986613,-38.0
6,lxy,f,19,r,2,(-3.163262682197613e-14, -172.20000000000002),27,5,2,yes,x,5,x,0.6456319999997504,1,64,test1,2,0.6459514000016497,-40.0
6,lxy,f,19,r,2,(-121.76378772032348, 121.76378772032349),24,-5,12,no,m,6,m,0.8043504999950528,1,65,test1,2,0.8044512000051327,-40.0
6,lxy,f,19,r,2,(121.76378772032349, 121.76378772032349),22,7,3,no,m,6,m,0.7583378999988781,1,66,test1,2,0.7584499999938998,-40.0
6,lxy,f,19,r,2,(1.0544208940658713e-14, 172.20000000000002),23,-7,13,yes,x,5,x,0.84910380000656,1,67,test1,2,0.849240199997439,-52.0
6,lxy,f,19,r,2,(1.0544208940658713e-14, 172.20000000000002),23,-25,14,yes,x,5,x,1.2709615000057966,1,68,test1,2,1.2710597999976017,-70.0
6,lxy,f,19,r,2,(121.76378772032346, -121.76378772032352),28,5,2,yes,x,5,x,0.7443806999945082,1,69,test1,2,0.7446006000100169,-40.0
6,lxy,f,19,r,2,(1.0544208940658713e-14, 172.20000000000002),23,-3,11,yes,x,5,m,0.6563602999958675,0,70,test1,2,0.6564638999989256,-48.0
6,lxy,f,19,r,2,(-3.163262682197613e-14, -172.20000000000002),27,-7,13,yes,x,5,x,0.44478210000670515,1,71,test1,2,0.4454088999918895,-52.0
6,lxy,f,19,r,2,(121.76378772032346, -121.76378772032352),28,-5,12,no,m,6,x,0.7226174999959767,0,72,test1,2,0.7227554999990389,-52.0
6,lxy,f,19,r,2,(-172.20000000000002, 2.1088417881317425e-14),25,5,2,yes,x,5,x,0.5840962999936892,1,73,test1,2,0.5843089999980293,-40.0
6,lxy,f,19,r,2,(121.76378772032349, 121.76378772032349),22,-25,14,yes,x,5,x,0.626336999994237,1,74,test1,2,0.6271724999969592,-70.0
6,lxy,f,19,r,2,(1.0544208940658713e-14, 172.20000000000002),23,3,1,yes,x,5,m,1.39518279999902,0,75,test1,2,1.3953870999976061,-42.0
6,lxy,f,19,r,2,(172.20000000000002, 0.0),21,-3,11,yes,x,5,m,1.12956000000122,0,76,test1,2,1.1297215999948094,-48.0
6,lxy,f,19,r,2,(1.0544208940658713e-14, 172.20000000000002),23,-5,12,no,m,6,x,0.644168400001945,0,77,test1,2,0.644518999994034,-48.0
6,lxy,f,19,r,2,(-172.20000000000002, 2.1088417881317425e-14),25,-7,13,yes,x,5,x,0.5277373999997508,1,78,test1,2,0.528048200008925,-52.0
6,lxy,f,19,r,2,(1.0544208940658713e-14, 172.20000000000002),23,-25,14,no,m,6,m,0.8696218999975827,1,79,test1,2,0.8704948999948101,-52.0
6,lxy,f,19,r,2,(-121.76378772032352, -121.76378772032348),26,-3,11,no,m,6,m,1.0372375000006286,1,80,test1,2,1.0374092999991262,-52.0
6,lxy,f,19,r,2,(-172.20000000000002, 2.1088417881317425e-14),25,-3,11,yes,x,5,x,0.8573479999904521,1,81,test1,2,0.8576279999979306,-48.0
6,lxy,f,19,r,2,(-121.76378772032348, 121.76378772032349),24,5,2,yes,x,5,x,1.106861399995978,1,82,test1,2,1.1072819999972126,-40.0
6,lxy,f,19,r,2,(172.20000000000002, 0.0),21,7,3,yes,x,5,x,0.9207786000042688,1,83,test1,2,0.9214448999991873,-38.0
6,lxy,f,19,r,2,(121.76378772032346, -121.76378772032352),28,7,3,yes,x,5,x,0.5534629000030691,1,84,test1,2,0.5536938999866834,-38.0
6,lxy,f,19,r,2,(121.76378772032346, -121.76378772032352),28,7,3,yes,x,5,x,0.6735244999872521,1,85,test1,2,0.6736587000050349,-38.0
6,lxy,f,19,r,2,(121.76378772032349, 121.76378772032349),22,-25,14,no,m,6,m,1.0337437000125647,1,86,test1,2,1.0338474000018323,-38.0
6,lxy,f,19,r,2,(172.20000000000002, 0.0),21,5,2,no,m,6,x,0.8954995000094641,0,87,test1,2,0.8960035999916727,-38.0
6,lxy,f,19,r,2,(-3.163262682197613e-14, -172.20000000000002),27,-5,12,no,m,6,x,0.6874721999920439,0,88,test1,2,0.6875895999983186,-38.0
6,lxy,f,19,r,2,(-172.20000000000002, 2.1088417881317425e-14),25,-25,14,yes,x,5,x,0.8049469999969006,1,89,test1,2,0.8052964999951655,-70.0
6,lxy,f,19,r,2,(121.76378772032349, 121.76378772032349),22,-3,11,yes,x,5,None,None,0,90,test1,2,1.980089599994244,-48.0
6,lxy,f,19,r,2,(-121.76378772032352, -121.76378772032348),26,-5,12,no,m,6,m,0.8213980000000447,1,91,test1,2,0.8218180000112625,-48.0
6,lxy,f,19,r,2,(172.20000000000002, 0.0),21,7,3,no,m,6,m,0.9561487000028137,1,92,test1,2,0.9566092000022763,-48.0
6,lxy,f,19,r,2,(-121.76378772032348, 121.76378772032349),24,-25,14,no,m,6,m,0.7803656000032788,1,93,test1,2,0.7806570999964606,-48.0
6,lxy,f,19,r,2,(-3.163262682197613e-14, -172.20000000000002),27,-25,14,no,m,6,m,0.6265399999974761,1,94,test1,2,0.626774899996235,-48.0
6,lxy,f,19,r,2,(-121.76378772032352, -121.76378772032348),26,7,3,yes,x,5,x,0.6488172999961535,1,95,test1,2,0.6489310000033583,-38.0
6,lxy,f,19,r,2,(121.76378772032349, 121.76378772032349),22,-5,12,yes,x,5,x,0.738929699989967,1,96,test1,2,0.7396265999996103,-50.0
6,lxy,f,19,r,2,(-121.76378772032348, 121.76378772032349),24,-7,13,yes,x,5,x,0.4996934999944642,1,1,test2,2,0.5001754999975674,-52.0
6,lxy,f,19,r,2,(-121.76378772032352, -121.76378772032348),26,-25,14,yes,x,5,x,0.4654905999923358,1,2,test2,2,0.46561909999581985,-70.0
6,lxy,f,19,r,2,(-172.20000000000002, 2.1088417881317425e-14),25,3,1,yes,x,5,m,0.9150874000042677,0,3,test2,2,0.9152934000012465,-42.0
6,lxy,f,19,r,2,(172.20000000000002, 0.0),21,25,4,yes,x,5,x,0.43325560000084806,1,4,test2,2,0.43345029999909457,-20.0
6,lxy,f,19,r,2,(121.76378772032346, -121.76378772032352),28,-7,13,yes,x,5,x,0.6629816000058781,1,5,test2,2,0.6631484999961685,-52.0
6,lxy,f,19,r,2,(-121.76378772032348, 121.76378772032349),24,-5,12,yes,x,5,x,0.48169299999426585,1,6,test2,2,0.4817928000120446,-50.0
6,lxy,f,19,r,2,(1.0544208940658713e-14, 172.20000000000002),23,25,4,no,m,6,m,0.6650649999937741,1,7,test2,2,0.6651650999992853,-50.0
6,lxy,f,19,r,2,(172.20000000000002, 0.0),21,-5,12,yes,x,5,x,0.8324038999999175,1,8,test2,2,0.8330068000068422,-50.0
6,lxy,f,19,r,2,(-121.76378772032352, -121.76378772032348),26,-7,13,no,m,6,m,0.750556900005904,1,9,test2,2,0.7510946999973385,-50.0
6,lxy,f,19,r,2,(172.20000000000002, 0.0),21,-7,13,yes,x,5,x,0.6539679000125034,1,10,test2,2,0.6541732999903616,-52.0
6,lxy,f,19,r,2,(-121.76378772032348, 121.76378772032349),24,7,3,no,m,6,m,0.9081173000013223,1,11,test2,2,0.9082197999960044,-52.0
6,lxy,f,19,r,2,(172.20000000000002, 0.0),21,25,4,yes,x,5,x,0.8445944999984931,1,12,test2,2,0.8447276000079,-20.0
6,lxy,f,19,r,2,(121.76378772032346, -121.76378772032352),28,7,3,no,m,6,m,0.8489726999978302,1,13,test2,2,0.8490950999985216,-20.0
6,lxy,f,19,r,2,(-3.163262682197613e-14, -172.20000000000002),27,3,1,no,m,6,m,0.995586999997613,1,14,test2,2,0.9956872999900952,-20.0
6,lxy,f,19,r,2,(-121.76378772032348, 121.76378772032349),24,-25,14,yes,x,5,x,0.5911580999963917,1,15,test2,2,0.5912647000077413,-70.0
6,lxy,f,19,r,2,(-172.20000000000002, 2.1088417881317425e-14),25,-7,13,yes,x,5,x,0.6469087000004947,1,16,test2,2,0.6471374000102514,-52.0
6,lxy,f,19,r,2,(-121.76378772032348, 121.76378772032349),24,-7,13,no,m,6,x,1.0981452999985777,0,17,test2,2,1.0982514999923296,-52.0
6,lxy,f,19,r,2,(-121.76378772032352, -121.76378772032348),26,-25,14,no,m,6,m,0.8839324000000488,1,18,test2,2,0.8841616999998223,-52.0
6,lxy,f,19,r,2,(-121.76378772032352, -121.76378772032348),26,3,1,yes,x,5,x,0.8755775000026915,1,19,test2,2,0.875844700000016,-42.0
6,lxy,f,19,r,2,(172.20000000000002, 0.0),21,3,1,yes,x,5,m,0.8974027000076603,0,20,test2,2,0.897640399998636,-42.0
6,lxy,f,19,r,2,(121.76378772032349, 121.76378772032349),22,5,2,yes,x,5,x,0.9371099999989383,1,21,test2,2,0.9372419999999693,-40.0
6,lxy,f,19,r,2,(-121.76378772032348, 121.76378772032349),24,-5,12,yes,x,5,x,1.7682346000074176,1,22,test2,2,1.7686137999990024,-50.0
6,lxy,f,19,r,2,(-3.163262682197613e-14, -172.20000000000002),27,-3,11,no,m,6,m,0.9132354000030318,1,23,test2,2,0.9135739000048488,-50.0
6,lxy,f,19,r,2,(-172.20000000000002, 2.1088417881317425e-14),25,5,2,yes,x,5,x,0.5953869999939343,1,24,test2,2,0.595518499991158,-40.0
6,lxy,f,19,r,2,(-3.163262682197613e-14, -172.20000000000002),27,-7,13,no,m,6,m,1.2333790999982739,1,25,test2,2,1.2335419000010006,-40.0
6,lxy,f,19,r,2,(-121.76378772032348, 121.76378772032349),24,7,3,yes,x,5,x,1.014125799993053,1,26,test2,2,1.0142431999993278,-38.0
6,lxy,f,19,r,2,(-121.76378772032352, -121.76378772032348),26,-7,13,yes,x,5,x,0.5435842000006232,1,27,test2,2,0.543820400009281,-52.0
6,lxy,f,19,r,2,(121.76378772032349, 121.76378772032349),22,25,4,yes,x,5,x,0.4657073999987915,1,28,test2,2,0.46632300000055693,-20.0
6,lxy,f,19,r,2,(121.76378772032349, 121.76378772032349),22,3,1,yes,x,5,x,1.2789467000111472,1,29,test2,2,1.2791763999994146,-42.0
6,lxy,f,19,r,2,(1.0544208940658713e-14, 172.20000000000002),23,7,3,yes,x,5,x,0.6478917999920668,1,30,test2,2,0.6486323999997694,-38.0
6,lxy,f,19,r,2,(172.20000000000002, 0.0),21,-5,12,no,m,6,m,0.7348219999985304,1,31,test2,2,0.734924400007003,-38.0
6,lxy,f,19,r,2,(-121.76378772032348, 121.76378772032349),24,25,4,no,m,6,m,1.0098171999998158,1,32,test2,2,1.0102697999973316,-38.0
6,lxy,f,19,r,2,(-121.76378772032352, -121.76378772032348),26,3,1,yes,x,5,m,1.088686199989752,0,33,test2,2,1.0888202000060119,-42.0
6,lxy,f,19,r,2,(172.20000000000002, 0.0),21,-25,14,yes,x,5,m,1.0230195000040112,0,34,test2,2,1.023636700003408,-70.0
6,lxy,f,19,r,2,(-121.76378772032348, 121.76378772032349),24,-7,13,yes,x,5,x,1.0223923000012292,1,35,test2,2,1.0225310000096215,-52.0
6,lxy,f,19,r,2,(-3.163262682197613e-14, -172.20000000000002),27,-25,14,yes,x,5,x,0.3873687000013888,1,36,test2,2,0.3877747999940766,-70.0
6,lxy,f,19,r,2,(-3.163262682197613e-14, -172.20000000000002),27,-5,12,yes,x,5,x,0.706267100002151,1,37,test2,2,0.7067070000048261,-50.0
6,lxy,f,19,r,2,(121.76378772032346, -121.76378772032352),28,-7,13,yes,x,5,x,0.7935063000040827,1,38,test2,2,0.7937451000034343,-52.0
6,lxy,f,19,r,2,(-121.76378772032352, -121.76378772032348),26,-25,14,yes,x,5,m,0.6847544999909587,0,39,test2,2,0.6848538000049302,-70.0
6,lxy,f,19,r,2,(-121.76378772032348, 121.76378772032349),24,-25,14,yes,x,5,x,0.8123722000018461,1,40,test2,2,0.8124726999958511,-70.0
6,lxy,f,19,r,2,(121.76378772032349, 121.76378772032349),22,7,3,yes,x,5,m,0.9704782999906456,0,41,test2,2,0.9705812000029255,-38.0
6,lxy,f,19,r,2,(-121.76378772032352, -121.76378772032348),26,3,1,no,m,6,m,0.745487599997432,1,42,test2,2,0.7456157999986317,-38.0
6,lxy,f,19,r,2,(121.76378772032349, 121.76378772032349),22,-5,12,no,m,6,m,0.8979483000002801,1,43,test2,2,0.898048100003507,-38.0
6,lxy,f,19,r,2,(-3.163262682197613e-14, -172.20000000000002),27,3,1,yes,x,5,x,1.1017438999988372,1,44,test2,2,1.1021746000042185,-42.0
6,lxy,f,19,r,2,(121.76378772032346, -121.76378772032352),28,25,4,yes,x,5,x,1.3286118999967584,1,45,test2,2,1.3290545000054408,-20.0
6,lxy,f,19,r,2,(-3.163262682197613e-14, -172.20000000000002),27,7,3,yes,x,5,x,0.5201996999967378,1,46,test2,2,0.5206569000001764,-38.0
6,lxy,f,19,r,2,(-121.76378772032352, -121.76378772032348),26,5,2,yes,x,5,x,0.6338893999927677,1,47,test2,2,0.6344441000110237,-40.0
6,lxy,f,19,r,2,(-3.163262682197613e-14, -172.20000000000002),27,-7,13,yes,x,5,x,0.4743845000048168,1,48,test2,2,0.4745834999921499,-52.0
6,lxy,f,19,r,2,(121.76378772032349, 121.76378772032349),22,25,4,yes,x,5,x,0.49155180000525434,1,49,test2,2,0.4919153999944683,-20.0
6,lxy,f,19,r,2,(-172.20000000000002, 2.1088417881317425e-14),25,-5,12,yes,x,5,x,0.5577379000023939,1,50,test2,2,0.5580823000054806,-50.0
6,lxy,f,19,r,2,(172.20000000000002, 0.0),21,3,1,yes,x,5,m,1.0884838000056334,0,51,test2,2,1.0886525000096299,-42.0
6,lxy,f,19,r,2,(-172.20000000000002, 2.1088417881317425e-14),25,-5,12,no,m,6,x,0.7478753000032157,0,52,test2,2,0.7481977999996161,-42.0
6,lxy,f,19,r,2,(121.76378772032346, -121.76378772032352),28,-25,14,yes,x,5,x,0.9522615000023507,1,53,test2,2,0.9524053999921307,-70.0
6,lxy,f,19,r,2,(121.76378772032349, 121.76378772032349),22,5,2,yes,x,5,x,0.7407022999977926,1,54,test2,2,0.7412957999913488,-40.0
6,lxy,f,19,r,2,(121.76378772032349, 121.76378772032349),22,25,4,no,m,6,x,0.49323709998861887,0,55,test2,2,0.4935949999926379,-40.0
6,lxy,f,19,r,2,(121.76378772032346, -121.76378772032352),28,-5,12,yes,x,5,m,1.4434668000030797,0,56,test2,2,1.4436798000097042,-50.0
6,lxy,f,19,r,2,(121.76378772032346, -121.76378772032352),28,-3,11,no,m,6,x,0.7985587000002852,0,57,test2,2,0.7986624999903142,-50.0
6,lxy,f,19,r,2,(-121.76378772032352, -121.76378772032348),26,-5,12,yes,x,5,x,0.5683118000015384,1,58,test2,2,0.5684429999964777,-50.0
6,lxy,f,19,r,2,(-3.163262682197613e-14, -172.20000000000002),27,-3,11,yes,x,5,x,1.0731925000000047,1,59,test2,2,1.0735851000063121,-48.0
6,lxy,f,19,r,2,(121.76378772032346, -121.76378772032352),28,-25,14,no,m,6,m,0.9510653000033926,1,60,test2,2,0.9511664000019664,-48.0
6,lxy,f,19,r,2,(1.0544208940658713e-14, 172.20000000000002),23,-3,11,yes,x,5,x,1.1507885000028182,1,61,test2,2,1.1509044999984326,-48.0
6,lxy,f,19,r,2,(121.76378772032346, -121.76378772032352),28,-5,12,yes,x,5,x,0.6903211000026204,1,62,test2,2,0.6904351999983191,-50.0
6,lxy,f,19,r,2,(-121.76378772032352, -121.76378772032348),26,25,4,yes,x,5,x,0.7252363000006881,1,63,test2,2,0.7254671000118833,-20.0
6,lxy,f,19,r,2,(121.76378772032349, 121.76378772032349),22,-7,13,yes,x,5,x,1.051324800006114,1,64,test2,2,1.0514267000107793,-52.0
6,lxy,f,19,r,2,(1.0544208940658713e-14, 172.20000000000002),23,-7,13,yes,x,5,x,0.537097000007634,1,65,test2,2,0.5372391000128118,-52.0
6,lxy,f,19,r,2,(-3.163262682197613e-14, -172.20000000000002),27,-5,12,yes,x,5,x,0.5696976999897743,1,66,test2,2,0.5699392999958945,-50.0
6,lxy,f,19,r,2,(1.0544208940658713e-14, 172.20000000000002),23,7,3,yes,x,5,x,0.6224877000058768,1,67,test2,2,0.6227485999988858,-38.0
6,lxy,f,19,r,2,(121.76378772032349, 121.76378772032349),22,5,2,no,m,6,m,0.6868658000021242,1,68,test2,2,0.6871025999862468,-38.0
6,lxy,f,19,r,2,(-121.76378772032352, -121.76378772032348),26,7,3,no,m,6,m,0.7369176999927731,1,69,test2,2,0.7373125000012806,-38.0
6,lxy,f,19,r,2,(1.0544208940658713e-14, 172.20000000000002),23,-7,13,no,m,6,m,0.7827844000130426,1,70,test2,2,0.78307049999421,-38.0
6,lxy,f,19,r,2,(121.76378772032349, 121.76378772032349),22,-5,12,yes,x,5,x,0.6322834000020521,1,71,test2,2,0.632583300000988,-50.0
6,lxy,f,19,r,2,(-172.20000000000002, 2.1088417881317425e-14),25,-3,11,no,m,6,m,0.8535836000082782,1,72,test2,2,0.8540260999870952,-50.0
6,lxy,f,19,r,2,(172.20000000000002, 0.0),21,-3,11,yes,x,5,x,0.5270257999945898,1,73,test2,2,0.5273283999995328,-48.0
6,lxy,f,19,r,2,(-3.163262682197613e-14, -172.20000000000002),27,25,4,no,m,6,m,1.2758086999965599,1,74,test2,2,1.2760170999972615,-48.0
6,lxy,f,19,r,2,(-121.76378772032348, 121.76378772032349),24,25,4,yes,x,5,x,0.5929134000034537,1,75,test2,2,0.5932949000125518,-20.0
6,lxy,f,19,r,2,(-172.20000000000002, 2.1088417881317425e-14),25,7,3,no,m,6,m,0.7689832000032766,1,76,test2,2,0.7690902000031201,-20.0
6,lxy,f,19,r,2,(-172.20000000000002, 2.1088417881317425e-14),25,25,4,no,m,6,m,0.6980655000079423,1,77,test2,2,0.6981682000041474,-20.0
6,lxy,f,19,r,2,(121.76378772032349, 121.76378772032349),22,-3,11,no,m,6,m,1.1845698000106495,1,78,test2,2,1.1846968000027118,-20.0
6,lxy,f,19,r,2,(121.76378772032346, -121.76378772032352),28,-3,11,yes,x,5,x,1.5597470000066096,1,79,test2,2,1.559845600000699,-48.0
6,lxy,f,19,r,2,(-3.163262682197613e-14, -172.20000000000002),27,3,1,yes,x,5,m,1.3295122999988962,0,80,test2,2,1.3297658000083175,-42.0
6,lxy,f,19,r,2,(-3.163262682197613e-14, -172.20000000000002),27,25,4,yes,x,5,x,0.5667928999901051,1,81,test2,2,0.5669178000098327,-20.0
6,lxy,f,19,r,2,(-121.76378772032348, 121.76378772032349),24,-3,11,yes,x,5,m,0.8650581999972928,0,82,test2,2,0.8652892999962205,-48.0
6,lxy,f,19,r,2,(172.20000000000002, 0.0),21,-7,13,yes,x,5,x,0.7453074999939417,1,83,test2,2,0.7454289000015706,-52.0
6,lxy,f,19,r,2,(-121.76378772032348, 121.76378772032349),24,3,1,yes,x,5,x,0.8278634000016609,1,84,test2,2,0.8279836000001524,-42.0
6,lxy,f,19,r,2,(-121.76378772032348, 121.76378772032349),24,5,2,no,m,6,m,0.7668350000021746,1,85,test2,2,0.7669520000054035,-42.0
6,lxy,f,19,r,2,(-3.163262682197613e-14, -172.20000000000002),27,5,2,yes,x,5,m,1.243454900002689,0,86,test2,2,1.2437402000068687,-40.0
6,lxy,f,19,r,2,(-121.76378772032352, -121.76378772032348),26,-5,12,yes,x,5,x,1.0140872000047239,1,87,test2,2,1.0142533999896841,-50.0
6,lxy,f,19,r,2,(-121.76378772032348, 121.76378772032349),24,5,2,yes,x,5,x,0.6030125999968732,1,88,test2,2,0.6033024999924237,-40.0
6,lxy,f,19,r,2,(-172.20000000000002, 2.1088417881317425e-14),25,5,2,no,m,6,x,0.6413579000072787,0,89,test2,2,0.6415178999886848,-40.0
6,lxy,f,19,r,2,(-121.76378772032352, -121.76378772032348),26,-3,11,yes,x,5,m,0.9305263000132982,0,90,test2,2,0.9306429999996908,-48.0
6,lxy,f,19,r,2,(1.0544208940658713e-14, 172.20000000000002),23,-5,12,yes,x,5,x,0.7636268999922322,1,91,test2,2,0.7641925999923842,-50.0
6,lxy,f,19,r,2,(121.76378772032346, -121.76378772032352),28,3,1,yes,x,5,m,1.2326601999957347,0,92,test2,2,1.232783700004802,-42.0
6,lxy,f,19,r,2,(172.20000000000002, 0.0),21,-7,13,no,m,6,x,1.110105299987481,0,93,test2,2,1.1102054999937536,-42.0
6,lxy,f,19,r,2,(172.20000000000002, 0.0),21,-25,14,no,m,6,m,1.01726389999385,1,94,test2,2,1.0176090000022668,-42.0
6,lxy,f,19,r,2,(1.0544208940658713e-14, 172.20000000000002),23,3,1,no,m,6,m,1.2010966999951052,1,95,test2,2,1.2012257000023965,-42.0
6,lxy,f,19,r,2,(121.76378772032346, -121.76378772032352),28,25,4,yes,x,5,x,0.7221841999999015,1,96,test2,2,0.7224639999913052,-20.0
6,lxy,f,19,r,2,(121.76378772032349, 121.76378772032349),22,3,1,no,m,6,m,0.9937729999946896,1,1,test1,3,0.9939293999923393,-20.0
6,lxy,f,19,r,2,(-121.76378772032352, -121.76378772032348),26,5,2,yes,x,5,x,0.5395748000009917,1,2,test1,3,0.5396732000081101,-40.0
6,lxy,f,19,r,2,(121.76378772032349, 121.76378772032349),22,3,1,yes,x,5,m,0.8331412999978056,0,3,test1,3,0.833512500001234,-42.0
6,lxy,f,19,r,2,(1.0544208940658713e-14, 172.20000000000002),23,25,4,yes,x,5,x,0.5749488000001293,1,4,test1,3,0.5752429999993183,-20.0
6,lxy,f,19,r,2,(-172.20000000000002, 2.1088417881317425e-14),25,25,4,yes,x,5,x,1.3330750000022817,1,5,test1,3,1.3337537000043085,-20.0
6,lxy,f,19,r,2,(121.76378772032346, -121.76378772032352),28,-25,14,yes,x,5,x,0.513105700010783,1,6,test1,3,0.513317700009793,-70.0
6,lxy,f,19,r,2,(-172.20000000000002, 2.1088417881317425e-14),25,-7,13,no,m,6,m,0.7832106999994721,1,7,test1,3,0.7834602999937488,-70.0
6,lxy,f,19,r,2,(121.76378772032346, -121.76378772032352),28,25,4,no,m,6,x,0.4315086999995401,0,8,test1,3,0.4321705999900587,-70.0
6,lxy,f,19,r,2,(121.76378772032346, -121.76378772032352),28,3,1,no,m,6,m,1.1767714000015985,1,9,test1,3,1.1770132999954512,-70.0
6,lxy,f,19,r,2,(121.76378772032346, -121.76378772032352),28,-3,11,yes,x,5,x,0.8983709999884013,1,10,test1,3,0.8985453999921447,-48.0
6,lxy,f,19,r,2,(-121.76378772032352, -121.76378772032348),26,-3,11,yes,x,5,x,0.6030748000048334,1,11,test1,3,0.603205599996727,-48.0
6,lxy,f,19,r,2,(-121.76378772032352, -121.76378772032348),26,5,2,no,m,6,m,1.448901299998397,1,12,test1,3,1.4491886000032537,-48.0
6,lxy,f,19,r,2,(1.0544208940658713e-14, 172.20000000000002),23,5,2,yes,x,5,x,1.2992819999926724,1,13,test1,3,1.2993838000111282,-40.0
6,lxy,f,19,r,2,(-121.76378772032348, 121.76378772032349),24,3,1,yes,x,5,m,1.0358114999980899,0,14,test1,3,1.0359331999934511,-42.0
6,lxy,f,19,r,2,(1.0544208940658713e-14, 172.20000000000002),23,7,3,no,m,6,x,0.09337859999504872,0,15,test1,3,0.09359299999778159,-42.0
6,lxy,f,19,r,2,(-121.76378772032348, 121.76378772032349),24,3,1,no,m,6,None,None,0,16,test1,3,1.9800841999967815,-42.0
6,lxy,f,19,r,2,(172.20000000000002, 0.0),21,25,4,no,m,6,m,0.8492966000048909,1,17,test1,3,0.8496802000008756,-42.0
6,lxy,f,19,r,2,(-3.163262682197613e-14, -172.20000000000002),27,7,3,yes,x,5,x,0.6123471999890171,1,18,test1,3,0.6124795999930939,-38.0
6,lxy,f,19,r,2,(-172.20000000000002, 2.1088417881317425e-14),25,25,4,yes,x,5,x,0.4901400999951875,1,19,test1,3,0.49046059999091085,-20.0
6,lxy,f,19,r,2,(172.20000000000002, 0.0),21,7,3,yes,x,5,x,0.7623402000026545,1,20,test1,3,0.7624389999982668,-38.0
6,lxy,f,19,r,2,(-121.76378772032352, -121.76378772032348),26,-7,13,yes,x,5,m,1.2721844000043347,0,21,test1,3,1.2723181000037584,-52.0
6,lxy,f,19,r,2,(172.20000000000002, 0.0),21,-5,12,yes,x,5,m,1.4267345999978716,0,22,test1,3,1.4268606999976328,-50.0
6,lxy,f,19,r,2,(-3.163262682197613e-14, -172.20000000000002),27,-25,14,yes,x,5,x,0.5509013999981107,1,23,test1,3,0.551293299999088,-70.0
6,lxy,f,19,r,2,(121.76378772032349, 121.76378772032349),22,-25,14,yes,x,5,m,1.3730478000070434,0,24,test1,3,1.3732828999927733,-70.0
6,lxy,f,19,r,2,(172.20000000000002, 0.0),21,-3,11,no,m,6,m,0.9928046999993967,1,25,test1,3,0.9930156999907922,-70.0
6,lxy,f,19,r,2,(1.0544208940658713e-14, 172.20000000000002),23,-25,14,yes,x,5,x,1.0557340999948792,1,26,test1,3,1.0558335999958217,-70.0
6,lxy,f,19,r,2,(-121.76378772032352, -121.76378772032348),26,25,4,no,m,6,m,0.8408809000102337,1,27,test1,3,0.8410509999957867,-70.0
6,lxy,f,19,r,2,(121.76378772032349, 121.76378772032349),22,7,3,yes,x,5,x,1.1230893000029027,1,28,test1,3,1.123542199988151,-38.0
6,lxy,f,19,r,2,(172.20000000000002, 0.0),21,3,1,no,m,6,m,1.07359319999523,1,29,test1,3,1.0736970000143629,-38.0
6,lxy,f,19,r,2,(-3.163262682197613e-14, -172.20000000000002),27,-3,11,yes,x,5,x,0.9293000999896321,1,30,test1,3,0.9296061999921221,-48.0
6,lxy,f,19,r,2,(-172.20000000000002, 2.1088417881317425e-14),25,7,3,yes,x,5,x,0.5904343000001973,1,31,test1,3,0.5910927999939304,-38.0
6,lxy,f,19,r,2,(-3.163262682197613e-14, -172.20000000000002),27,5,2,no,m,6,m,0.7236559000011766,1,32,test1,3,0.7237592000019504,-38.0
6,lxy,f,19,r,2,(172.20000000000002, 0.0),21,-25,14,yes,x,5,x,0.43314470000041183,1,33,test1,3,0.43349290000332985,-70.0
6,lxy,f,19,r,2,(-121.76378772032352, -121.76378772032348),26,7,3,yes,x,5,x,0.7282315000047674,1,34,test1,3,0.7288540000008652,-38.0
6,lxy,f,19,r,2,(-3.163262682197613e-14, -172.20000000000002),27,25,4,yes,x,5,x,0.5765512000070885,1,35,test1,3,0.5767494000028819,-20.0
6,lxy,f,19,r,2,(121.76378772032346, -121.76378772032352),28,5,2,yes,x,5,x,0.9404202999867266,1,36,test1,3,0.9406491999980062,-40.0
6,lxy,f,19,r,2,(-121.76378772032348, 121.76378772032349),24,7,3,yes,x,5,m,0.8401594000024488,0,37,test1,3,0.8406591000093613,-38.0
6,lxy,f,19,r,2,(1.0544208940658713e-14, 172.20000000000002),23,5,2,no,m,6,m,1.2320110000000568,1,38,test1,3,1.232114400001592,-38.0
6,lxy,f,19,r,2,(-172.20000000000002, 2.1088417881317425e-14),25,-25,14,no,m,6,x,0.6536799999885261,0,39,test1,3,0.6538137000025017,-38.0
6,lxy,f,19,r,2,(-172.20000000000002, 2.1088417881317425e-14),25,-25,14,yes,x,5,x,0.40164449998701457,1,40,test1,3,0.4018840999924578,-70.0
6,lxy,f,19,r,2,(1.0544208940658713e-14, 172.20000000000002),23,-5,12,yes,x,5,x,0.8327609999978449,1,41,test1,3,0.8329030000022613,-50.0
6,lxy,f,19,r,2,(-172.20000000000002, 2.1088417881317425e-14),25,-5,12,yes,x,5,x,0.673710500006564,1,42,test1,3,0.6738050999992993,-50.0
6,lxy,f,19,r,2,(121.76378772032349, 121.76378772032349),22,-7,13,yes,x,5,x,0.8135862999915844,1,43,test1,3,0.8139641000016127,-52.0
6,lxy,f,19,r,2,(-3.163262682197613e-14, -172.20000000000002),27,7,3,no,m,6,None,None,0,44,test1,3,1.980091799996444,-52.0
6,lxy,f,19,r,2,(121.76378772032349, 121.76378772032349),22,-3,11,yes,x,5,m,0.7208603999897605,0,45,test1,3,0.721409699996002,-48.0
6,lxy,f,19,r,2,(1.0544208940658713e-14, 172.20000000000002),23,25,4,yes,x,5,x,0.5102182999980869,1,46,test1,3,0.5106857000064338,-20.0
6,lxy,f,19,r,2,(-121.76378772032348, 121.76378772032349),24,-3,11,no,m,6,m,1.3015006999921752,1,47,test1,3,1.302174800002831,-20.0
6,lxy,f,19,r,2,(-172.20000000000002, 2.1088417881317425e-14),25,-3,11,yes,x,5,m,1.7139791999943554,0,48,test1,3,1.7141448000038508,-48.0
6,lxy,f,19,r,2,(1.0544208940658713e-14, 172.20000000000002),23,3,1,yes,x,5,x,1.392882100000861,1,49,test1,3,1.3929811999987578,-42.0
6,lxy,f,19,r,2,(172.20000000000002, 0.0),21,5,2,yes,x,5,m,1.784776900007273,0,50,test1,3,1.7848748999967938,-40.0
6,lxy,f,19,r,2,(-172.20000000000002, 2.1088417881317425e-14),25,3,1,no,m,6,None,None,0,51,test1,3,1.9801023000036366,-40.0
6,lxy,f,19,r,2,(-121.76378772032348, 121.76378772032349),24,25,4,yes,x,5,x,0.5892086999956518,1,52,test1,3,0.5894176000001607,-20.0
6,lxy,f,19,r,2,(121.76378772032346, -121.76378772032352),28,3,1,yes,x,5,x,1.0406780999910552,1,53,test1,3,1.0413453999935882,-42.0
6,lxy,f,19,r,2,(172.20000000000002, 0.0),21,5,2,yes,x,5,x,0.8592438999912702,1,54,test1,3,0.859385600007954,-40.0
6,lxy,f,19,r,2,(121.76378772032349, 121.76378772032349),22,-7,13,no,m,6,x,1.006596500010346,0,55,test1,3,1.0069681000022683,-40.0
6,lxy,f,19,r,2,(121.76378772032346, -121.76378772032352),28,5,2,no,m,6,m,1.3468350000039209,1,56,test1,3,1.347036199993454,-40.0
6,lxy,f,19,r,2,(1.0544208940658713e-14, 172.20000000000002),23,-3,11,no,m,6,x,0.9779161999904318,0,57,test1,3,0.9782552999968175,-40.0
6,lxy,f,19,r,2,(-121.76378772032348, 121.76378772032349),24,-3,11,yes,x,5,m,1.2729495000094175,0,58,test1,3,1.2730477000004612,-48.0
6,lxy,f,19,r,2,(121.76378772032346, -121.76378772032352),28,-7,13,no,m,6,m,1.4646685000043362,1,59,test1,3,1.4648158999916632,-48.0
6,lxy,f,19,r,2,(1.0544208940658713e-14, 172.20000000000002),23,5,2,yes,x,5,x,1.4301631999987876,1,60,test1,3,1.430260699999053,-40.0
6,lxy,f,19,r,2,(-172.20000000000002, 2.1088417881317425e-14),25,3,1,yes,x,5,x,1.4357697000086773,1,61,test1,3,1.4360409999935655,-42.0
6,lxy,f,19,r,2,(-121.76378772032352, -121.76378772032348),26,25,4,yes,x,5,x,0.5174113999964902,1,62,test1,3,0.5175461000035284,-20.0
6,lxy,f,19,r,2,(-172.20000000000002, 2.1088417881317425e-14),25,7,3,yes,x,5,x,0.546401200001128,1,63,test1,3,0.5465031999920029,-38.0
6,lxy,f,19,r,2,(-3.163262682197613e-14, -172.20000000000002),27,5,2,yes,x,5,x,0.5269219999900088,1,64,test1,3,0.5270469000097364,-40.0
6,lxy,f,19,r,2,(-121.76378772032348, 121.76378772032349),24,-5,12,no,m,6,m,0.8598526999994647,1,65,test1,3,0.8600873999967007,-40.0
6,lxy,f,19,r,2,(121.76378772032349, 121.76378772032349),22,7,3,no,m,6,x,0.7426417999959085,0,66,test1,3,0.7427438000013353,-40.0
6,lxy,f,19,r,2,(1.0544208940658713e-14, 172.20000000000002),23,-7,13,yes,x,5,x,1.2388150000042515,1,67,test1,3,1.2390063000057125,-52.0
6,lxy,f,19,r,2,(1.0544208940658713e-14, 172.20000000000002),23,-25,14,yes,x,5,x,0.6329572000104235,1,68,test1,3,0.6330560000060359,-70.0
6,lxy,f,19,r,2,(121.76378772032346, -121.76378772032352),28,5,2,yes,x,5,m,0.8865691999963019,0,69,test1,3,0.8866678000049433,-40.0
6,lxy,f,19,r,2,(1.0544208940658713e-14, 172.20000000000002),23,-3,11,yes,x,5,x,0.6605290000006789,1,70,test1,3,0.660951700003352,-48.0
6,lxy,f,19,r,2,(-3.163262682197613e-14, -172.20000000000002),27,-7,13,yes,x,5,x,0.5977658999909181,1,71,test1,3,0.5980432999931509,-52.0
6,lxy,f,19,r,2,(121.76378772032346, -121.76378772032352),28,-5,12,no,m,6,x,0.9309146000014152,0,72,test1,3,0.9312133999919752,-52.0
6,lxy,f,19,r,2,(-172.20000000000002, 2.1088417881317425e-14),25,5,2,yes,x,5,x,0.6117267999943579,1,73,test1,3,0.6118270000006305,-40.0
6,lxy,f,19,r,2,(121.76378772032349, 121.76378772032349),22,-25,14,yes,x,5,x,0.551993200002471,1,74,test1,3,0.5522817000019131,-70.0
6,lxy,f,19,r,2,(1.0544208940658713e-14, 172.20000000000002),23,3,1,yes,x,5,x,0.774663900010637,1,75,test1,3,0.7752573999896413,-42.0
6,lxy,f,19,r,2,(172.20000000000002, 0.0),21,-3,11,yes,x,5,m,0.7010784000012791,0,76,test1,3,0.70123859999876,-48.0
6,lxy,f,19,r,2,(1.0544208940658713e-14, 172.20000000000002),23,-5,12,no,m,6,m,0.8660881999967387,1,77,test1,3,0.8664642999938224,-48.0
6,lxy,f,19,r,2,(-172.20000000000002, 2.1088417881317425e-14),25,-7,13,yes,x,5,x,0.5244659999880241,1,78,test1,3,0.5245623999944655,-52.0
6,lxy,f,19,r,2,(1.0544208940658713e-14, 172.20000000000002),23,-25,14,no,m,6,m,0.8329561999998987,1,79,test1,3,0.8331590000016149,-52.0
6,lxy,f,19,r,2,(-121.76378772032352, -121.76378772032348),26,-3,11,no,m,6,x,0.8252621999999974,0,80,test1,3,0.8253967000055127,-52.0
6,lxy,f,19,r,2,(-172.20000000000002, 2.1088417881317425e-14),25,-3,11,yes,x,5,m,1.2549194000021089,0,81,test1,3,1.2550235000089742,-48.0
6,lxy,f,19,r,2,(-121.76378772032348, 121.76378772032349),24,5,2,yes,x,5,x,0.7428795000014361,1,82,test1,3,0.7433657000074163,-40.0
6,lxy,f,19,r,2,(172.20000000000002, 0.0),21,7,3,yes,x,5,x,0.5654270999948494,1,83,test1,3,0.5655484000017168,-38.0
6,lxy,f,19,r,2,(121.76378772032346, -121.76378772032352),28,7,3,yes,x,5,m,1.2071741999970982,0,84,test1,3,1.2077700000081677,-38.0
6,lxy,f,19,r,2,(121.76378772032346, -121.76378772032352),28,7,3,yes,x,5,x,0.7825473999982933,1,85,test1,3,0.7829089000006206,-38.0
6,lxy,f,19,r,2,(121.76378772032349, 121.76378772032349),22,-25,14,no,m,6,x,0.8845785999874352,0,86,test1,3,0.8849495000031311,-38.0
6,lxy,f,19,r,2,(172.20000000000002, 0.0),21,5,2,no,m,6,x,1.0269693000009283,0,87,test1,3,1.0270927999954438,-38.0
6,lxy,f,19,r,2,(-3.163262682197613e-14, -172.20000000000002),27,-5,12,no,m,6,None,None,0,88,test1,3,1.9800813000038033,-38.0
6,lxy,f,19,r,2,(-172.20000000000002, 2.1088417881317425e-14),25,-25,14,yes,x,5,x,0.7003336000052514,1,89,test1,3,0.7008142999984557,-70.0
6,lxy,f,19,r,2,(121.76378772032349, 121.76378772032349),22,-3,11,yes,x,5,x,1.062082599994028,1,90,test1,3,1.0626583999983268,-48.0
6,lxy,f,19,r,2,(-121.76378772032352, -121.76378772032348),26,-5,12,no,m,6,m,0.8061789999919711,1,91,test1,3,0.8063340999942739,-48.0
6,lxy,f,19,r,2,(172.20000000000002, 0.0),21,7,3,no,m,6,m,0.8135272999934386,1,92,test1,3,0.8139014999906067,-48.0
6,lxy,f,19,r,2,(-121.76378772032348, 121.76378772032349),24,-25,14,no,m,6,x,1.1079349999927217,0,93,test1,3,1.1083894000039436,-48.0
6,lxy,f,19,r,2,(-3.163262682197613e-14, -172.20000000000002),27,-25,14,no,m,6,x,1.2667363999935333,0,94,test1,3,1.2670218999992358,-48.0
6,lxy,f,19,r,2,(-121.76378772032352, -121.76378772032348),26,7,3,yes,x,5,x,0.753691500009154,1,95,test1,3,0.7538219999987632,-38.0
6,lxy,f,19,r,2,(121.76378772032349, 121.76378772032349),22,-5,12,yes,x,5,m,1.0938001000031363,0,96,test1,3,1.0939018999924883,-50.0
6,lxy,f,19,r,2,(-121.76378772032348, 121.76378772032349),24,-7,13,yes,x,5,x,0.4847418999997899,1,1,test2,3,0.48490170000877697,-52.0
6,lxy,f,19,r,2,(-121.76378772032352, -121.76378772032348),26,-25,14,yes,x,5,x,0.41444760000740644,1,2,test2,3,0.41476269999111537,-70.0
6,lxy,f,19,r,2,(-172.20000000000002, 2.1088417881317425e-14),25,3,1,yes,x,5,m,0.7965057999972487,0,3,test2,3,0.7966441000025952,-42.0
6,lxy,f,19,r,2,(172.20000000000002, 0.0),21,25,4,yes,x,5,x,0.40539060000446625,1,4,test2,3,0.40574639999249484,-20.0
6,lxy,f,19,r,2,(121.76378772032346, -121.76378772032352),28,-7,13,yes,x,5,x,0.6362081999977818,1,5,test2,3,0.6365817000041716,-52.0
6,lxy,f,19,r,2,(-121.76378772032348, 121.76378772032349),24,-5,12,yes,x,5,x,0.8783717000042088,1,6,test2,3,0.8785004000092158,-50.0
6,lxy,f,19,r,2,(1.0544208940658713e-14, 172.20000000000002),23,25,4,no,m,6,m,0.9262075000006007,1,7,test2,3,0.9264632999984315,-50.0
6,lxy,f,19,r,2,(172.20000000000002, 0.0),21,-5,12,yes,x,5,x,0.7424504999944475,1,8,test2,3,0.7426186000084272,-50.0
6,lxy,f,19,r,2,(-121.76378772032352, -121.76378772032348),26,-7,13,no,m,6,m,0.7166448000061791,1,9,test2,3,0.7169837999972515,-50.0
6,lxy,f,19,r,2,(172.20000000000002, 0.0),21,-7,13,yes,x,5,x,0.5135117000027094,1,10,test2,3,0.5136201999994228,-52.0
6,lxy,f,19,r,2,(-121.76378772032348, 121.76378772032349),24,7,3,no,m,6,m,0.8527052000135882,1,11,test2,3,0.8533308999903966,-52.0
6,lxy,f,19,r,2,(172.20000000000002, 0.0),21,25,4,yes,x,5,x,0.4742605000064941,1,12,test2,3,0.47454880000441335,-20.0
6,lxy,f,19,r,2,(121.76378772032346, -121.76378772032352),28,7,3,no,m,6,m,0.8721939999959432,1,13,test2,3,0.8723663999990094,-20.0
6,lxy,f,19,r,2,(-3.163262682197613e-14, -172.20000000000002),27,3,1,no,m,6,m,0.958798099993146,1,14,test2,3,0.9591179999988526,-20.0
6,lxy,f,19,r,2,(-121.76378772032348, 121.76378772032349),24,-25,14,yes,x,5,x,0.6226825999910943,1,15,test2,3,0.6229220000095665,-70.0
6,lxy,f,19,r,2,(-172.20000000000002, 2.1088417881317425e-14),25,-7,13,yes,x,5,x,0.5509749000048032,1,16,test2,3,0.5511876000091434,-52.0
6,lxy,f,19,r,2,(-121.76378772032348, 121.76378772032349),24,-7,13,no,m,6,x,0.8786909000045853,0,17,test2,3,0.878808499997831,-52.0
6,lxy,f,19,r,2,(-121.76378772032352, -121.76378772032348),26,-25,14,no,m,6,m,0.781692300006398,1,18,test2,3,0.7818086000042967,-52.0
6,lxy,f,19,r,2,(-121.76378772032352, -121.76378772032348),26,3,1,yes,x,5,x,0.4993739000055939,1,19,test2,3,0.49954109999816865,-42.0
6,lxy,f,19,r,2,(172.20000000000002, 0.0),21,3,1,yes,x,5,x,0.4383135999960359,1,20,test2,3,0.43856169999344274,-42.0
6,lxy,f,19,r,2,(121.76378772032349, 121.76378772032349),22,5,2,yes,x,5,x,0.5126333000080194,1,21,test2,3,0.5127340000035474,-40.0
6,lxy,f,19,r,2,(-121.76378772032348, 121.76378772032349),24,-5,12,yes,x,5,x,0.770687900003395,1,22,test2,3,0.7707880999951158,-50.0
6,lxy,f,19,r,2,(-3.163262682197613e-14, -172.20000000000002),27,-3,11,no,m,6,x,0.7590624000004027,0,23,test2,3,0.7591783999960171,-50.0
6,lxy,f,19,r,2,(-172.20000000000002, 2.1088417881317425e-14),25,5,2,yes,x,5,x,0.7341499999893131,1,24,test2,3,0.7342788000096334,-40.0
6,lxy,f,19,r,2,(-3.163262682197613e-14, -172.20000000000002),27,-7,13,no,m,6,m,0.710673499997938,1,25,test2,3,0.7111934999993537,-40.0
6,lxy,f,19,r,2,(-121.76378772032348, 121.76378772032349),24,7,3,yes,x,5,x,0.4958518999919761,1,26,test2,3,0.49595229999977164,-38.0
6,lxy,f,19,r,2,(-121.76378772032352, -121.76378772032348),26,-7,13,yes,x,5,x,0.4870210999943083,1,27,test2,3,0.48724099999526516,-52.0
6,lxy,f,19,r,2,(121.76378772032349, 121.76378772032349),22,25,4,yes,x,5,x,0.4855379000073299,1,28,test2,3,0.48579269999754615,-20.0
6,lxy,f,19,r,2,(121.76378772032349, 121.76378772032349),22,3,1,yes,x,5,m,0.6522284999955446,0,29,test2,3,0.6524429999990389,-42.0
6,lxy,f,19,r,2,(1.0544208940658713e-14, 172.20000000000002),23,7,3,yes,x,5,x,0.6255782999942312,1,30,test2,3,0.6258264000061899,-38.0
6,lxy,f,19,r,2,(172.20000000000002, 0.0),21,-5,12,no,m,6,x,0.7685711000085576,0,31,test2,3,0.7689774999889778,-38.0
6,lxy,f,19,r,2,(-121.76378772032348, 121.76378772032349),24,25,4,no,m,6,m,1.0759973999956856,1,32,test2,3,1.07620969999698,-38.0
6,lxy,f,19,r,2,(-121.76378772032352, -121.76378772032348),26,3,1,yes,x,5,x,0.8310019999917131,1,33,test2,3,0.8312884000042686,-42.0
6,lxy,f,19,r,2,(172.20000000000002, 0.0),21,-25,14,yes,x,5,x,0.7233968999935314,1,34,test2,3,0.7234984000097029,-70.0
6,lxy,f,19,r,2,(-121.76378772032348, 121.76378772032349),24,-7,13,yes,x,5,m,1.214680999997654,0,35,test2,3,1.2152408999972977,-52.0
6,lxy,f,19,r,2,(-3.163262682197613e-14, -172.20000000000002),27,-25,14,yes,x,5,x,0.5251577000017278,1,36,test2,3,0.5252650000038557,-70.0
6,lxy,f,19,r,2,(-3.163262682197613e-14, -172.20000000000002),27,-5,12,yes,x,5,x,0.6450208000023849,1,37,test2,3,0.6452206999965711,-50.0
6,lxy,f,19,r,2,(121.76378772032346, -121.76378772032352),28,-7,13,yes,x,5,x,0.5983928000059677,1,38,test2,3,0.5987366999906953,-52.0
6,lxy,f,19,r,2,(-121.76378772032352, -121.76378772032348),26,-25,14,yes,x,5,x,0.47276269999565557,1,39,test2,3,0.47297240000625607,-70.0
6,lxy,f,19,r,2,(-121.76378772032348, 121.76378772032349),24,-25,14,yes,x,5,x,0.7417860999994446,1,40,test2,3,0.7420279999932973,-70.0
6,lxy,f,19,r,2,(121.76378772032349, 121.76378772032349),22,7,3,yes,x,5,x,0.9029161000071326,1,41,test2,3,0.9030406999954721,-38.0
6,lxy,f,19,r,2,(-121.76378772032352, -121.76378772032348),26,3,1,no,m,6,x,1.5858025000052294,0,42,test2,3,1.5860667000088142,-38.0
6,lxy,f,19,r,2,(121.76378772032349, 121.76378772032349),22,-5,12,no,m,6,m,0.9310887999890838,1,43,test2,3,0.931268899992574,-38.0
6,lxy,f,19,r,2,(-3.163262682197613e-14, -172.20000000000002),27,3,1,yes,x,5,x,0.9401751999976113,1,44,test2,3,0.9404183000006014,-42.0
6,lxy,f,19,r,2,(121.76378772032346, -121.76378772032352),28,25,4,yes,x,5,x,0.5123003000044264,1,45,test2,3,0.5127959999954328,-20.0
6,lxy,f,19,r,2,(-3.163262682197613e-14, -172.20000000000002),27,7,3,yes,x,5,x,0.48878030000196304,1,46,test2,3,0.4890171000006376,-38.0
6,lxy,f,19,r,2,(-121.76378772032352, -121.76378772032348),26,5,2,yes,x,5,x,0.5600399000104517,1,47,test2,3,0.560235000011744,-40.0
6,lxy,f,19,r,2,(-3.163262682197613e-14, -172.20000000000002),27,-7,13,yes,x,5,x,0.977354300004663,1,48,test2,3,0.977678700000979,-52.0
6,lxy,f,19,r,2,(121.76378772032349, 121.76378772032349),22,25,4,yes,x,5,x,1.0007555000047432,1,49,test2,3,1.0014167000044836,-20.0
6,lxy,f,19,r,2,(-172.20000000000002, 2.1088417881317425e-14),25,-5,12,yes,x,5,x,0.8592921999952523,1,50,test2,3,0.8593977999989875,-50.0
6,lxy,f,19,r,2,(172.20000000000002, 0.0),21,3,1,yes,x,5,m,0.8296799000090687,0,51,test2,3,0.8299098999996204,-42.0
6,lxy,f,19,r,2,(-172.20000000000002, 2.1088417881317425e-14),25,-5,12,no,m,6,x,0.595449300002656,0,52,test2,3,0.5956738999957452,-42.0
6,lxy,f,19,r,2,(121.76378772032346, -121.76378772032352),28,-25,14,yes,x,5,x,0.543402099996456,1,53,test2,3,0.5440222000033827,-70.0
6,lxy,f,19,r,2,(121.76378772032349, 121.76378772032349),22,5,2,yes,x,5,x,0.6709915999963414,1,54,test2,3,0.6711543999990681,-40.0
6,lxy,f,19,r,2,(121.76378772032349, 121.76378772032349),22,25,4,no,m,6,m,0.7710360999917611,1,55,test2,3,0.7712524999951711,-40.0
6,lxy,f,19,r,2,(121.76378772032346, -121.76378772032352),28,-5,12,yes,x,5,m,0.9288418999931309,0,56,test2,3,0.9293395999993663,-50.0
6,lxy,f,19,r,2,(121.76378772032346, -121.76378772032352),28,-3,11,no,m,6,x,1.2168303999933414,0,57,test2,3,1.2170796999998856,-50.0
6,lxy,f,19,r,2,(-121.76378772032352, -121.76378772032348),26,-5,12,yes,x,5,x,0.6011610999994446,1,58,test2,3,0.6013851999887265,-50.0
6,lxy,f,19,r,2,(-3.163262682197613e-14, -172.20000000000002),27,-3,11,yes,x,5,x,0.7129992999980459,1,59,test2,3,0.7130950999999186,-48.0
6,lxy,f,19,r,2,(121.76378772032346, -121.76378772032352),28,-25,14,no,m,6,x,1.6091008999937912,0,60,test2,3,1.6092649000056554,-48.0
6,lxy,f,19,r,2,(1.0544208940658713e-14, 172.20000000000002),23,-3,11,yes,x,5,x,0.6539066999976058,1,61,test2,3,0.654006800003117,-48.0
6,lxy,f,19,r,2,(121.76378772032346, -121.76378772032352),28,-5,12,yes,x,5,x,0.8994782999943709,1,62,test2,3,0.8997338999906788,-50.0
6,lxy,f,19,r,2,(-121.76378772032352, -121.76378772032348),26,25,4,yes,x,5,x,0.7055318999919109,1,63,test2,3,0.7057700000004843,-20.0
6,lxy,f,19,r,2,(121.76378772032349, 121.76378772032349),22,-7,13,yes,x,5,m,0.7802860000083456,0,64,test2,3,0.7804132000019308,-52.0
6,lxy,f,19,r,2,(1.0544208940658713e-14, 172.20000000000002),23,-7,13,yes,x,5,x,1.0082858000096167,1,65,test2,3,1.0085044000006747,-52.0
6,lxy,f,19,r,2,(-3.163262682197613e-14, -172.20000000000002),27,-5,12,yes,x,5,m,0.8211498000018764,0,66,test2,3,0.8213874000066426,-50.0
6,lxy,f,19,r,2,(1.0544208940658713e-14, 172.20000000000002),23,7,3,yes,x,5,x,0.6244425000040792,1,67,test2,3,0.6246025000000373,-38.0
6,lxy,f,19,r,2,(121.76378772032349, 121.76378772032349),22,5,2,no,m,6,m,0.8959199999953853,1,68,test2,3,0.8960796000028495,-38.0
6,lxy,f,19,r,2,(-121.76378772032352, -121.76378772032348),26,7,3,no,m,6,m,1.0305012000026181,1,69,test2,3,1.0306139000022085,-38.0
6,lxy,f,19,r,2,(1.0544208940658713e-14, 172.20000000000002),23,-7,13,no,m,6,m,0.900320799992187,1,70,test2,3,0.9006221000017831,-38.0
6,lxy,f,19,r,2,(121.76378772032349, 121.76378772032349),22,-5,12,yes,x,5,x,0.7153097999980673,1,71,test2,3,0.7154435999982525,-50.0
6,lxy,f,19,r,2,(-172.20000000000002, 2.1088417881317425e-14),25,-3,11,no,m,6,m,0.7232021999952849,1,72,test2,3,0.7233266999974148,-50.0
6,lxy,f,19,r,2,(172.20000000000002, 0.0),21,-3,11,yes,x,5,x,0.5660370999976294,1,73,test2,3,0.5667660000035539,-48.0
6,lxy,f,19,r,2,(-3.163262682197613e-14, -172.20000000000002),27,25,4,no,m,6,x,0.8247153999982402,0,74,test2,3,0.8250059999991208,-48.0
6,lxy,f,19,r,2,(-121.76378772032348, 121.76378772032349),24,25,4,yes,x,5,x,0.5071840999880806,1,75,test2,3,0.5075058999937028,-20.0
6,lxy,f,19,r,2,(-172.20000000000002, 2.1088417881317425e-14),25,7,3,no,m,6,m,0.7773543999937829,1,76,test2,3,0.7775436000083573,-20.0
6,lxy,f,19,r,2,(-172.20000000000002, 2.1088417881317425e-14),25,25,4,no,m,6,x,0.04655800000182353,0,77,test2,3,0.04746649999287911,-20.0
6,lxy,f,19,r,2,(121.76378772032349, 121.76378772032349),22,-3,11,no,m,6,m,1.2686105000029784,1,78,test2,3,1.2689094000088517,-20.0
6,lxy,f,19,r,2,(121.76378772032346, -121.76378772032352),28,-3,11,yes,x,5,m,1.1958459000015864,0,79,test2,3,1.1960929000051692,-48.0
6,lxy,f,19,r,2,(-3.163262682197613e-14, -172.20000000000002),27,3,1,yes,x,5,x,0.6891502999933437,1,80,test2,3,0.6897970999998506,-42.0
6,lxy,f,19,r,2,(-3.163262682197613e-14, -172.20000000000002),27,25,4,yes,x,5,x,0.7011558999947738,1,81,test2,3,0.701251600010437,-20.0
6,lxy,f,19,r,2,(-121.76378772032348, 121.76378772032349),24,-3,11,yes,x,5,x,0.6638555999961682,1,82,test2,3,0.6640136000060011,-48.0
6,lxy,f,19,r,2,(172.20000000000002, 0.0),21,-7,13,yes,x,5,x,0.693839300001855,1,83,test2,3,0.6939997000008589,-52.0
6,lxy,f,19,r,2,(-121.76378772032348, 121.76378772032349),24,3,1,yes,x,5,m,0.9339479000045685,0,84,test2,3,0.9342387000069721,-42.0
6,lxy,f,19,r,2,(-121.76378772032348, 121.76378772032349),24,5,2,no,m,6,m,0.7942731999937678,1,85,test2,3,0.7944202999933623,-42.0
6,lxy,f,19,r,2,(-3.163262682197613e-14, -172.20000000000002),27,5,2,yes,x,5,x,0.8615731000027154,1,86,test2,3,0.8617775000020629,-40.0
6,lxy,f,19,r,2,(-121.76378772032352, -121.76378772032348),26,-5,12,yes,x,5,x,0.668461399996886,1,87,test2,3,0.6685628000122961,-50.0
6,lxy,f,19,r,2,(-121.76378772032348, 121.76378772032349),24,5,2,yes,x,5,x,0.7074081999890041,1,88,test2,3,0.7075085999967996,-40.0
6,lxy,f,19,r,2,(-172.20000000000002, 2.1088417881317425e-14),25,5,2,no,m,6,m,0.7415930999995908,1,89,test2,3,0.7417713000031654,-40.0
6,lxy,f,19,r,2,(-121.76378772032352, -121.76378772032348),26,-3,11,yes,x,5,x,0.8349473999987822,1,90,test2,3,0.8351006000011694,-48.0
6,lxy,f,19,r,2,(1.0544208940658713e-14, 172.20000000000002),23,-5,12,yes,x,5,x,0.5566863999993075,1,91,test2,3,0.5568132999906084,-50.0
6,lxy,f,19,r,2,(121.76378772032346, -121.76378772032352),28,3,1,yes,x,5,x,0.5078165000013541,1,92,test2,3,0.5080044999922393,-42.0
6,lxy,f,19,r,2,(172.20000000000002, 0.0),21,-7,13,no,m,6,x,0.7137254999979632,0,93,test2,3,0.7138448000041535,-42.0
6,lxy,f,19,r,2,(172.20000000000002, 0.0),21,-25,14,no,m,6,m,1.0651686000055633,1,94,test2,3,1.0653882000042358,-42.0
6,lxy,f,19,r,2,(1.0544208940658713e-14, 172.20000000000002),23,3,1,no,m,6,m,1.0318917999975383,1,95,test2,3,1.0319971999997506,-42.0
6,lxy,f,19,r,2,(121.76378772032346, -121.76378772032352),28,25,4,yes,x,5,x,0.675433599986718,1,96,test2,3,0.6756006999930833,-20.0
6,lxy,f,19,r,2,(121.76378772032349, 121.76378772032349),22,3,1,no,m,6,x,0.734511200003908,0,1,test1,4,0.7346126000047661,-20.0
6,lxy,f,19,r,2,(-121.76378772032352, -121.76378772032348),26,5,2,yes,x,5,x,0.4974039999942761,1,2,test1,4,0.4976260999974329,-40.0
6,lxy,f,19,r,2,(121.76378772032349, 121.76378772032349),22,3,1,yes,x,5,x,0.4167410999943968,1,3,test1,4,0.41685470000084024,-42.0
6,lxy,f,19,r,2,(1.0544208940658713e-14, 172.20000000000002),23,25,4,yes,x,5,x,0.4497718999919016,1,4,test1,4,0.4498648000007961,-20.0
6,lxy,f,19,r,2,(-172.20000000000002, 2.1088417881317425e-14),25,25,4,yes,x,5,x,0.43875739999930374,1,5,test1,4,0.43921080000291113,-20.0
6,lxy,f,19,r,2,(121.76378772032346, -121.76378772032352),28,-25,14,yes,x,5,x,0.6189199000073131,1,6,test1,4,0.6191715000022668,-70.0
6,lxy,f,19,r,2,(-172.20000000000002, 2.1088417881317425e-14),25,-7,13,no,m,6,m,0.7607769000023836,1,7,test1,4,0.7613476000115043,-70.0
6,lxy,f,19,r,2,(121.76378772032346, -121.76378772032352),28,25,4,no,m,6,m,0.7446825999941211,1,8,test1,4,0.7448136000020895,-70.0
6,lxy,f,19,r,2,(121.76378772032346, -121.76378772032352),28,3,1,no,m,6,m,0.7413055999932112,1,9,test1,4,0.7414423000009265,-70.0
6,lxy,f,19,r,2,(121.76378772032346, -121.76378772032352),28,-3,11,yes,x,5,m,0.5591550000099232,0,10,test1,4,0.5592938999907346,-48.0
6,lxy,f,19,r,2,(-121.76378772032352, -121.76378772032348),26,-3,11,yes,x,5,m,0.8666633000102593,0,11,test1,4,0.8668443999922602,-48.0
6,lxy,f,19,r,2,(-121.76378772032352, -121.76378772032348),26,5,2,no,m,6,m,1.331838300000527,1,12,test1,4,1.3322506999975303,-48.0
6,lxy,f,19,r,2,(1.0544208940658713e-14, 172.20000000000002),23,5,2,yes,x,5,x,0.7450933000072837,1,13,test1,4,0.7453004000126384,-40.0
6,lxy,f,19,r,2,(-121.76378772032348, 121.76378772032349),24,3,1,yes,x,5,m,0.9895503000007011,0,14,test1,4,0.9897272999951383,-42.0
6,lxy,f,19,r,2,(1.0544208940658713e-14, 172.20000000000002),23,7,3,no,m,6,m,1.1470733000023756,1,15,test1,4,1.147213999996893,-42.0
6,lxy,f,19,r,2,(-121.76378772032348, 121.76378772032349),24,3,1,no,m,6,x,0.782904799998505,0,16,test1,4,0.7830776999908267,-42.0
6,lxy,f,19,r,2,(172.20000000000002, 0.0),21,25,4,no,m,6,m,1.0390380000026198,1,17,test1,4,1.0391694999998435,-42.0
6,lxy,f,19,r,2,(-3.163262682197613e-14, -172.20000000000002),27,7,3,yes,x,5,x,0.6568250999989687,1,18,test1,4,0.656928099997458,-38.0
6,lxy,f,19,r,2,(-172.20000000000002, 2.1088417881317425e-14),25,25,4,yes,x,5,x,0.6228262000076938,1,19,test1,4,0.6230894000036642,-20.0
6,lxy,f,19,r,2,(172.20000000000002, 0.0),21,7,3,yes,x,5,x,0.9151205999951344,1,20,test1,4,0.9152376999991247,-38.0
6,lxy,f,19,r,2,(-121.76378772032352, -121.76378772032348),26,-7,13,yes,x,5,x,0.49170779999985825,1,21,test1,4,0.49200340000970755,-52.0
6,lxy,f,19,r,2,(172.20000000000002, 0.0),21,-5,12,yes,x,5,x,0.399338599992916,1,22,test1,4,0.3994632999965688,-50.0
6,lxy,f,19,r,2,(-3.163262682197613e-14, -172.20000000000002),27,-25,14,yes,x,5,x,0.5136763000045903,1,23,test1,4,0.5139044000097783,-70.0
6,lxy,f,19,r,2,(121.76378772032349, 121.76378772032349),22,-25,14,yes,x,5,x,0.4829243999993196,1,24,test1,4,0.48304649999772664,-70.0
6,lxy,f,19,r,2,(172.20000000000002, 0.0),21,-3,11,no,m,6,x,0.5579617000039434,0,25,test1,4,0.5582131999981357,-70.0
6,lxy,f,19,r,2,(1.0544208940658713e-14, 172.20000000000002),23,-25,14,yes,x,5,x,0.5588529000087874,1,26,test1,4,0.5589576000056695,-70.0
6,lxy,f,19,r,2,(-121.76378772032352, -121.76378772032348),26,25,4,no,m,6,m,0.7489576999942074,1,27,test1,4,0.7490614999987883,-70.0
6,lxy,f,19,r,2,(121.76378772032349, 121.76378772032349),22,7,3,yes,x,5,m,0.9684674000018276,0,28,test1,4,0.968600999985938,-38.0
6,lxy,f,19,r,2,(172.20000000000002, 0.0),21,3,1,no,m,6,m,1.083469100005459,1,29,test1,4,1.0836004000011599,-38.0
6,lxy,f,19,r,2,(-3.163262682197613e-14, -172.20000000000002),27,-3,11,yes,x,5,x,1.0068603999970946,1,30,test1,4,1.0069655000115745,-48.0
6,lxy,f,19,r,2,(-172.20000000000002, 2.1088417881317425e-14),25,7,3,yes,x,5,x,0.6443973999994341,1,31,test1,4,0.644498299996485,-38.0
6,lxy,f,19,r,2,(-3.163262682197613e-14, -172.20000000000002),27,5,2,no,m,6,m,0.8600513999990653,1,32,test1,4,0.8605531000066549,-38.0
6,lxy,f,19,r,2,(172.20000000000002, 0.0),21,-25,14,yes,x,5,x,0.6208324000035645,1,33,test1,4,0.6211019000038505,-70.0
6,lxy,f,19,r,2,(-121.76378772032352, -121.76378772032348),26,7,3,yes,x,5,x,0.5643072000093525,1,34,test1,4,0.564538899998297,-38.0
6,lxy,f,19,r,2,(-3.163262682197613e-14, -172.20000000000002),27,25,4,yes,x,5,x,0.557152599998517,1,35,test1,4,0.5573275999922771,-20.0
6,lxy,f,19,r,2,(121.76378772032346, -121.76378772032352),28,5,2,yes,x,5,x,0.7080683000094723,1,36,test1,4,0.7083130999963032,-40.0
6,lxy,f,19,r,2,(-121.76378772032348, 121.76378772032349),24,7,3,yes,x,5,x,0.5143451000039931,1,37,test1,4,0.5146276000014041,-38.0
6,lxy,f,19,r,2,(1.0544208940658713e-14, 172.20000000000002),23,5,2,no,m,6,x,0.6069700000080047,0,38,test1,4,0.6075072999956319,-38.0
6,lxy,f,19,r,2,(-172.20000000000002, 2.1088417881317425e-14),25,-25,14,no,m,6,m,0.9131045999965863,1,39,test1,4,0.9134067999984836,-38.0
6,lxy,f,19,r,2,(-172.20000000000002, 2.1088417881317425e-14),25,-25,14,yes,x,5,x,0.5027016999956686,1,40,test1,4,0.5030903000006219,-70.0
6,lxy,f,19,r,2,(1.0544208940658713e-14, 172.20000000000002),23,-5,12,yes,x,5,x,0.8936949999915669,1,41,test1,4,0.8937931999971624,-50.0
6,lxy,f,19,r,2,(-172.20000000000002, 2.1088417881317425e-14),25,-5,12,yes,x,5,x,0.56673450001108,1,42,test1,4,0.5668695999920601,-50.0
6,lxy,f,19,r,2,(121.76378772032349, 121.76378772032349),22,-7,13,yes,x,5,m,1.1589706999948248,0,43,test1,4,1.159111999993911,-52.0
6,lxy,f,19,r,2,(-3.163262682197613e-14, -172.20000000000002),27,7,3,no,m,6,x,0.7214695000002393,0,44,test1,4,0.7217100999987451,-52.0
6,lxy,f,19,r,2,(121.76378772032349, 121.76378772032349),22,-3,11,yes,x,5,m,0.9281249000050593,0,45,test1,4,0.9282429000013508,-48.0
6,lxy,f,19,r,2,(1.0544208940658713e-14, 172.20000000000002),23,25,4,yes,x,5,x,0.8198890999919968,1,46,test1,4,0.8201275000028545,-20.0
6,lxy,f,19,r,2,(-121.76378772032348, 121.76378772032349),24,-3,11,no,m,6,m,0.8409804000111762,1,47,test1,4,0.841114099996048,-20.0
6,lxy,f,19,r,2,(-172.20000000000002, 2.1088417881317425e-14),25,-3,11,yes,x,5,m,0.9527947000024142,0,48,test1,4,0.9531720000086352,-48.0
6,lxy,f,19,r,2,(1.0544208940658713e-14, 172.20000000000002),23,3,1,yes,x,5,x,0.5734932000050321,1,49,test1,4,0.5736456000013277,-42.0
6,lxy,f,19,r,2,(172.20000000000002, 0.0),21,5,2,yes,x,5,m,0.8250523000024259,0,50,test1,4,0.8255778000020655,-40.0
6,lxy,f,19,r,2,(-172.20000000000002, 2.1088417881317425e-14),25,3,1,no,m,6,m,0.8356287000060547,1,51,test1,4,0.8359181999985594,-40.0
6,lxy,f,19,r,2,(-121.76378772032348, 121.76378772032349),24,25,4,yes,x,5,x,0.4668948000035016,1,52,test1,4,0.46708820000640117,-20.0
6,lxy,f,19,r,2,(121.76378772032346, -121.76378772032352),28,3,1,yes,x,5,m,0.7653329000022495,0,53,test1,4,0.7654480999917723,-42.0
6,lxy,f,19,r,2,(172.20000000000002, 0.0),21,5,2,yes,x,5,x,0.6691726999997627,1,54,test1,4,0.669378600010532,-40.0
6,lxy,f,19,r,2,(121.76378772032349, 121.76378772032349),22,-7,13,no,m,6,m,0.875325699991663,1,55,test1,4,0.8754469999985304,-40.0
6,lxy,f,19,r,2,(121.76378772032346, -121.76378772032352),28,5,2,no,m,6,m,0.9305839000007836,1,56,test1,4,0.9307176000002073,-40.0
6,lxy,f,19,r,2,(1.0544208940658713e-14, 172.20000000000002),23,-3,11,no,m,6,x,0.6968827999953646,0,57,test1,4,0.6971723000024213,-40.0
6,lxy,f,19,r,2,(-121.76378772032348, 121.76378772032349),24,-3,11,yes,x,5,m,1.123998399998527,0,58,test1,4,1.1245093000034103,-48.0
6,lxy,f,19,r,2,(121.76378772032346, -121.76378772032352),28,-7,13,no,m,6,m,1.3411938000062946,1,59,test1,4,1.3412993999954779,-48.0
6,lxy,f,19,r,2,(1.0544208940658713e-14, 172.20000000000002),23,5,2,yes,x,5,x,1.3343820000009146,1,60,test1,4,1.3348025000013877,-40.0
6,lxy,f,19,r,2,(-172.20000000000002, 2.1088417881317425e-14),25,3,1,yes,x,5,x,0.5548780999961309,1,61,test1,4,0.555339600003208,-42.0
6,lxy,f,19,r,2,(-121.76378772032352, -121.76378772032348),26,25,4,yes,x,5,x,0.6350334000017028,1,62,test1,4,0.6357344999996712,-20.0
6,lxy,f,19,r,2,(-172.20000000000002, 2.1088417881317425e-14),25,7,3,yes,x,5,x,0.47909929999150336,1,63,test1,4,0.479331499998807,-38.0
6,lxy,f,19,r,2,(-3.163262682197613e-14, -172.20000000000002),27,5,2,yes,x,5,x,1.548261599993566,1,64,test1,4,1.5483971999929054,-40.0
6,lxy,f,19,r,2,(-121.76378772032348, 121.76378772032349),24,-5,12,no,m,6,m,0.8397850000037579,1,65,test1,4,0.8400952000083635,-40.0
6,lxy,f,19,r,2,(121.76378772032349, 121.76378772032349),22,7,3,no,m,6,m,0.7764784000028158,1,66,test1,4,0.7765766999946209,-40.0
6,lxy,f,19,r,2,(1.0544208940658713e-14, 172.20000000000002),23,-7,13,yes,x,5,m,1.1627533999999287,0,67,test1,4,1.1630569999979343,-52.0
6,lxy,f,19,r,2,(1.0544208940658713e-14, 172.20000000000002),23,-25,14,yes,x,5,x,0.5751115000020945,1,68,test1,4,0.5753361999959452,-70.0
6,lxy,f,19,r,2,(121.76378772032346, -121.76378772032352),28,5,2,yes,x,5,x,0.7452220999985002,1,69,test1,4,0.7458222999994177,-40.0
6,lxy,f,19,r,2,(1.0544208940658713e-14, 172.20000000000002),23,-3,11,yes,x,5,x,0.653914700000314,1,70,test1,4,0.6540325999958441,-48.0
6,lxy,f,19,r,2,(-3.163262682197613e-14, -172.20000000000002),27,-7,13,yes,x,5,x,0.6830307000054745,1,71,test1,4,0.6832130000111647,-52.0
6,lxy,f,19,r,2,(121.76378772032346, -121.76378772032352),28,-5,12,no,m,6,m,0.729636499992921,1,72,test1,4,0.7298636000050465,-52.0
6,lxy,f,19,r,2,(-172.20000000000002, 2.1088417881317425e-14),25,5,2,yes,x,5,x,0.6025167999905534,1,73,test1,4,0.6026927000057185,-40.0
6,lxy,f,19,r,2,(121.76378772032349, 121.76378772032349),22,-25,14,yes,x,5,x,0.49553929999819957,1,74,test1,4,0.4957479000004241,-70.0
6,lxy,f,19,r,2,(1.0544208940658713e-14, 172.20000000000002),23,3,1,yes,x,5,x,0.6402632999961497,1,75,test1,4,0.6404466000094544,-42.0
6,lxy,f,19,r,2,(172.20000000000002, 0.0),21,-3,11,yes,x,5,x,0.27583759999834,1,76,test1,4,0.276124299998628,-48.0
6,lxy,f,19,r,2,(1.0544208940658713e-14, 172.20000000000002),23,-5,12,no,m,6,m,0.8682484000019031,1,77,test1,4,0.8683434999984456,-48.0
6,lxy,f,19,r,2,(-172.20000000000002, 2.1088417881317425e-14),25,-7,13,yes,x,5,x,0.5789561999990838,1,78,test1,4,0.5790565000061179,-52.0
6,lxy,f,19,r,2,(1.0544208940658713e-14, 172.20000000000002),23,-25,14,no,m,6,m,0.770329999999376,1,79,test1,4,0.7704886999999871,-52.0
6,lxy,f,19,r,2,(-121.76378772032352, -121.76378772032348),26,-3,11,no,m,6,m,0.9517653999937465,1,80,test1,4,0.9519321999978274,-52.0
6,lxy,f,19,r,2,(-172.20000000000002, 2.1088417881317425e-14),25,-3,11,yes,x,5,m,0.8602173999970546,0,81,test1,4,0.8603378999978304,-48.0
6,lxy,f,19,r,2,(-121.76378772032348, 121.76378772032349),24,5,2,yes,x,5,x,0.7644272000034107,1,82,test1,4,0.7645625000004657,-40.0
6,lxy,f,19,r,2,(172.20000000000002, 0.0),21,7,3,yes,x,5,x,0.8812853999988874,1,83,test1,4,0.8814433999941684,-38.0
6,lxy,f,19,r,2,(121.76378772032346, -121.76378772032352),28,7,3,yes,x,5,x,0.9387619999906747,1,84,test1,4,0.9388833999983035,-38.0
6,lxy,f,19,r,2,(121.76378772032346, -121.76378772032352),28,7,3,yes,x,5,m,0.8757275999960257,0,85,test1,4,0.8759055999980774,-38.0
6,lxy,f,19,r,2,(121.76378772032349, 121.76378772032349),22,-25,14,no,m,6,x,0.686753600006341,0,86,test1,4,0.6874118999985512,-38.0
6,lxy,f,19,r,2,(172.20000000000002, 0.0),21,5,2,no,m,6,m,0.8956442000053357,1,87,test1,4,0.8963280000025406,-38.0
6,lxy,f,19,r,2,(-3.163262682197613e-14, -172.20000000000002),27,-5,12,no,m,6,x,0.843829800011008,0,88,test1,4,0.8439606999891112,-38.0
6,lxy,f,19,r,2,(-172.20000000000002, 2.1088417881317425e-14),25,-25,14,yes,x,5,x,0.4568411000072956,1,89,test1,4,0.45697550001204945,-70.0
6,lxy,f,19,r,2,(121.76378772032349, 121.76378772032349),22,-3,11,yes,x,5,m,0.8026944000012008,0,90,test1,4,0.8029826999991201,-48.0
6,lxy,f,19,r,2,(-121.76378772032352, -121.76378772032348),26,-5,12,no,m,6,m,1.0074536000029184,1,91,test1,4,1.0075858000054723,-48.0
6,lxy,f,19,r,2,(172.20000000000002, 0.0),21,7,3,no,m,6,x,1.0313391999952728,0,92,test1,4,1.031456700002309,-48.0
6,lxy,f,19,r,2,(-121.76378772032348, 121.76378772032349),24,-25,14,no,m,6,x,1.6539480000064941,0,93,test1,4,1.6542765000049258,-48.0
6,lxy,f,19,r,2,(-3.163262682197613e-14, -172.20000000000002),27,-25,14,no,m,6,m,0.8691126000048826,1,94,test1,4,0.869286800007103,-48.0
6,lxy,f,19,r,2,(-121.76378772032352, -121.76378772032348),26,7,3,yes,x,5,m,0.8976044000010006,0,95,test1,4,0.8977337999967858,-38.0
6,lxy,f,19,r,2,(121.76378772032349, 121.76378772032349),22,-5,12,yes,x,5,m,1.2764873999985866,0,96,test1,4,1.2765866999980062,-50.0
6,lxy,f,19,r,2,(-121.76378772032348, 121.76378772032349),24,-7,13,yes,x,5,x,0.5422174999985145,1,1,test2,4,0.5424282000021776,-52.0
6,lxy,f,19,r,2,(-121.76378772032352, -121.76378772032348),26,-25,14,yes,x,5,x,0.4301536999992095,1,2,test2,4,0.43031530000735074,-70.0
6,lxy,f,19,r,2,(-172.20000000000002, 2.1088417881317425e-14),25,3,1,yes,x,5,x,0.77228340000147,1,3,test2,4,0.7728214999951888,-42.0
6,lxy,f,19,r,2,(172.20000000000002, 0.0),21,25,4,yes,x,5,x,0.4485361999977613,1,4,test2,4,0.4486851999972714,-20.0
6,lxy,f,19,r,2,(121.76378772032346, -121.76378772032352),28,-7,13,yes,x,5,x,0.6939088000071933,1,5,test2,4,0.6941976000089198,-52.0
6,lxy,f,19,r,2,(-121.76378772032348, 121.76378772032349),24,-5,12,yes,x,5,x,0.5960778000007849,1,6,test2,4,0.5962047000066377,-50.0
6,lxy,f,19,r,2,(1.0544208940658713e-14, 172.20000000000002),23,25,4,no,m,6,m,0.7167507999984082,1,7,test2,4,0.7169727000000421,-50.0
6,lxy,f,19,r,2,(172.20000000000002, 0.0),21,-5,12,yes,x,5,x,1.0486928000027547,1,8,test2,4,1.0490439000132028,-50.0
6,lxy,f,19,r,2,(-121.76378772032352, -121.76378772032348),26,-7,13,no,m,6,m,0.6301823000103468,1,9,test2,4,0.6304631999955745,-50.0
6,lxy,f,19,r,2,(172.20000000000002, 0.0),21,-7,13,yes,x,5,x,0.8899936000088928,1,10,test2,4,0.8903359999967506,-52.0
6,lxy,f,19,r,2,(-121.76378772032348, 121.76378772032349),24,7,3,no,m,6,m,0.6588517999916803,1,11,test2,4,0.6592252999980701,-52.0
6,lxy,f,19,r,2,(172.20000000000002, 0.0),21,25,4,yes,x,5,x,0.5451571000012336,1,12,test2,4,0.545346899991273,-20.0
6,lxy,f,19,r,2,(121.76378772032346, -121.76378772032352),28,7,3,no,m,6,m,0.5346854999952484,1,13,test2,4,0.5349184999940917,-20.0
6,lxy,f,19,r,2,(-3.163262682197613e-14, -172.20000000000002),27,3,1,no,m,6,m,0.6660006000020076,1,14,test2,4,0.6664940000046045,-20.0
6,lxy,f,19,r,2,(-121.76378772032348, 121.76378772032349),24,-25,14,yes,x,5,x,0.44258930000069086,1,15,test2,4,0.44279919999826234,-70.0
6,lxy,f,19,r,2,(-172.20000000000002, 2.1088417881317425e-14),25,-7,13,yes,x,5,x,0.570934400006081,1,16,test2,4,0.5711012999963714,-52.0
6,lxy,f,19,r,2,(-121.76378772032348, 121.76378772032349),24,-7,13,no,m,6,m,0.7415405999927316,1,17,test2,4,0.741655499994522,-52.0
6,lxy,f,19,r,2,(-121.76378772032352, -121.76378772032348),26,-25,14,no,m,6,m,0.7718802000017604,1,18,test2,4,0.772128899989184,-52.0
6,lxy,f,19,r,2,(-121.76378772032352, -121.76378772032348),26,3,1,yes,x,5,m,0.7107765000109794,0,19,test2,4,0.71102209998935,-42.0
6,lxy,f,19,r,2,(172.20000000000002, 0.0),21,3,1,yes,x,5,m,0.8322021000058157,0,20,test2,4,0.8327852999937022,-42.0
6,lxy,f,19,r,2,(121.76378772032349, 121.76378772032349),22,5,2,yes,x,5,x,0.7298153000010643,1,21,test2,4,0.7299287000059849,-40.0
6,lxy,f,19,r,2,(-121.76378772032348, 121.76378772032349),24,-5,12,yes,x,5,x,0.8679766999994172,1,22,test2,4,0.8682165000063833,-50.0
6,lxy,f,19,r,2,(-3.163262682197613e-14, -172.20000000000002),27,-3,11,no,m,6,m,1.1060155000013765,1,23,test2,4,1.1064026999956695,-50.0
6,lxy,f,19,r,2,(-172.20000000000002, 2.1088417881317425e-14),25,5,2,yes,x,5,x,0.9428667000029236,1,24,test2,4,0.942990199997439,-40.0
6,lxy,f,19,r,2,(-3.163262682197613e-14, -172.20000000000002),27,-7,13,no,m,6,m,0.9284248000039952,1,25,test2,4,0.9285238000011304,-40.0
6,lxy,f,19,r,2,(-121.76378772032348, 121.76378772032349),24,7,3,yes,x,5,x,1.335205399998813,1,26,test2,4,1.3354415999929188,-38.0
6,lxy,f,19,r,2,(-121.76378772032352, -121.76378772032348),26,-7,13,yes,x,5,x,0.5518511999980547,1,27,test2,4,0.5519853999867337,-52.0
6,lxy,f,19,r,2,(121.76378772032349, 121.76378772032349),22,25,4,yes,x,5,x,0.46038070000940934,1,28,test2,4,0.4607982000015909,-20.0
6,lxy,f,19,r,2,(121.76378772032349, 121.76378772032349),22,3,1,yes,x,5,m,0.80451100000937,0,29,test2,4,0.8047379000054207,-42.0
6,lxy,f,19,r,2,(1.0544208940658713e-14, 172.20000000000002),23,7,3,yes,x,5,x,0.9952931000007084,1,30,test2,4,0.9954640999931144,-38.0
6,lxy,f,19,r,2,(172.20000000000002, 0.0),21,-5,12,no,m,6,m,0.7237938000034774,1,31,test2,4,0.7239075000106823,-38.0
6,lxy,f,19,r,2,(-121.76378772032348, 121.76378772032349),24,25,4,no,m,6,x,0.7558314999914728,0,32,test2,4,0.7559470999985933,-38.0
6,lxy,f,19,r,2,(-121.76378772032352, -121.76378772032348),26,3,1,yes,x,5,x,0.7349195999995572,1,33,test2,4,0.7350413000094704,-42.0
6,lxy,f,19,r,2,(172.20000000000002, 0.0),21,-25,14,yes,x,5,x,0.56627570001001,1,34,test2,4,0.5665208999998868,-70.0
6,lxy,f,19,r,2,(-121.76378772032348, 121.76378772032349),24,-7,13,yes,x,5,x,0.6943269000039436,1,35,test2,4,0.6946189000009326,-52.0
6,lxy,f,19,r,2,(-3.163262682197613e-14, -172.20000000000002),27,-25,14,yes,x,5,x,0.5411545000097249,1,36,test2,4,0.5414699999964796,-70.0
6,lxy,f,19,r,2,(-3.163262682197613e-14, -172.20000000000002),27,-5,12,yes,x,5,x,0.5953825000033248,1,37,test2,4,0.5954842000064673,-50.0
6,lxy,f,19,r,2,(121.76378772032346, -121.76378772032352),28,-7,13,yes,x,5,x,0.7752307999908226,1,38,test2,4,0.7754414000082761,-52.0
6,lxy,f,19,r,2,(-121.76378772032352, -121.76378772032348),26,-25,14,yes,x,5,x,0.5875033999909647,1,39,test2,4,0.5878116999956546,-70.0
6,lxy,f,19,r,2,(-121.76378772032348, 121.76378772032349),24,-25,14,yes,x,5,x,0.5470212999935029,1,40,test2,4,0.5472541000053752,-70.0
6,lxy,f,19,r,2,(121.76378772032349, 121.76378772032349),22,7,3,yes,x,5,x,0.7684963000065181,1,41,test2,4,0.768662200003746,-38.0
6,lxy,f,19,r,2,(-121.76378772032352, -121.76378772032348),26,3,1,no,m,6,m,0.8737472999928286,1,42,test2,4,0.8740650000108872,-38.0
6,lxy,f,19,r,2,(121.76378772032349, 121.76378772032349),22,-5,12,no,m,6,x,1.0941775000101188,0,43,test2,4,1.0943103000026895,-38.0
6,lxy,f,19,r,2,(-3.163262682197613e-14, -172.20000000000002),27,3,1,yes,x,5,x,0.7495613000064623,1,44,test2,4,0.7497257999930298,-42.0
6,lxy,f,19,r,2,(121.76378772032346, -121.76378772032352),28,25,4,yes,x,5,x,0.6285519000084605,1,45,test2,4,0.6286671999987448,-20.0
6,lxy,f,19,r,2,(-3.163262682197613e-14, -172.20000000000002),27,7,3,yes,x,5,x,0.5291122999915387,1,46,test2,4,0.5292783000040799,-38.0
6,lxy,f,19,r,2,(-121.76378772032352, -121.76378772032348),26,5,2,yes,x,5,x,1.0402536000037799,1,47,test2,4,1.040357900012168,-40.0
6,lxy,f,19,r,2,(-3.163262682197613e-14, -172.20000000000002),27,-7,13,yes,x,5,x,0.6041819000092801,1,48,test2,4,0.6043213999946602,-52.0
6,lxy,f,19,r,2,(121.76378772032349, 121.76378772032349),22,25,4,yes,x,5,x,1.563996999990195,1,49,test2,4,1.5641189000016311,-20.0
6,lxy,f,19,r,2,(-172.20000000000002, 2.1088417881317425e-14),25,-5,12,yes,x,5,x,0.7615099999966333,1,50,test2,4,0.7618587999895681,-50.0
6,lxy,f,19,r,2,(172.20000000000002, 0.0),21,3,1,yes,x,5,x,0.5848998999863397,1,51,test2,4,0.5852315999945858,-42.0
6,lxy,f,19,r,2,(-172.20000000000002, 2.1088417881317425e-14),25,-5,12,no,m,6,m,0.7379681000020355,1,52,test2,4,0.7384909999964293,-42.0
6,lxy,f,19,r,2,(121.76378772032346, -121.76378772032352),28,-25,14,yes,x,5,x,0.44931070000166073,1,53,test2,4,0.4499264000041876,-70.0
6,lxy,f,19,r,2,(121.76378772032349, 121.76378772032349),22,5,2,yes,x,5,None,None,0,54,test2,4,1.9800985000038054,-40.0
6,lxy,f,19,r,2,(121.76378772032349, 121.76378772032349),22,25,4,no,m,6,m,0.6998885999928461,1,55,test2,4,0.7004782000003615,-40.0
6,lxy,f,19,r,2,(121.76378772032346, -121.76378772032352),28,-5,12,yes,x,5,x,0.9332387000031304,1,56,test2,4,0.9335090999957174,-50.0
6,lxy,f,19,r,2,(121.76378772032346, -121.76378772032352),28,-3,11,no,m,6,m,0.8167338999919593,1,57,test2,4,0.816967000006116,-50.0
6,lxy,f,19,r,2,(-121.76378772032352, -121.76378772032348),26,-5,12,yes,x,5,None,None,0,58,test2,4,1.9800966000038898,-50.0
6,lxy,f,19,r,2,(-3.163262682197613e-14, -172.20000000000002),27,-3,11,yes,x,5,m,0.8373657000047388,0,59,test2,4,0.8374662000132957,-48.0
6,lxy,f,19,r,2,(121.76378772032346, -121.76378772032352),28,-25,14,no,m,6,m,1.0065625999995973,1,60,test2,4,1.0072000000072876,-48.0
6,lxy,f,19,r,2,(1.0544208940658713e-14, 172.20000000000002),23,-3,11,yes,x,5,x,0.812091200001305,1,61,test2,4,0.8122188999986975,-48.0
6,lxy,f,19,r,2,(121.76378772032346, -121.76378772032352),28,-5,12,yes,x,5,x,0.5670737000036752,1,62,test2,4,0.5672082999954,-50.0
6,lxy,f,19,r,2,(-121.76378772032352, -121.76378772032348),26,25,4,yes,x,5,x,0.3555722000019159,1,63,test2,4,0.35580530000152066,-20.0
6,lxy,f,19,r,2,(121.76378772032349, 121.76378772032349),22,-7,13,yes,x,5,x,0.8010444000101415,1,64,test2,4,0.8012972999858903,-52.0
6,lxy,f,19,r,2,(1.0544208940658713e-14, 172.20000000000002),23,-7,13,yes,x,5,x,0.6784022999927402,1,65,test2,4,0.6785046000004513,-52.0
6,lxy,f,19,r,2,(-3.163262682197613e-14, -172.20000000000002),27,-5,12,yes,x,5,m,0.45204309999826364,0,66,test2,4,0.4522311000037007,-50.0
6,lxy,f,19,r,2,(1.0544208940658713e-14, 172.20000000000002),23,7,3,yes,x,5,x,0.6152068000083091,1,67,test2,4,0.615600600009202,-38.0
6,lxy,f,19,r,2,(121.76378772032349, 121.76378772032349),22,5,2,no,m,6,x,0.7737030999996932,0,68,test2,4,0.7739147999964189,-38.0
6,lxy,f,19,r,2,(-121.76378772032352, -121.76378772032348),26,7,3,no,m,6,m,0.8685780999949202,1,69,test2,4,0.8687051000015344,-38.0
6,lxy,f,19,r,2,(1.0544208940658713e-14, 172.20000000000002),23,-7,13,no,m,6,m,0.7552498000004562,1,70,test2,4,0.7556299999996554,-38.0
6,lxy,f,19,r,2,(121.76378772032349, 121.76378772032349),22,-5,12,yes,x,5,x,1.347961600011331,1,71,test2,4,1.3482024999975692,-50.0
6,lxy,f,19,r,2,(-172.20000000000002, 2.1088417881317425e-14),25,-3,11,no,m,6,x,0.8192560000024969,0,72,test2,4,0.8199582999950508,-50.0
6,lxy,f,19,r,2,(172.20000000000002, 0.0),21,-3,11,yes,x,5,x,0.6413098000048194,1,73,test2,4,0.6416421000030823,-48.0
6,lxy,f,19,r,2,(-3.163262682197613e-14, -172.20000000000002),27,25,4,no,m,6,x,0.8217827999906149,0,74,test2,4,0.8221114000043599,-48.0
6,lxy,f,19,r,2,(-121.76378772032348, 121.76378772032349),24,25,4,yes,x,5,x,0.6142785999982152,1,75,test2,4,0.6144558000087272,-20.0
6,lxy,f,19,r,2,(-172.20000000000002, 2.1088417881317425e-14),25,7,3,no,m,6,x,0.43443520000437275,0,76,test2,4,0.4345366999914404,-20.0
6,lxy,f,19,r,2,(-172.20000000000002, 2.1088417881317425e-14),25,25,4,no,m,6,x,0.7558549999957904,0,77,test2,4,0.7560574000090128,-20.0
6,lxy,f,19,r,2,(121.76378772032349, 121.76378772032349),22,-3,11,no,m,6,m,1.0044590000034077,1,78,test2,4,1.0048870000027819,-20.0
6,lxy,f,19,r,2,(121.76378772032346, -121.76378772032352),28,-3,11,yes,x,5,m,1.0167054000048665,0,79,test2,4,1.0170988000027137,-48.0
6,lxy,f,19,r,2,(-3.163262682197613e-14, -172.20000000000002),27,3,1,yes,x,5,m,0.7887881999922683,0,80,test2,4,0.7891418000072008,-42.0
6,lxy,f,19,r,2,(-3.163262682197613e-14, -172.20000000000002),27,25,4,yes,x,5,x,0.493572999999742,1,81,test2,4,0.49387030000798404,-20.0
6,lxy,f,19,r,2,(-121.76378772032348, 121.76378772032349),24,-3,11,yes,x,5,m,1.096461699999054,0,82,test2,4,1.0965670000005048,-48.0
6,lxy,f,19,r,2,(172.20000000000002, 0.0),21,-7,13,yes,x,5,x,1.2359881999873323,1,83,test2,4,1.236265799991088,-52.0
6,lxy,f,19,r,2,(-121.76378772032348, 121.76378772032349),24,3,1,yes,x,5,x,0.7301468999939971,1,84,test2,4,0.7302632999926573,-42.0
