subj_id,subj_name,subj_gender ,subj_age,subj_handedness,subj_runNum,tar_l_x,tar_l_y,loc_code,tar_ori,tar_code,tar_pre ,cor_response,pre_code,subj_response,RT,correct,trial_num,type,bloc_num,dur, real_tar
6,lxy,f,19,r,1,(-172.20000000000002, 2.1088417881317425e-14),25,5,2,yes,x,5,m,0.9349307000002227,0,1,prac,0,0.9351685999999972,-40.0
6,lxy,f,19,r,1,(121.76378772032349, 121.76378772032349),22,25,4,yes,x,5,x,0.5089282000008097,1,2,prac,0,0.5093642000001637,-20.0
6,lxy,f,19,r,1,(172.20000000000002, 0.0),21,25,4,yes,x,5,x,0.4758291000007375,1,3,prac,0,0.47593219999998837,-20.0
6,lxy,f,19,r,1,(121.76378772032346, -121.76378772032352),28,-7,13,yes,x,5,m,0.5289841000003435,0,4,prac,0,0.5292774999998073,-52.0
6,lxy,f,19,r,1,(-3.163262682197613e-14, -172.20000000000002),27,3,1,no,m,6,x,0.4073092999997243,0,5,prac,0,0.4074673000004623,-52.0
6,lxy,f,19,r,1,(-3.163262682197613e-14, -172.20000000000002),27,-7,13,no,m,6,x,0.9223946000001888,0,6,prac,0,0.9226289000007455,-52.0
6,lxy,f,19,r,1,(121.76378772032346, -121.76378772032352),28,5,2,yes,x,5,m,0.7727990000003047,0,7,prac,0,0.7732593999999153,-40.0
6,lxy,f,19,r,1,(-3.163262682197613e-14, -172.20000000000002),27,7,3,yes,x,5,x,0.8850128000003679,1,8,prac,0,0.8851801000000705,-38.0
6,lxy,f,19,r,1,(-3.163262682197613e-14, -172.20000000000002),27,25,4,yes,x,5,x,0.7048580000000584,1,9,prac,0,0.7050949000004039,-20.0
6,lxy,f,19,r,1,(121.76378772032346, -121.76378772032352),28,25,4,yes,x,5,x,0.7110189999993963,1,10,prac,0,0.7121502999998484,-20.0
6,lxy,f,19,r,1,(-121.76378772032352, -121.76378772032348),26,-25,14,yes,x,5,x,0.6125727999997252,1,11,prac,0,0.6126659000001382,-70.0
6,lxy,f,19,r,1,(121.76378772032346, -121.76378772032352),28,25,4,yes,x,5,x,0.5433751000000484,1,12,prac,0,0.5437416000004305,-20.0
6,lxy,f,19,r,1,(1.0544208940658713e-14, 172.20000000000002),23,5,2,yes,x,5,x,0.9973666999994748,1,13,prac,0,0.9977539999999863,-40.0
6,lxy,f,19,r,1,(121.76378772032346, -121.76378772032352),28,-25,14,yes,x,5,x,0.6341671000000133,1,14,prac,0,0.6343807000002926,-70.0
6,lxy,f,19,r,1,(121.76378772032349, 121.76378772032349),22,-3,11,yes,x,5,m,1.027307700000165,0,15,prac,0,1.0279140000002371,-48.0
6,lxy,f,19,r,1,(172.20000000000002, 0.0),21,5,2,yes,x,5,x,1.611334899999747,1,16,prac,0,1.6115083999993658,-40.0
6,lxy,f,19,r,1,(121.76378772032346, -121.76378772032352),28,7,3,no,m,6,m,1.059195699999691,1,17,prac,0,1.0593886999995448,-40.0
6,lxy,f,19,r,1,(121.76378772032349, 121.76378772032349),22,-3,11,no,m,6,m,1.1702739000002111,1,18,prac,0,1.1703753000001598,-40.0
6,lxy,f,19,r,1,(1.0544208940658713e-14, 172.20000000000002),23,-3,11,no,m,6,m,1.4034953000000314,1,19,prac,0,1.4038502999992488,-40.0
6,lxy,f,19,r,1,(-172.20000000000002, 2.1088417881317425e-14),25,-3,11,no,m,6,m,1.1244384000001446,1,20,prac,0,1.12477619999936,-40.0
6,lxy,f,19,r,1,(121.76378772032349, 121.76378772032349),22,-3,11,yes,x,5,m,1.1034921999998915,0,1,test1,1,1.1038799999996627,-48.0
6,lxy,f,19,r,1,(-121.76378772032348, 121.76378772032349),24,5,2,yes,x,5,m,1.4828687999997783,0,2,test1,1,1.4829702999995789,-40.0
6,lxy,f,19,r,1,(-121.76378772032348, 121.76378772032349),24,-3,11,no,m,6,None,None,0,3,test1,1,1.9800901999997222,-40.0
6,lxy,f,19,r,1,(-172.20000000000002, 2.1088417881317425e-14),25,5,2,no,m,6,m,1.2612761999998838,1,4,test1,1,1.2613719000000856,-40.0
6,lxy,f,19,r,1,(-3.163262682197613e-14, -172.20000000000002),27,7,3,yes,x,5,x,0.7758999999996377,1,5,test1,1,0.7760157000002437,-38.0
6,lxy,f,19,r,1,(-121.76378772032352, -121.76378772032348),26,25,4,no,m,6,m,1.535641399999804,1,6,test1,1,1.5357685000008132,-38.0
6,lxy,f,19,r,1,(121.76378772032346, -121.76378772032352),28,-5,12,no,m,6,m,1.406300600000577,1,7,test1,1,1.4066603999999643,-38.0
6,lxy,f,19,r,1,(-121.76378772032352, -121.76378772032348),26,-7,13,no,m,6,m,0.8862528999998176,1,8,test1,1,0.8863891000000876,-38.0
6,lxy,f,19,r,1,(-121.76378772032348, 121.76378772032349),24,25,4,yes,x,5,x,0.6691088999996282,1,9,test1,1,0.6692653999998583,-20.0
6,lxy,f,19,r,1,(121.76378772032349, 121.76378772032349),22,-25,14,no,m,6,m,0.9140591999994285,1,10,test1,1,0.9143278000001374,-20.0
6,lxy,f,19,r,1,(-172.20000000000002, 2.1088417881317425e-14),25,25,4,yes,x,5,x,0.6519201000000976,1,11,test1,1,0.6520778999993126,-20.0
6,lxy,f,19,r,1,(121.76378772032346, -121.76378772032352),28,25,4,no,m,6,m,0.854511999999886,1,12,test1,1,0.8546286000000691,-20.0
6,lxy,f,19,r,1,(-172.20000000000002, 2.1088417881317425e-14),25,3,1,no,m,6,m,0.8027117000001454,1,13,test1,1,0.8029482000001735,-20.0
6,lxy,f,19,r,1,(121.76378772032346, -121.76378772032352),28,3,1,no,m,6,m,0.954182800000126,1,14,test1,1,0.9543260999998893,-20.0
6,lxy,f,19,r,1,(172.20000000000002, 0.0),21,-5,12,yes,x,5,m,1.0075434999998834,0,15,test1,1,1.0076626000000033,-50.0
6,lxy,f,19,r,1,(172.20000000000002, 0.0),21,3,1,yes,x,5,m,0.8738202000004094,0,16,test1,1,0.8741104000000632,-42.0
6,lxy,f,19,r,1,(-121.76378772032352, -121.76378772032348),26,3,1,yes,x,5,m,1.312311800000316,0,17,test1,1,1.3124149999994188,-42.0
6,lxy,f,19,r,1,(121.76378772032346, -121.76378772032352),28,-7,13,yes,x,5,x,1.0949744999998074,1,18,test1,1,1.095550000000003,-52.0
6,lxy,f,19,r,1,(-121.76378772032352, -121.76378772032348),26,-5,12,no,m,6,m,1.0914805000002161,1,19,test1,1,1.092128899999807,-52.0
6,lxy,f,19,r,1,(-172.20000000000002, 2.1088417881317425e-14),25,7,3,yes,x,5,x,0.7891821000002892,1,20,test1,1,0.7894217999992179,-38.0
6,lxy,f,19,r,1,(1.0544208940658713e-14, 172.20000000000002),23,-3,11,yes,x,5,m,1.1050351000003502,0,21,test1,1,1.1054942999999184,-48.0
6,lxy,f,19,r,1,(121.76378772032349, 121.76378772032349),22,3,1,yes,x,5,m,1.1773489999995945,0,22,test1,1,1.1775707999995575,-42.0
6,lxy,f,19,r,1,(-3.163262682197613e-14, -172.20000000000002),27,-7,13,yes,x,5,x,0.8257333999999901,1,23,test1,1,0.8260729999992691,-52.0
6,lxy,f,19,r,1,(-121.76378772032348, 121.76378772032349),24,-3,11,yes,x,5,m,1.5107980000002499,0,24,test1,1,1.510935100000097,-48.0
6,lxy,f,19,r,1,(-3.163262682197613e-14, -172.20000000000002),27,7,3,yes,x,5,x,0.7341339999993579,1,25,test1,1,0.7342360000002373,-38.0
6,lxy,f,19,r,1,(121.76378772032346, -121.76378772032352),28,25,4,yes,x,5,x,0.7080323000000135,1,26,test1,1,0.708647700000256,-20.0
6,lxy,f,19,r,1,(-3.163262682197613e-14, -172.20000000000002),27,-3,11,yes,x,5,m,1.4974466000003304,0,27,test1,1,1.4975666999998793,-48.0
6,lxy,f,19,r,1,(-121.76378772032352, -121.76378772032348),26,5,2,yes,x,5,x,1.7530601999997089,1,28,test1,1,1.7531834999999774,-40.0
6,lxy,f,19,r,1,(-3.163262682197613e-14, -172.20000000000002),27,-3,11,no,m,6,m,1.2925850000001446,1,29,test1,1,1.2931223000005048,-40.0
6,lxy,f,19,r,1,(-121.76378772032352, -121.76378772032348),26,-3,11,yes,x,5,x,1.4489611000008153,1,30,test1,1,1.4491892999994889,-48.0
6,lxy,f,19,r,1,(1.0544208940658713e-14, 172.20000000000002),23,7,3,yes,x,5,x,0.7457670000003418,1,31,test1,1,0.7458661999999094,-38.0
6,lxy,f,19,r,1,(121.76378772032346, -121.76378772032352),28,-3,11,yes,x,5,m,1.114707400000043,0,32,test1,1,1.1149631999996927,-48.0
6,lxy,f,19,r,1,(121.76378772032346, -121.76378772032352),28,-5,12,yes,x,5,m,1.3863038999998025,0,33,test1,1,1.3865373999997246,-50.0
6,lxy,f,19,r,1,(-121.76378772032348, 121.76378772032349),24,25,4,no,m,6,m,1.1939574999996694,1,34,test1,1,1.1941570999997566,-50.0
6,lxy,f,19,r,1,(-121.76378772032352, -121.76378772032348),26,-25,14,yes,x,5,x,0.6018320000002859,1,35,test1,1,0.6020668000001024,-70.0
6,lxy,f,19,r,1,(1.0544208940658713e-14, 172.20000000000002),23,7,3,no,m,6,m,1.3215891999998348,1,36,test1,1,1.3221702000000732,-70.0
6,lxy,f,19,r,1,(1.0544208940658713e-14, 172.20000000000002),23,-5,12,no,m,6,m,1.259732200000144,1,37,test1,1,1.2599333999996816,-70.0
6,lxy,f,19,r,1,(121.76378772032349, 121.76378772032349),22,7,3,yes,x,5,x,0.823184300000321,1,38,test1,1,0.8234685999996145,-38.0
6,lxy,f,19,r,1,(121.76378772032349, 121.76378772032349),22,-5,12,yes,x,5,x,0.610271599999578,1,39,test1,1,0.6103750000002037,-50.0
6,lxy,f,19,r,1,(121.76378772032346, -121.76378772032352),28,-7,13,no,m,6,m,1.1262979000002815,1,40,test1,1,1.1264113000006546,-50.0
6,lxy,f,19,r,1,(172.20000000000002, 0.0),21,25,4,no,m,6,m,1.106129200000396,1,41,test1,1,1.1062775000000329,-50.0
6,lxy,f,19,r,1,(-121.76378772032348, 121.76378772032349),24,-5,12,yes,x,5,x,0.8488601999997627,1,42,test1,1,0.8489606000002823,-50.0
6,lxy,f,19,r,1,(1.0544208940658713e-14, 172.20000000000002),23,-25,14,no,m,6,m,0.9242174999999406,1,43,test1,1,0.9243148999994446,-50.0
6,lxy,f,19,r,1,(1.0544208940658713e-14, 172.20000000000002),23,25,4,yes,x,5,x,0.6002818999995725,1,44,test1,1,0.6005005000006349,-20.0
6,lxy,f,19,r,1,(-3.163262682197613e-14, -172.20000000000002),27,-25,14,yes,x,5,x,0.6648658999993131,1,45,test1,1,0.6651792000002388,-70.0
6,lxy,f,19,r,1,(172.20000000000002, 0.0),21,25,4,yes,x,5,x,0.5954977999999755,1,46,test1,1,0.5957297999993898,-20.0
6,lxy,f,19,r,1,(-121.76378772032348, 121.76378772032349),24,-5,12,yes,x,5,x,0.9131891999995787,1,47,test1,1,0.9135098999995535,-50.0
6,lxy,f,19,r,1,(-3.163262682197613e-14, -172.20000000000002),27,3,1,no,m,6,m,0.8419315999999526,1,48,test1,1,0.8421843999994962,-50.0
6,lxy,f,19,r,1,(1.0544208940658713e-14, 172.20000000000002),23,-3,11,yes,x,5,x,0.7754414999999426,1,49,test1,1,0.7756921000000148,-48.0
6,lxy,f,19,r,1,(-172.20000000000002, 2.1088417881317425e-14),25,5,2,yes,x,5,x,0.5418110999999044,1,50,test1,1,0.5419765999995434,-40.0
6,lxy,f,19,r,1,(-121.76378772032348, 121.76378772032349),24,3,1,yes,x,5,m,0.9318586999997933,0,51,test1,1,0.9319898000003377,-42.0
6,lxy,f,19,r,1,(172.20000000000002, 0.0),21,-5,12,yes,x,5,x,0.8919379999997545,1,52,test1,1,0.8927818999991359,-50.0
6,lxy,f,19,r,1,(-3.163262682197613e-14, -172.20000000000002),27,25,4,no,m,6,None,None,0,53,test1,1,1.9800779999995939,-50.0
6,lxy,f,19,r,1,(-3.163262682197613e-14, -172.20000000000002),27,25,4,yes,x,5,x,0.7386800999993284,1,54,test1,1,0.7388103000002957,-20.0
6,lxy,f,19,r,1,(121.76378772032349, 121.76378772032349),22,-25,14,yes,x,5,x,0.5937571000004027,1,55,test1,1,0.5939558999998553,-70.0
6,lxy,f,19,r,1,(1.0544208940658713e-14, 172.20000000000002),23,-25,14,yes,x,5,x,0.5418063999995866,1,56,test1,1,0.542045600000165,-70.0
6,lxy,f,19,r,1,(121.76378772032349, 121.76378772032349),22,-7,13,yes,x,5,x,0.6746711999994659,1,57,test1,1,0.6752892000004067,-52.0
6,lxy,f,19,r,1,(-121.76378772032348, 121.76378772032349),24,-7,13,yes,x,5,x,0.9182210999997551,1,58,test1,1,0.91831749999983,-52.0
6,lxy,f,19,r,1,(-172.20000000000002, 2.1088417881317425e-14),25,-7,13,yes,x,5,x,0.6569334000005256,1,59,test1,1,0.6571346000000631,-52.0
6,lxy,f,19,r,1,(121.76378772032346, -121.76378772032352),28,3,1,yes,x,5,m,0.9115502000004199,0,60,test1,1,0.911844100000053,-42.0
6,lxy,f,19,r,1,(-121.76378772032352, -121.76378772032348),26,-5,12,yes,x,5,x,0.7859143000005133,1,61,test1,1,0.7861263000004328,-50.0
6,lxy,f,19,r,1,(121.76378772032349, 121.76378772032349),22,25,4,yes,x,5,x,0.5970643000000564,1,62,test1,1,0.5973374000004696,-20.0
6,lxy,f,19,r,1,(-121.76378772032352, -121.76378772032348),26,-25,14,no,m,6,m,0.8774238000005425,1,63,test1,1,0.8780493000003844,-20.0
6,lxy,f,19,r,1,(-172.20000000000002, 2.1088417881317425e-14),25,25,4,no,m,6,m,0.9149047999999311,1,64,test1,1,0.9150283999997555,-20.0
6,lxy,f,19,r,1,(-121.76378772032348, 121.76378772032349),24,-5,12,no,m,6,m,0.9941201000001456,1,65,test1,1,0.994223200000306,-20.0
6,lxy,f,19,r,1,(121.76378772032346, -121.76378772032352),28,-25,14,no,m,6,m,1.006377099999554,1,66,test1,1,1.0064924999996947,-20.0
6,lxy,f,19,r,1,(121.76378772032349, 121.76378772032349),22,5,2,no,m,6,m,1.151701600000706,1,67,test1,1,1.1518010999998296,-20.0
6,lxy,f,19,r,1,(-121.76378772032352, -121.76378772032348),26,-3,11,yes,x,5,x,0.7487906000005751,1,68,test1,1,0.7492045999997572,-48.0
6,lxy,f,19,r,1,(121.76378772032349, 121.76378772032349),22,-3,11,yes,x,5,x,0.7395421999999598,1,69,test1,1,0.739798300000075,-48.0
6,lxy,f,19,r,1,(121.76378772032349, 121.76378772032349),22,7,3,no,m,6,m,1.1056619999999384,1,70,test1,1,1.105760100000225,-48.0
6,lxy,f,19,r,1,(121.76378772032349, 121.76378772032349),22,25,4,no,m,6,m,0.9597267999997712,1,71,test1,1,0.9603550000001633,-48.0
6,lxy,f,19,r,1,(172.20000000000002, 0.0),21,-3,11,yes,x,5,m,1.132817700000487,0,72,test1,1,1.133339199999682,-48.0
6,lxy,f,19,r,1,(-121.76378772032352, -121.76378772032348),26,5,2,yes,x,5,x,0.6570002999997087,1,73,test1,1,0.6573828000000503,-40.0
6,lxy,f,19,r,1,(1.0544208940658713e-14, 172.20000000000002),23,5,2,yes,x,5,x,0.7596096999996007,1,74,test1,1,0.7597249000000375,-40.0
6,lxy,f,19,r,1,(-121.76378772032348, 121.76378772032349),24,-25,14,yes,x,5,x,0.6997473999999784,1,75,test1,1,0.6998608000003514,-70.0
6,lxy,f,19,r,1,(121.76378772032349, 121.76378772032349),22,-3,11,no,m,6,x,1.4642195999995238,0,76,test1,1,1.4645197999998345,-70.0
6,lxy,f,19,r,1,(-172.20000000000002, 2.1088417881317425e-14),25,-5,12,no,m,6,m,0.8957293000003119,1,77,test1,1,0.8960151000001133,-70.0
6,lxy,f,19,r,1,(121.76378772032346, -121.76378772032352),28,5,2,yes,x,5,x,1.19917390000046,1,78,test1,1,1.1993807999997443,-40.0
6,lxy,f,19,r,1,(172.20000000000002, 0.0),21,-25,14,yes,x,5,x,0.6749259999996866,1,79,test1,1,0.6752276000006532,-70.0
6,lxy,f,19,r,1,(121.76378772032349, 121.76378772032349),22,5,2,yes,x,5,x,0.7772715000000971,1,80,test1,1,0.7775038999998287,-40.0
6,lxy,f,19,r,1,(172.20000000000002, 0.0),21,7,3,no,m,6,m,0.8501451000001907,1,81,test1,1,0.8506090999999287,-40.0
6,lxy,f,19,r,1,(121.76378772032346, -121.76378772032352),28,-7,13,yes,x,5,x,0.9195167999996556,1,82,test1,1,0.9197259000002305,-52.0
6,lxy,f,19,r,1,(-172.20000000000002, 2.1088417881317425e-14),25,25,4,yes,x,5,x,0.6289602999995623,1,83,test1,1,0.6290567999994892,-20.0
6,lxy,f,19,r,1,(-121.76378772032352, -121.76378772032348),26,-7,13,yes,x,5,x,0.6368401999998241,1,84,test1,1,0.6370142999994641,-52.0
6,lxy,f,19,r,1,(-3.163262682197613e-14, -172.20000000000002),27,3,1,yes,x,5,m,0.8343337999995128,0,85,test1,1,0.8344844000002922,-42.0
6,lxy,f,19,r,1,(121.76378772032349, 121.76378772032349),22,-7,13,yes,x,5,x,0.7521537000002354,1,86,test1,1,0.7522514000002047,-52.0
6,lxy,f,19,r,1,(-172.20000000000002, 2.1088417881317425e-14),25,7,3,yes,x,5,x,0.594025899999906,1,87,test1,1,0.5941419000000678,-38.0
6,lxy,f,19,r,1,(-3.163262682197613e-14, -172.20000000000002),27,25,4,yes,x,5,x,0.561952800000654,1,88,test1,1,0.5622442000003502,-20.0
6,lxy,f,19,r,1,(-172.20000000000002, 2.1088417881317425e-14),25,3,1,yes,x,5,x,0.692428899999868,1,89,test1,1,0.6925284000008105,-42.0
6,lxy,f,19,r,1,(-3.163262682197613e-14, -172.20000000000002),27,5,2,yes,x,5,x,1.2996800999999323,1,90,test1,1,1.2999813000005815,-40.0
6,lxy,f,19,r,1,(121.76378772032346, -121.76378772032352),28,3,1,yes,x,5,m,0.9798126000005141,0,91,test1,1,0.9804750000002969,-42.0
6,lxy,f,19,r,1,(-121.76378772032348, 121.76378772032349),24,-25,14,no,m,6,m,0.9940042000007452,1,92,test1,1,0.9941253999995752,-42.0
6,lxy,f,19,r,1,(1.0544208940658713e-14, 172.20000000000002),23,-5,12,yes,x,5,x,0.6621152000006987,1,93,test1,1,0.6625358000001142,-50.0
6,lxy,f,19,r,1,(172.20000000000002, 0.0),21,-7,13,yes,x,5,m,0.620053700000426,0,94,test1,1,0.6205052999994223,-52.0
6,lxy,f,19,r,1,(172.20000000000002, 0.0),21,-3,11,yes,x,5,m,1.2980138000002626,0,95,test1,1,1.2981270000000222,-48.0
6,lxy,f,19,r,1,(1.0544208940658713e-14, 172.20000000000002),23,25,4,no,m,6,m,1.0589461999998093,1,96,test1,1,1.0590449999999691,-48.0
6,lxy,f,19,r,1,(-172.20000000000002, 2.1088417881317425e-14),25,5,2,yes,x,5,x,0.6287709999996878,1,1,test2,1,0.6290650000000824,-40.0
6,lxy,f,19,r,1,(-121.76378772032348, 121.76378772032349),24,-25,14,yes,x,5,x,0.5305245999998078,1,2,test2,1,0.5306220000002213,-70.0
6,lxy,f,19,r,1,(-172.20000000000002, 2.1088417881317425e-14),25,-3,11,yes,x,5,x,0.7805352999994284,1,3,test2,1,0.78065289999995,-48.0
6,lxy,f,19,r,1,(121.76378772032346, -121.76378772032352),28,-3,11,yes,x,5,m,0.7873942000005627,0,4,test2,1,0.7875133999996251,-48.0
6,lxy,f,19,r,1,(-172.20000000000002, 2.1088417881317425e-14),25,-7,13,yes,x,5,x,0.5323774999997113,1,5,test2,1,0.5324892999997246,-52.0
6,lxy,f,19,r,1,(-121.76378772032352, -121.76378772032348),26,25,4,yes,x,5,x,0.5734563000005437,1,6,test2,1,0.5735712000005151,-20.0
6,lxy,f,19,r,1,(-172.20000000000002, 2.1088417881317425e-14),25,7,3,no,m,6,m,0.7640496000003623,1,7,test2,1,0.7644657000000734,-20.0
6,lxy,f,19,r,1,(1.0544208940658713e-14, 172.20000000000002),23,5,2,no,m,6,m,0.688730800000485,1,8,test2,1,0.689012200000434,-20.0
6,lxy,f,19,r,1,(1.0544208940658713e-14, 172.20000000000002),23,3,1,yes,x,5,m,0.7252005000000281,0,9,test2,1,0.7253714000007676,-42.0
6,lxy,f,19,r,1,(121.76378772032346, -121.76378772032352),28,-25,14,yes,x,5,x,0.667366900000161,1,10,test2,1,0.6675850000001446,-70.0
6,lxy,f,19,r,1,(-121.76378772032348, 121.76378772032349),24,5,2,yes,x,5,x,0.7503637999998318,1,11,test2,1,0.7506783999997424,-40.0
6,lxy,f,19,r,1,(-172.20000000000002, 2.1088417881317425e-14),25,-3,11,yes,x,5,x,1.3174870000002556,1,12,test2,1,1.3179878000000826,-48.0
6,lxy,f,19,r,1,(121.76378772032346, -121.76378772032352),28,7,3,yes,x,5,x,0.6842885999994905,1,13,test2,1,0.6847163000002183,-38.0
6,lxy,f,19,r,1,(-3.163262682197613e-14, -172.20000000000002),27,-5,12,yes,x,5,x,0.7383853999999701,1,14,test2,1,0.7390414999999848,-50.0
6,lxy,f,19,r,1,(-121.76378772032352, -121.76378772032348),26,7,3,yes,x,5,x,0.6245946999997614,1,15,test2,1,0.6248018000005686,-38.0
6,lxy,f,19,r,1,(-172.20000000000002, 2.1088417881317425e-14),25,3,1,yes,x,5,x,0.568790700000136,1,16,test2,1,0.5690248000000793,-42.0
6,lxy,f,19,r,1,(172.20000000000002, 0.0),21,25,4,yes,x,5,x,0.5512846999999965,1,17,test2,1,0.5513913000004322,-20.0
6,lxy,f,19,r,1,(121.76378772032349, 121.76378772032349),22,3,1,yes,x,5,m,0.7000815999999759,0,18,test2,1,0.7002885000001697,-42.0
6,lxy,f,19,r,1,(172.20000000000002, 0.0),21,-25,14,yes,x,5,x,0.5563026999998328,1,19,test2,1,0.5565167000004294,-70.0
6,lxy,f,19,r,1,(121.76378772032346, -121.76378772032352),28,25,4,yes,x,5,x,0.47899210000014136,1,20,test2,1,0.4795840999995562,-20.0
6,lxy,f,19,r,1,(-121.76378772032348, 121.76378772032349),24,7,3,yes,x,5,x,0.42323859999942215,1,21,test2,1,0.4236695999998119,-38.0
6,lxy,f,19,r,1,(-121.76378772032352, -121.76378772032348),26,3,1,no,m,6,m,0.6376503999999841,1,22,test2,1,0.6377819999997882,-38.0
6,lxy,f,19,r,1,(121.76378772032346, -121.76378772032352),28,-25,14,yes,x,5,x,0.5399035000000367,1,23,test2,1,0.5405381000000489,-70.0
6,lxy,f,19,r,1,(1.0544208940658713e-14, 172.20000000000002),23,3,1,yes,x,5,m,0.6640845000001718,0,24,test2,1,0.6644802999999229,-42.0
6,lxy,f,19,r,1,(1.0544208940658713e-14, 172.20000000000002),23,-7,13,yes,x,5,x,0.5198654999994687,1,25,test2,1,0.5203641999996762,-52.0
6,lxy,f,19,r,1,(121.76378772032349, 121.76378772032349),22,-25,14,yes,x,5,x,0.4541596999997637,1,26,test2,1,0.45484659999965515,-70.0
6,lxy,f,19,r,1,(-121.76378772032348, 121.76378772032349),24,5,2,no,m,6,m,0.6941827000000558,1,27,test2,1,0.694792199999938,-70.0
6,lxy,f,19,r,1,(-121.76378772032348, 121.76378772032349),24,3,1,yes,x,5,m,0.6936476000000766,0,28,test2,1,0.6939116000003196,-42.0
6,lxy,f,19,r,1,(-121.76378772032352, -121.76378772032348),26,-7,13,yes,x,5,x,0.5067302999996173,1,29,test2,1,0.5069403999996211,-52.0
6,lxy,f,19,r,1,(121.76378772032346, -121.76378772032352),28,7,3,no,m,6,m,0.7584481000003507,1,30,test2,1,0.7587846999995236,-52.0
6,lxy,f,19,r,1,(-121.76378772032348, 121.76378772032349),24,-7,13,no,m,6,m,0.7875813000000562,1,31,test2,1,0.7878149999996822,-52.0
6,lxy,f,19,r,1,(121.76378772032346, -121.76378772032352),28,7,3,yes,x,5,x,0.900798699999541,1,32,test2,1,0.9009759000000486,-38.0
6,lxy,f,19,r,1,(-121.76378772032352, -121.76378772032348),26,7,3,yes,x,5,x,0.5982650000005378,1,33,test2,1,0.5985337000001891,-38.0
6,lxy,f,19,r,1,(-3.163262682197613e-14, -172.20000000000002),27,-25,14,yes,x,5,x,0.5958316000005652,1,34,test2,1,0.5965399000006073,-70.0
6,lxy,f,19,r,1,(-172.20000000000002, 2.1088417881317425e-14),25,-7,13,no,m,6,m,0.7733133000001544,1,35,test2,1,0.7734293999992587,-70.0
6,lxy,f,19,r,1,(121.76378772032349, 121.76378772032349),22,-5,12,yes,x,5,x,0.7036373000000822,1,36,test2,1,0.7039150999999038,-50.0
6,lxy,f,19,r,1,(-172.20000000000002, 2.1088417881317425e-14),25,-5,12,yes,x,5,x,0.8203725000003033,1,37,test2,1,0.8204838999999993,-50.0
6,lxy,f,19,r,1,(-121.76378772032352, -121.76378772032348),26,-3,11,no,m,6,m,0.8796332000001712,1,38,test2,1,0.8797907999996823,-50.0
6,lxy,f,19,r,1,(172.20000000000002, 0.0),21,-25,14,no,m,6,m,1.0833529999999882,1,39,test2,1,1.0837706000002072,-50.0
6,lxy,f,19,r,1,(-121.76378772032348, 121.76378772032349),24,3,1,no,m,6,m,0.822005299999546,1,40,test2,1,0.8222289999994246,-50.0
6,lxy,f,19,r,1,(121.76378772032346, -121.76378772032352),28,5,2,no,m,6,m,1.122249600000032,1,41,test2,1,1.1223515000001498,-50.0
6,lxy,f,19,r,1,(172.20000000000002, 0.0),21,3,1,yes,x,5,x,1.139995500000623,1,42,test2,1,1.1405634000002465,-42.0
6,lxy,f,19,r,1,(121.76378772032349, 121.76378772032349),22,7,3,yes,x,5,x,0.6759420999997019,1,43,test2,1,0.6760822999995071,-38.0
6,lxy,f,19,r,1,(1.0544208940658713e-14, 172.20000000000002),23,3,1,no,m,6,m,0.8201590999997279,1,44,test2,1,0.8204889000007825,-38.0
6,lxy,f,19,r,1,(121.76378772032346, -121.76378772032352),28,5,2,yes,x,5,x,0.822740800000247,1,45,test2,1,0.8232906999992338,-40.0
6,lxy,f,19,r,1,(121.76378772032346, -121.76378772032352),28,-3,11,no,m,6,m,0.91943480000009,1,46,test2,1,0.920244900000398,-40.0
6,lxy,f,19,r,1,(121.76378772032349, 121.76378772032349),22,3,1,no,m,6,m,0.7692979000003106,1,47,test2,1,0.7695412000002761,-40.0
6,lxy,f,19,r,1,(-121.76378772032348, 121.76378772032349),24,25,4,yes,x,5,x,0.6783761000006052,1,48,test2,1,0.6785754000002271,-20.0
6,lxy,f,19,r,1,(172.20000000000002, 0.0),21,5,2,no,m,6,m,0.6917188999996142,1,49,test2,1,0.69226449999951,-20.0
6,lxy,f,19,r,1,(-121.76378772032352, -121.76378772032348),26,-5,12,yes,x,5,x,0.8233045999995738,1,50,test2,1,0.8236108000000968,-50.0
6,lxy,f,19,r,1,(1.0544208940658713e-14, 172.20000000000002),23,-7,13,no,m,6,m,1.0240002999998978,1,51,test2,1,1.0249630000007528,-50.0
6,lxy,f,19,r,1,(1.0544208940658713e-14, 172.20000000000002),23,-25,14,yes,x,5,x,0.5252267999994729,1,52,test2,1,0.5256837000006271,-70.0
6,lxy,f,19,r,1,(-121.76378772032348, 121.76378772032349),24,-3,11,yes,x,5,m,0.7991823000002114,0,53,test2,1,0.7993466999996599,-48.0
6,lxy,f,19,r,1,(1.0544208940658713e-14, 172.20000000000002),23,-5,12,yes,x,5,x,0.5995185000001584,1,54,test2,1,0.5996376000002783,-50.0
6,lxy,f,19,r,1,(1.0544208940658713e-14, 172.20000000000002),23,-7,13,yes,x,5,x,0.615141099999164,1,55,test2,1,0.6154572000004919,-52.0
6,lxy,f,19,r,1,(-3.163262682197613e-14, -172.20000000000002),27,-5,12,no,m,6,m,0.9933633000000555,1,56,test2,1,0.9935971000004429,-52.0
6,lxy,f,19,r,1,(172.20000000000002, 0.0),21,7,3,yes,x,5,x,0.712325200000123,1,57,test2,1,0.7124518999999054,-38.0
6,lxy,f,19,r,1,(-121.76378772032352, -121.76378772032348),26,3,1,yes,x,5,m,0.7365507000004072,0,58,test2,1,0.7367684000000736,-42.0
6,lxy,f,19,r,1,(172.20000000000002, 0.0),21,-7,13,yes,x,5,x,0.6128397000002224,1,59,test2,1,0.6129470000005313,-52.0
6,lxy,f,19,r,1,(-3.163262682197613e-14, -172.20000000000002),27,5,2,no,m,6,m,0.9994854999995368,1,60,test2,1,1.0002496000006431,-52.0
6,lxy,f,19,r,1,(-121.76378772032352, -121.76378772032348),26,5,2,no,m,6,m,0.9462864999995872,1,61,test2,1,0.9465872999999192,-52.0
6,lxy,f,19,r,1,(121.76378772032349, 121.76378772032349),22,5,2,yes,x,5,x,0.5880803999998534,1,62,test2,1,0.5883254999998826,-40.0
6,lxy,f,19,r,1,(-3.163262682197613e-14, -172.20000000000002),27,7,3,no,m,6,m,0.8936866000003647,1,63,test2,1,0.893974700000399,-40.0
6,lxy,f,19,r,1,(-3.163262682197613e-14, -172.20000000000002),27,3,1,yes,x,5,m,0.8965822999998636,0,64,test2,1,0.8967103999993924,-42.0
6,lxy,f,19,r,1,(172.20000000000002, 0.0),21,5,2,yes,x,5,x,0.7738894999993136,1,65,test2,1,0.773989000000256,-40.0
6,lxy,f,19,r,1,(-172.20000000000002, 2.1088417881317425e-14),25,-25,14,yes,x,5,x,0.5028114999995523,1,66,test2,1,0.503148599999804,-70.0
6,lxy,f,19,r,1,(-121.76378772032352, -121.76378772032348),26,25,4,yes,x,5,x,0.6358639999998559,1,67,test2,1,0.6359623999996984,-20.0
6,lxy,f,19,r,1,(-172.20000000000002, 2.1088417881317425e-14),25,-25,14,no,m,6,m,0.7228937999998379,1,68,test2,1,0.7231225000004997,-20.0
6,lxy,f,19,r,1,(172.20000000000002, 0.0),21,5,2,yes,x,5,x,0.6200533000001087,1,69,test2,1,0.6202186000000438,-40.0
6,lxy,f,19,r,1,(1.0544208940658713e-14, 172.20000000000002),23,25,4,yes,x,5,x,0.5242306000000099,1,70,test2,1,0.5243412999998327,-20.0
6,lxy,f,19,r,1,(-121.76378772032352, -121.76378772032348),26,7,3,no,m,6,m,0.9193704999997863,1,71,test2,1,0.9197589000004882,-20.0
6,lxy,f,19,r,1,(-3.163262682197613e-14, -172.20000000000002),27,5,2,yes,x,5,x,0.7113476999993509,1,72,test2,1,0.7114754000003813,-40.0
6,lxy,f,19,r,1,(-121.76378772032348, 121.76378772032349),24,-7,13,yes,x,5,x,0.6441664000003584,1,73,test2,1,0.6443349999999555,-52.0
6,lxy,f,19,r,1,(-3.163262682197613e-14, -172.20000000000002),27,-3,11,yes,x,5,m,0.6733691999997973,0,74,test2,1,0.6734984999993685,-48.0
6,lxy,f,19,r,1,(121.76378772032349, 121.76378772032349),22,-5,12,no,m,6,m,0.9104890999997224,1,75,test2,1,0.9106185000000551,-48.0
6,lxy,f,19,r,1,(1.0544208940658713e-14, 172.20000000000002),23,-3,11,no,m,6,m,0.7389038999999684,1,76,test2,1,0.739292100000057,-48.0
6,lxy,f,19,r,1,(121.76378772032349, 121.76378772032349),22,25,4,yes,x,5,x,0.5154597999999169,1,77,test2,1,0.515590400000292,-20.0
6,lxy,f,19,r,1,(172.20000000000002, 0.0),21,7,3,yes,x,5,x,0.583104700000149,1,78,test2,1,0.5832125999995696,-38.0
6,lxy,f,19,r,1,(1.0544208940658713e-14, 172.20000000000002),23,5,2,yes,x,5,x,0.7104097000001275,1,79,test2,1,0.7105229999997391,-40.0
6,lxy,f,19,r,1,(172.20000000000002, 0.0),21,-7,13,no,m,6,m,0.8562498999999661,1,80,test2,1,0.8564583999996103,-40.0
6,lxy,f,19,r,1,(172.20000000000002, 0.0),21,-3,11,no,m,6,x,1.0393948000000819,0,81,test2,1,1.039498599999206,-40.0
6,lxy,f,19,r,1,(-3.163262682197613e-14, -172.20000000000002),27,-7,13,yes,x,5,x,0.6735937000003105,1,82,test2,1,0.6736958999999842,-52.0
6,lxy,f,19,r,1,(-3.163262682197613e-14, -172.20000000000002),27,-5,12,yes,x,5,x,0.652032699999836,1,83,test2,1,0.6521521000004213,-50.0
6,lxy,f,19,r,1,(1.0544208940658713e-14, 172.20000000000002),23,7,3,yes,x,5,x,0.7045990999995411,1,84,test2,1,0.7048896999995122,-38.0
6,lxy,f,19,r,1,(121.76378772032346, -121.76378772032352),28,-5,12,yes,x,5,m,0.7158931999993001,0,85,test2,1,0.7165567000001829,-50.0
6,lxy,f,19,r,1,(172.20000000000002, 0.0),21,3,1,no,m,6,m,0.9407977999999275,1,86,test2,1,0.940964499999609,-50.0
6,lxy,f,19,r,1,(-121.76378772032348, 121.76378772032349),24,7,3,no,m,6,m,1.114298699999381,1,87,test2,1,1.1144611999998233,-50.0
6,lxy,f,19,r,1,(-121.76378772032352, -121.76378772032348),26,-25,14,yes,x,5,x,0.46411709999938466,1,88,test2,1,0.46468240000012884,-70.0
6,lxy,f,19,r,1,(-172.20000000000002, 2.1088417881317425e-14),25,-3,11,no,m,6,m,0.6670444999999745,1,89,test2,1,0.6672042000000147,-70.0
6,lxy,f,19,r,1,(121.76378772032349, 121.76378772032349),22,-7,13,no,m,6,m,0.7264982000006057,1,90,test2,1,0.7268826999998055,-70.0
6,lxy,f,19,r,1,(-3.163262682197613e-14, -172.20000000000002),27,-25,14,no,m,6,m,0.8057287999999971,1,91,test2,1,0.8059759999996459,-70.0
6,lxy,f,19,r,1,(-3.163262682197613e-14, -172.20000000000002),27,-7,13,no,m,6,m,0.8498436999998376,1,92,test2,1,0.849960600000486,-70.0
6,lxy,f,19,r,1,(-172.20000000000002, 2.1088417881317425e-14),25,-25,14,yes,x,5,x,0.4931806999993569,1,93,test2,1,0.49357469999995374,-70.0
6,lxy,f,19,r,1,(172.20000000000002, 0.0),21,-5,12,no,m,6,m,0.7972744999997303,1,94,test2,1,0.7975077999999485,-70.0
6,lxy,f,19,r,1,(-121.76378772032348, 121.76378772032349),24,7,3,yes,x,5,m,1.0552502000000459,0,95,test2,1,1.0554287999993903,-38.0
6,lxy,f,19,r,1,(-172.20000000000002, 2.1088417881317425e-14),25,-5,12,yes,x,5,x,0.6644817000005787,1,96,test2,1,0.6646491000001333,-50.0
6,lxy,f,19,r,1,(121.76378772032349, 121.76378772032349),22,-3,11,yes,x,5,m,0.8434839999999895,0,1,test1,2,0.8436489000005167,-48.0
6,lxy,f,19,r,1,(-121.76378772032348, 121.76378772032349),24,5,2,yes,x,5,x,0.7326093000001492,1,2,test1,2,0.7332024000006641,-40.0
6,lxy,f,19,r,1,(-121.76378772032348, 121.76378772032349),24,-3,11,no,m,6,m,0.8298373000006904,1,3,test1,2,0.8299495000001116,-40.0
6,lxy,f,19,r,1,(-172.20000000000002, 2.1088417881317425e-14),25,5,2,no,m,6,m,0.7696350000005623,1,4,test1,2,0.7697539999999208,-40.0
6,lxy,f,19,r,1,(-3.163262682197613e-14, -172.20000000000002),27,7,3,yes,x,5,x,0.7225571999997555,1,5,test1,2,0.7227806999999302,-38.0
6,lxy,f,19,r,1,(-121.76378772032352, -121.76378772032348),26,25,4,no,m,6,m,0.7525772999997571,1,6,test1,2,0.7528684999997495,-38.0
6,lxy,f,19,r,1,(121.76378772032346, -121.76378772032352),28,-5,12,no,m,6,m,0.7237027999999555,1,7,test1,2,0.7239498999997522,-38.0
6,lxy,f,19,r,1,(-121.76378772032352, -121.76378772032348),26,-7,13,no,m,6,m,0.7459957000000941,1,8,test1,2,0.7463362999997116,-38.0
6,lxy,f,19,r,1,(-121.76378772032348, 121.76378772032349),24,25,4,yes,x,5,x,0.4808429000004253,1,9,test1,2,0.48122570000032283,-20.0
6,lxy,f,19,r,1,(121.76378772032349, 121.76378772032349),22,-25,14,no,m,6,m,1.0591386000005514,1,10,test1,2,1.0592702000003555,-20.0
6,lxy,f,19,r,1,(-172.20000000000002, 2.1088417881317425e-14),25,25,4,yes,x,5,x,0.6143913999994766,1,11,test1,2,0.6147113999995781,-20.0
6,lxy,f,19,r,1,(121.76378772032346, -121.76378772032352),28,25,4,no,m,6,m,0.8343203000003996,1,12,test1,2,0.8346644000002925,-20.0
6,lxy,f,19,r,1,(-172.20000000000002, 2.1088417881317425e-14),25,3,1,no,m,6,m,0.637607300000127,1,13,test1,2,0.6378401000001759,-20.0
6,lxy,f,19,r,1,(121.76378772032346, -121.76378772032352),28,3,1,no,m,6,m,0.648716499999864,1,14,test1,2,0.6488187000004473,-20.0
6,lxy,f,19,r,1,(172.20000000000002, 0.0),21,-5,12,yes,x,5,x,0.777623300000414,1,15,test1,2,0.7778331999998045,-50.0
6,lxy,f,19,r,1,(172.20000000000002, 0.0),21,3,1,yes,x,5,m,0.7531784000002517,0,16,test1,2,0.7533078000005844,-42.0
6,lxy,f,19,r,1,(-121.76378772032352, -121.76378772032348),26,3,1,yes,x,5,m,0.9563086999996813,0,17,test1,2,0.956543999999667,-42.0
6,lxy,f,19,r,1,(121.76378772032346, -121.76378772032352),28,-7,13,yes,x,5,x,0.8830062999995789,1,18,test1,2,0.8837871999994604,-52.0
6,lxy,f,19,r,1,(-121.76378772032352, -121.76378772032348),26,-5,12,no,m,6,m,0.7881999999999607,1,19,test1,2,0.78833990000021,-52.0
6,lxy,f,19,r,1,(-172.20000000000002, 2.1088417881317425e-14),25,7,3,yes,x,5,x,0.44574499999998807,1,20,test1,2,0.4459320999994816,-38.0
6,lxy,f,19,r,1,(1.0544208940658713e-14, 172.20000000000002),23,-3,11,yes,x,5,m,0.900983599999563,0,21,test1,2,0.9015398000001369,-48.0
6,lxy,f,19,r,1,(121.76378772032349, 121.76378772032349),22,3,1,yes,x,5,m,0.9727572000001601,0,22,test1,2,0.9730738000007477,-42.0
6,lxy,f,19,r,1,(-3.163262682197613e-14, -172.20000000000002),27,-7,13,yes,x,5,x,0.6108524000001125,1,23,test1,2,0.611021100000471,-52.0
6,lxy,f,19,r,1,(-121.76378772032348, 121.76378772032349),24,-3,11,yes,x,5,m,1.1379280000001017,0,24,test1,2,1.1381571000001713,-48.0
6,lxy,f,19,r,1,(-3.163262682197613e-14, -172.20000000000002),27,7,3,yes,x,5,x,0.649709599999369,1,25,test1,2,0.6499677000001611,-38.0
6,lxy,f,19,r,1,(121.76378772032346, -121.76378772032352),28,25,4,yes,x,5,x,0.5214565000005678,1,26,test1,2,0.5217973999997412,-20.0
6,lxy,f,19,r,1,(-3.163262682197613e-14, -172.20000000000002),27,-3,11,yes,x,5,x,0.6704907000003004,1,27,test1,2,0.6707502999997814,-48.0
6,lxy,f,19,r,1,(-121.76378772032352, -121.76378772032348),26,5,2,yes,x,5,x,0.7636409000006097,1,28,test1,2,0.7640392000002976,-40.0
6,lxy,f,19,r,1,(-3.163262682197613e-14, -172.20000000000002),27,-3,11,no,m,6,m,1.1037024999995992,1,29,test1,2,1.1038822000000437,-40.0
6,lxy,f,19,r,1,(-121.76378772032352, -121.76378772032348),26,-3,11,yes,x,5,x,0.6430276000000958,1,30,test1,2,0.6431238000004669,-48.0
6,lxy,f,19,r,1,(1.0544208940658713e-14, 172.20000000000002),23,7,3,yes,x,5,x,0.5572299000004932,1,31,test1,2,0.5575128999998924,-38.0
6,lxy,f,19,r,1,(121.76378772032346, -121.76378772032352),28,-3,11,yes,x,5,m,0.6999250999997457,0,32,test1,2,0.7002226999993582,-48.0
6,lxy,f,19,r,1,(121.76378772032346, -121.76378772032352),28,-5,12,yes,x,5,m,0.6976365999998961,0,33,test1,2,0.6977496999998039,-50.0
6,lxy,f,19,r,1,(-121.76378772032348, 121.76378772032349),24,25,4,no,m,6,m,0.911662299999989,1,34,test1,2,0.9119138999994902,-50.0
6,lxy,f,19,r,1,(-121.76378772032352, -121.76378772032348),26,-25,14,yes,x,5,x,0.4002390000005107,1,35,test1,2,0.40034250000007887,-70.0
6,lxy,f,19,r,1,(1.0544208940658713e-14, 172.20000000000002),23,7,3,no,m,6,m,0.7799303000001601,1,36,test1,2,0.7801681000000826,-70.0
6,lxy,f,19,r,1,(1.0544208940658713e-14, 172.20000000000002),23,-5,12,no,m,6,m,0.9783284000004642,1,37,test1,2,0.9784576000001834,-70.0
6,lxy,f,19,r,1,(121.76378772032349, 121.76378772032349),22,7,3,yes,x,5,x,0.9517499999992651,1,38,test1,2,0.9519797000002654,-38.0
6,lxy,f,19,r,1,(121.76378772032349, 121.76378772032349),22,-5,12,yes,x,5,x,0.948717399999623,1,39,test1,2,0.9490975999997318,-50.0
6,lxy,f,19,r,1,(121.76378772032346, -121.76378772032352),28,-7,13,no,m,6,m,0.8848157000002175,1,40,test1,2,0.8851121999996394,-50.0
6,lxy,f,19,r,1,(172.20000000000002, 0.0),21,25,4,no,m,6,m,0.8952244000001883,1,41,test1,2,0.8954616000000897,-50.0
6,lxy,f,19,r,1,(-121.76378772032348, 121.76378772032349),24,-5,12,yes,x,5,x,0.7585398999999597,1,42,test1,2,0.7587727000000086,-50.0
6,lxy,f,19,r,1,(1.0544208940658713e-14, 172.20000000000002),23,-25,14,no,m,6,m,1.06184150000081,1,43,test1,2,1.0620269000000917,-50.0
6,lxy,f,19,r,1,(1.0544208940658713e-14, 172.20000000000002),23,25,4,yes,x,5,x,0.5113160999999309,1,44,test1,2,0.5119317000007868,-20.0
6,lxy,f,19,r,1,(-3.163262682197613e-14, -172.20000000000002),27,-25,14,yes,x,5,x,0.5072924999994939,1,45,test1,2,0.5075346000003265,-70.0
6,lxy,f,19,r,1,(172.20000000000002, 0.0),21,25,4,yes,x,5,x,0.5751553999998578,1,46,test1,2,0.5752699000004213,-20.0
6,lxy,f,19,r,1,(-121.76378772032348, 121.76378772032349),24,-5,12,yes,x,5,m,0.7056966000000102,0,47,test1,2,0.7058078999998543,-50.0
6,lxy,f,19,r,1,(-3.163262682197613e-14, -172.20000000000002),27,3,1,no,m,6,m,0.7357550000006086,1,48,test1,2,0.7359784000000218,-50.0
6,lxy,f,19,r,1,(1.0544208940658713e-14, 172.20000000000002),23,-3,11,yes,x,5,x,0.5413281000001007,1,49,test1,2,0.5414327999997113,-48.0
6,lxy,f,19,r,1,(-172.20000000000002, 2.1088417881317425e-14),25,5,2,yes,x,5,x,0.5108672000005754,1,50,test1,2,0.5111640999994052,-40.0
6,lxy,f,19,r,1,(-121.76378772032348, 121.76378772032349),24,3,1,yes,x,5,m,0.8142318000000159,0,51,test1,2,0.8146673000001101,-42.0
6,lxy,f,19,r,1,(172.20000000000002, 0.0),21,-5,12,yes,x,5,x,0.542005600000266,1,52,test1,2,0.5423090999993292,-50.0
6,lxy,f,19,r,1,(-3.163262682197613e-14, -172.20000000000002),27,25,4,no,m,6,m,0.7792703999994046,1,53,test1,2,0.7795012999995379,-50.0
6,lxy,f,19,r,1,(-3.163262682197613e-14, -172.20000000000002),27,25,4,yes,x,5,x,0.5973567000000912,1,54,test1,2,0.5974704000000202,-20.0
6,lxy,f,19,r,1,(121.76378772032349, 121.76378772032349),22,-25,14,yes,x,5,x,0.4580956999998307,1,55,test1,2,0.4582655000003797,-70.0
6,lxy,f,19,r,1,(1.0544208940658713e-14, 172.20000000000002),23,-25,14,yes,x,5,x,0.4233014000001276,1,56,test1,2,0.4235884999998234,-70.0
6,lxy,f,19,r,1,(121.76378772032349, 121.76378772032349),22,-7,13,yes,x,5,x,0.6418886999999813,1,57,test1,2,0.6422444999998334,-52.0
6,lxy,f,19,r,1,(-121.76378772032348, 121.76378772032349),24,-7,13,yes,x,5,x,0.5664953000004971,1,58,test1,2,0.5669602000007217,-52.0
6,lxy,f,19,r,1,(-172.20000000000002, 2.1088417881317425e-14),25,-7,13,yes,x,5,x,0.5730231999996249,1,59,test1,2,0.5731350999994902,-52.0
6,lxy,f,19,r,1,(121.76378772032346, -121.76378772032352),28,3,1,yes,x,5,m,0.6760808999997607,0,60,test1,2,0.6762710000002699,-42.0
6,lxy,f,19,r,1,(-121.76378772032352, -121.76378772032348),26,-5,12,yes,x,5,x,1.118189099999654,1,61,test1,2,1.1183995000001232,-50.0
6,lxy,f,19,r,1,(121.76378772032349, 121.76378772032349),22,25,4,yes,x,5,x,0.4997260999998616,1,62,test1,2,0.5000017000002117,-20.0
6,lxy,f,19,r,1,(-121.76378772032352, -121.76378772032348),26,-25,14,no,m,6,m,0.6866377999995166,1,63,test1,2,0.6867505000000165,-20.0
6,lxy,f,19,r,1,(-172.20000000000002, 2.1088417881317425e-14),25,25,4,no,m,6,m,0.7543472999996084,1,64,test1,2,0.7545512999995481,-20.0
6,lxy,f,19,r,1,(-121.76378772032348, 121.76378772032349),24,-5,12,no,m,6,m,0.7888935999999376,1,65,test1,2,0.7890876999999819,-20.0
6,lxy,f,19,r,1,(121.76378772032346, -121.76378772032352),28,-25,14,no,m,6,m,0.630948800000624,1,66,test1,2,0.6310823000003438,-20.0
6,lxy,f,19,r,1,(121.76378772032349, 121.76378772032349),22,5,2,no,m,6,m,0.5529453999997713,1,67,test1,2,0.5530571999997846,-20.0
6,lxy,f,19,r,1,(-121.76378772032352, -121.76378772032348),26,-3,11,yes,x,5,x,1.0199130999999397,1,68,test1,2,1.0201057000003857,-48.0
6,lxy,f,19,r,1,(121.76378772032349, 121.76378772032349),22,-3,11,yes,x,5,m,0.9920196000002761,0,69,test1,2,0.9922485999995843,-48.0
6,lxy,f,19,r,1,(121.76378772032349, 121.76378772032349),22,7,3,no,m,6,x,1.128917399999409,0,70,test1,2,1.1290185999996538,-48.0
6,lxy,f,19,r,1,(121.76378772032349, 121.76378772032349),22,25,4,no,m,6,m,0.8332872999999381,1,71,test1,2,0.8341930999995384,-48.0
6,lxy,f,19,r,1,(172.20000000000002, 0.0),21,-3,11,yes,x,5,x,0.8656090000004042,1,72,test1,2,0.866194600000199,-48.0
6,lxy,f,19,r,1,(-121.76378772032352, -121.76378772032348),26,5,2,yes,x,5,x,0.6823518000001059,1,73,test1,2,0.6825738999996247,-40.0
6,lxy,f,19,r,1,(1.0544208940658713e-14, 172.20000000000002),23,5,2,yes,x,5,x,0.6236500000004526,1,74,test1,2,0.6237987000004068,-40.0
6,lxy,f,19,r,1,(-121.76378772032348, 121.76378772032349),24,-25,14,yes,x,5,x,0.5544157000003906,1,75,test1,2,0.5546773999994912,-70.0
6,lxy,f,19,r,1,(121.76378772032349, 121.76378772032349),22,-3,11,no,m,6,m,0.8042778999997608,1,76,test1,2,0.8043779999998151,-70.0
6,lxy,f,19,r,1,(-172.20000000000002, 2.1088417881317425e-14),25,-5,12,no,m,6,m,1.0008483999999953,1,77,test1,2,1.0012400000005073,-70.0
6,lxy,f,19,r,1,(121.76378772032346, -121.76378772032352),28,5,2,yes,x,5,x,0.6342598999999609,1,78,test1,2,0.6345045999996728,-40.0
6,lxy,f,19,r,1,(172.20000000000002, 0.0),21,-25,14,yes,x,5,x,0.46813139999994746,1,79,test1,2,0.4683654000000388,-70.0
6,lxy,f,19,r,1,(121.76378772032349, 121.76378772032349),22,5,2,yes,x,5,x,0.7673800000002302,1,80,test1,2,0.7676777000006041,-40.0
6,lxy,f,19,r,1,(172.20000000000002, 0.0),21,7,3,no,m,6,m,0.748664299999291,1,81,test1,2,0.7490840999998909,-40.0
6,lxy,f,19,r,1,(121.76378772032346, -121.76378772032352),28,-7,13,yes,x,5,x,0.529478299999937,1,82,test1,2,0.529879599999731,-52.0
6,lxy,f,19,r,1,(-172.20000000000002, 2.1088417881317425e-14),25,25,4,yes,x,5,x,0.8225982000003569,1,83,test1,2,0.8227176000000327,-20.0
6,lxy,f,19,r,1,(-121.76378772032352, -121.76378772032348),26,-7,13,yes,x,5,x,0.7244699000002583,1,84,test1,2,0.7245992999996815,-52.0
6,lxy,f,19,r,1,(-3.163262682197613e-14, -172.20000000000002),27,3,1,yes,x,5,x,1.2981331999999384,1,85,test1,2,1.2982775000000402,-42.0
6,lxy,f,19,r,1,(121.76378772032349, 121.76378772032349),22,-7,13,yes,x,5,x,0.5982746999998199,1,86,test1,2,0.5983704000000216,-52.0
6,lxy,f,19,r,1,(-172.20000000000002, 2.1088417881317425e-14),25,7,3,yes,x,5,x,0.5396949000005407,1,87,test1,2,0.539938500000062,-38.0
6,lxy,f,19,r,1,(-3.163262682197613e-14, -172.20000000000002),27,25,4,yes,x,5,x,0.4711088000003656,1,88,test1,2,0.47144249999928434,-20.0
6,lxy,f,19,r,1,(-172.20000000000002, 2.1088417881317425e-14),25,3,1,yes,x,5,x,0.5883844999998473,1,89,test1,2,0.5885914999998931,-42.0
6,lxy,f,19,r,1,(-3.163262682197613e-14, -172.20000000000002),27,5,2,yes,x,5,x,0.5575308999996196,1,90,test1,2,0.5576600999993389,-40.0
6,lxy,f,19,r,1,(121.76378772032346, -121.76378772032352),28,3,1,yes,x,5,m,0.8978460999996969,0,91,test1,2,0.8982434999998077,-42.0
6,lxy,f,19,r,1,(-121.76378772032348, 121.76378772032349),24,-25,14,no,m,6,m,0.7615504000004876,1,92,test1,2,0.7616465999999491,-42.0
6,lxy,f,19,r,1,(1.0544208940658713e-14, 172.20000000000002),23,-5,12,yes,x,5,x,0.6385097000002133,1,93,test1,2,0.6386561999997866,-50.0
6,lxy,f,19,r,1,(172.20000000000002, 0.0),21,-7,13,yes,x,5,x,0.6080062999999427,1,94,test1,2,0.608243599999696,-52.0
6,lxy,f,19,r,1,(172.20000000000002, 0.0),21,-3,11,yes,x,5,x,0.7569215000003169,1,95,test1,2,0.757090099999914,-48.0
6,lxy,f,19,r,1,(1.0544208940658713e-14, 172.20000000000002),23,25,4,no,m,6,m,0.713010999999824,1,96,test1,2,0.7134495000000243,-48.0
6,lxy,f,19,r,1,(-172.20000000000002, 2.1088417881317425e-14),25,5,2,yes,x,5,x,0.6314684999997553,1,1,test2,2,0.6316604000003281,-40.0
6,lxy,f,19,r,1,(-121.76378772032348, 121.76378772032349),24,-25,14,yes,x,5,x,0.5548539000001256,1,2,test2,2,0.5551488999999492,-70.0
6,lxy,f,19,r,1,(-172.20000000000002, 2.1088417881317425e-14),25,-3,11,yes,x,5,x,0.43062599999939266,1,3,test2,2,0.4307682999997269,-48.0
6,lxy,f,19,r,1,(121.76378772032346, -121.76378772032352),28,-3,11,yes,x,5,m,0.5969463000001269,0,4,test2,2,0.597617899999932,-48.0
6,lxy,f,19,r,1,(-172.20000000000002, 2.1088417881317425e-14),25,-7,13,yes,x,5,x,0.49636480000026495,1,5,test2,2,0.4964921000000686,-52.0
6,lxy,f,19,r,1,(-121.76378772032352, -121.76378772032348),26,25,4,yes,x,5,x,0.4831935000001977,1,6,test2,2,0.48328919999948994,-20.0
6,lxy,f,19,r,1,(-172.20000000000002, 2.1088417881317425e-14),25,7,3,no,m,6,m,0.6530155000000377,1,7,test2,2,0.653143600000476,-20.0
6,lxy,f,19,r,1,(1.0544208940658713e-14, 172.20000000000002),23,5,2,no,m,6,m,0.8604603000003408,1,8,test2,2,0.86057239999991,-20.0
6,lxy,f,19,r,1,(1.0544208940658713e-14, 172.20000000000002),23,3,1,yes,x,5,m,0.7058202999996865,0,9,test2,2,0.7059487000005902,-42.0
6,lxy,f,19,r,1,(121.76378772032346, -121.76378772032352),28,-25,14,yes,x,5,x,0.5097046000000773,1,10,test2,2,0.510212700000011,-70.0
6,lxy,f,19,r,1,(-121.76378772032348, 121.76378772032349),24,5,2,yes,x,5,x,0.6299498999997013,1,11,test2,2,0.6302189999996699,-40.0
6,lxy,f,19,r,1,(-172.20000000000002, 2.1088417881317425e-14),25,-3,11,yes,x,5,x,0.5681403000007776,1,12,test2,2,0.5683383000005051,-48.0
6,lxy,f,19,r,1,(121.76378772032346, -121.76378772032352),28,7,3,yes,x,5,x,0.5106056000004173,1,13,test2,2,0.510697199999413,-38.0
6,lxy,f,19,r,1,(-3.163262682197613e-14, -172.20000000000002),27,-5,12,yes,x,5,x,0.592833900000187,1,14,test2,2,0.5932425000000876,-50.0
6,lxy,f,19,r,1,(-121.76378772032352, -121.76378772032348),26,7,3,yes,x,5,x,0.4807470999994621,1,15,test2,2,0.48095200000079785,-38.0
6,lxy,f,19,r,1,(-172.20000000000002, 2.1088417881317425e-14),25,3,1,yes,x,5,x,0.805668500000138,1,16,test2,2,0.8059002999998484,-42.0
6,lxy,f,19,r,1,(172.20000000000002, 0.0),21,25,4,yes,x,5,x,0.5106586000001698,1,17,test2,2,0.5108875000005355,-20.0
6,lxy,f,19,r,1,(121.76378772032349, 121.76378772032349),22,3,1,yes,x,5,m,0.5711840000003576,0,18,test2,2,0.5713150999999925,-42.0
6,lxy,f,19,r,1,(172.20000000000002, 0.0),21,-25,14,yes,x,5,x,0.5533849000003102,1,19,test2,2,0.5535053000003245,-70.0
6,lxy,f,19,r,1,(121.76378772032346, -121.76378772032352),28,25,4,yes,x,5,x,0.4597205000000031,1,20,test2,2,0.4599700999997367,-20.0
6,lxy,f,19,r,1,(-121.76378772032348, 121.76378772032349),24,7,3,yes,x,5,x,0.5513538999994125,1,21,test2,2,0.5514570999994248,-38.0
6,lxy,f,19,r,1,(-121.76378772032352, -121.76378772032348),26,3,1,no,m,6,m,0.6692810000004101,1,22,test2,2,0.6696069999998144,-38.0
6,lxy,f,19,r,1,(121.76378772032346, -121.76378772032352),28,-25,14,yes,x,5,x,0.5829550999997082,1,23,test2,2,0.5836360000002969,-70.0
6,lxy,f,19,r,1,(1.0544208940658713e-14, 172.20000000000002),23,3,1,yes,x,5,m,0.6844799999998941,0,24,test2,2,0.6847571999996944,-42.0
6,lxy,f,19,r,1,(1.0544208940658713e-14, 172.20000000000002),23,-7,13,yes,x,5,x,0.6397167000004629,1,25,test2,2,0.6400177000004987,-52.0
6,lxy,f,19,r,1,(121.76378772032349, 121.76378772032349),22,-25,14,yes,x,5,x,0.5799197999995158,1,26,test2,2,0.5804162000003998,-70.0
6,lxy,f,19,r,1,(-121.76378772032348, 121.76378772032349),24,5,2,no,m,6,m,0.8652705999993486,1,27,test2,2,0.8653656999995292,-70.0
6,lxy,f,19,r,1,(-121.76378772032348, 121.76378772032349),24,3,1,yes,x,5,m,0.7193858000000546,0,28,test2,2,0.7198608999997305,-42.0
6,lxy,f,19,r,1,(-121.76378772032352, -121.76378772032348),26,-7,13,yes,x,5,x,0.5196965000004639,1,29,test2,2,0.519934199999625,-52.0
6,lxy,f,19,r,1,(121.76378772032346, -121.76378772032352),28,7,3,no,m,6,x,0.4319568999999319,0,30,test2,2,0.43218549999983225,-52.0
6,lxy,f,19,r,1,(-121.76378772032348, 121.76378772032349),24,-7,13,no,m,6,m,0.8634984999998778,1,31,test2,2,0.8639238000005207,-52.0
6,lxy,f,19,r,1,(121.76378772032346, -121.76378772032352),28,7,3,yes,x,5,m,0.6358293000002959,0,32,test2,2,0.6359487999998237,-38.0
6,lxy,f,19,r,1,(-121.76378772032352, -121.76378772032348),26,7,3,yes,x,5,x,0.48950799999965966,1,33,test2,2,0.48979119999967224,-38.0
6,lxy,f,19,r,1,(-3.163262682197613e-14, -172.20000000000002),27,-25,14,yes,x,5,x,0.53614110000035,1,34,test2,2,0.5363078999998834,-70.0
6,lxy,f,19,r,1,(-172.20000000000002, 2.1088417881317425e-14),25,-7,13,no,m,6,m,0.7744882000006328,1,35,test2,2,0.7746676999995543,-70.0
6,lxy,f,19,r,1,(121.76378772032349, 121.76378772032349),22,-5,12,yes,x,5,x,0.686761199999637,1,36,test2,2,0.6868623999998817,-50.0
6,lxy,f,19,r,1,(-172.20000000000002, 2.1088417881317425e-14),25,-5,12,yes,x,5,x,0.6140771999998833,1,37,test2,2,0.6143263000003572,-50.0
6,lxy,f,19,r,1,(-121.76378772032352, -121.76378772032348),26,-3,11,no,m,6,m,0.7978225000006205,1,38,test2,2,0.7979425000003175,-50.0
6,lxy,f,19,r,1,(172.20000000000002, 0.0),21,-25,14,no,m,6,m,0.7276569000005111,1,39,test2,2,0.7277852999995957,-50.0
6,lxy,f,19,r,1,(-121.76378772032348, 121.76378772032349),24,3,1,no,m,6,m,0.6122389000001931,1,40,test2,2,0.6126743999993778,-50.0
6,lxy,f,19,r,1,(121.76378772032346, -121.76378772032352),28,5,2,no,m,6,m,0.6098058999996283,1,41,test2,2,0.6099467000003642,-50.0
6,lxy,f,19,r,1,(172.20000000000002, 0.0),21,3,1,yes,x,5,m,1.2972564000001512,0,42,test2,2,1.2973597000000154,-42.0
6,lxy,f,19,r,1,(121.76378772032349, 121.76378772032349),22,7,3,yes,x,5,x,0.46591949999947246,1,43,test2,2,0.4660419000001639,-38.0
6,lxy,f,19,r,1,(1.0544208940658713e-14, 172.20000000000002),23,3,1,no,m,6,x,0.5059983000001012,0,44,test2,2,0.5060959000002185,-38.0
6,lxy,f,19,r,1,(121.76378772032346, -121.76378772032352),28,5,2,yes,x,5,x,0.4972105000006195,1,45,test2,2,0.4977771000003486,-40.0
6,lxy,f,19,r,1,(121.76378772032346, -121.76378772032352),28,-3,11,no,m,6,m,0.6921375000001717,1,46,test2,2,0.6928479999996853,-40.0
6,lxy,f,19,r,1,(121.76378772032349, 121.76378772032349),22,3,1,no,m,6,m,0.9407608999999866,1,47,test2,2,0.9408591000001252,-40.0
6,lxy,f,19,r,1,(-121.76378772032348, 121.76378772032349),24,25,4,yes,x,5,x,0.3967555999997785,1,48,test2,2,0.3968482000000222,-20.0
6,lxy,f,19,r,1,(172.20000000000002, 0.0),21,5,2,no,m,6,x,0.34970659999999043,0,49,test2,2,0.35014140000021143,-20.0
6,lxy,f,19,r,1,(-121.76378772032352, -121.76378772032348),26,-5,12,yes,x,5,x,0.717706200000066,1,50,test2,2,0.7178263000005245,-50.0
6,lxy,f,19,r,1,(1.0544208940658713e-14, 172.20000000000002),23,-7,13,no,m,6,m,0.8338224999997692,1,51,test2,2,0.834107500000755,-50.0
6,lxy,f,19,r,1,(1.0544208940658713e-14, 172.20000000000002),23,-25,14,yes,x,5,x,0.48915709999982937,1,52,test2,2,0.48950200000035693,-70.0
6,lxy,f,19,r,1,(-121.76378772032348, 121.76378772032349),24,-3,11,yes,x,5,m,0.6734290000003966,0,53,test2,2,0.6735574000003908,-48.0
6,lxy,f,19,r,1,(1.0544208940658713e-14, 172.20000000000002),23,-5,12,yes,x,5,x,0.6349519000004875,1,54,test2,2,0.6351151999997455,-50.0
6,lxy,f,19,r,1,(1.0544208940658713e-14, 172.20000000000002),23,-7,13,yes,x,5,x,0.5281011000006401,1,55,test2,2,0.5282945000008112,-52.0
6,lxy,f,19,r,1,(-3.163262682197613e-14, -172.20000000000002),27,-5,12,no,m,6,m,0.7281597999999576,1,56,test2,2,0.7282764000001407,-52.0
6,lxy,f,19,r,1,(172.20000000000002, 0.0),21,7,3,yes,x,5,x,0.6130843999999342,1,57,test2,2,0.6131916000003912,-38.0
6,lxy,f,19,r,1,(-121.76378772032352, -121.76378772032348),26,3,1,yes,x,5,x,0.6904273000000103,1,58,test2,2,0.6905235000003813,-42.0
6,lxy,f,19,r,1,(172.20000000000002, 0.0),21,-7,13,yes,x,5,x,0.5806318000004467,1,59,test2,2,0.5809463000005053,-52.0
6,lxy,f,19,r,1,(-3.163262682197613e-14, -172.20000000000002),27,5,2,no,m,6,m,0.6604626000007556,1,60,test2,2,0.6605648999993718,-52.0
6,lxy,f,19,r,1,(-121.76378772032352, -121.76378772032348),26,5,2,no,m,6,m,0.6726356999997734,1,61,test2,2,0.673340599999392,-52.0
6,lxy,f,19,r,1,(121.76378772032349, 121.76378772032349),22,5,2,yes,x,5,x,0.632470600000488,1,62,test2,2,0.632929399999739,-40.0
6,lxy,f,19,r,1,(-3.163262682197613e-14, -172.20000000000002),27,7,3,no,m,6,m,0.7214733000000706,1,63,test2,2,0.7218124999999418,-40.0
6,lxy,f,19,r,1,(-3.163262682197613e-14, -172.20000000000002),27,3,1,yes,x,5,m,0.7482973999995011,0,64,test2,2,0.7484613999995418,-42.0
6,lxy,f,19,r,1,(172.20000000000002, 0.0),21,5,2,yes,x,5,x,0.6051276999996844,1,65,test2,2,0.6053633000001355,-40.0
6,lxy,f,19,r,1,(-172.20000000000002, 2.1088417881317425e-14),25,-25,14,yes,x,5,x,0.5107522999996945,1,66,test2,2,0.5113000999999713,-70.0
6,lxy,f,19,r,1,(-121.76378772032352, -121.76378772032348),26,25,4,yes,x,5,x,0.4377090000007229,1,67,test2,2,0.43801970000004076,-20.0
6,lxy,f,19,r,1,(-172.20000000000002, 2.1088417881317425e-14),25,-25,14,no,m,6,m,0.9682343999993464,1,68,test2,2,0.968518600000607,-20.0
6,lxy,f,19,r,1,(172.20000000000002, 0.0),21,5,2,yes,x,5,x,0.5613721999998234,1,69,test2,2,0.5623107999999775,-40.0
6,lxy,f,19,r,1,(1.0544208940658713e-14, 172.20000000000002),23,25,4,yes,x,5,x,0.4871987000005902,1,70,test2,2,0.48729869999988296,-20.0
6,lxy,f,19,r,1,(-121.76378772032352, -121.76378772032348),26,7,3,no,m,6,m,0.8033422999997128,1,71,test2,2,0.8035711000002266,-20.0
6,lxy,f,19,r,1,(-3.163262682197613e-14, -172.20000000000002),27,5,2,yes,x,5,m,0.9331749999992098,0,72,test2,2,0.9332789000000048,-40.0
6,lxy,f,19,r,1,(-121.76378772032348, 121.76378772032349),24,-7,13,yes,x,5,x,0.8573876000000382,1,73,test2,2,0.857614200000171,-52.0
6,lxy,f,19,r,1,(-3.163262682197613e-14, -172.20000000000002),27,-3,11,yes,x,5,x,1.3295682999996643,1,74,test2,2,1.3297499000000244,-48.0
6,lxy,f,19,r,1,(121.76378772032349, 121.76378772032349),22,-5,12,no,m,6,m,0.786887299999762,1,75,test2,2,0.7874499000008655,-48.0
6,lxy,f,19,r,1,(1.0544208940658713e-14, 172.20000000000002),23,-3,11,no,m,6,m,0.7752237000004243,1,76,test2,2,0.7753228999999919,-48.0
6,lxy,f,19,r,1,(121.76378772032349, 121.76378772032349),22,25,4,yes,x,5,x,0.4772708000000421,1,77,test2,2,0.4773939999995491,-20.0
6,lxy,f,19,r,1,(172.20000000000002, 0.0),21,7,3,yes,x,5,x,0.6680606999998417,1,78,test2,2,0.6681861999995817,-38.0
6,lxy,f,19,r,1,(1.0544208940658713e-14, 172.20000000000002),23,5,2,yes,x,5,x,0.5269379999999728,1,79,test2,2,0.5272330999996484,-40.0
6,lxy,f,19,r,1,(172.20000000000002, 0.0),21,-7,13,no,m,6,m,0.7470073999993474,1,80,test2,2,0.74742040000001,-40.0
6,lxy,f,19,r,1,(172.20000000000002, 0.0),21,-3,11,no,m,6,m,0.5725821999994878,1,81,test2,2,0.5728828999999678,-40.0
6,lxy,f,19,r,1,(-3.163262682197613e-14, -172.20000000000002),27,-7,13,yes,x,5,x,0.6681626999998116,1,82,test2,2,0.668380199999774,-52.0
6,lxy,f,19,r,1,(-3.163262682197613e-14, -172.20000000000002),27,-5,12,yes,x,5,x,0.7171007999995709,1,83,test2,2,0.7173246000002109,-50.0
6,lxy,f,19,r,1,(1.0544208940658713e-14, 172.20000000000002),23,7,3,yes,x,5,x,0.5580580999994709,1,84,test2,2,0.5583052000001771,-38.0
6,lxy,f,19,r,1,(121.76378772032346, -121.76378772032352),28,-5,12,yes,x,5,x,0.43089749999944615,1,85,test2,2,0.43138750000071013,-50.0
6,lxy,f,19,r,1,(172.20000000000002, 0.0),21,3,1,no,m,6,m,0.7328170000000682,1,86,test2,2,0.733024000000114,-50.0
6,lxy,f,19,r,1,(-121.76378772032348, 121.76378772032349),24,7,3,no,m,6,m,0.7701187999991816,1,87,test2,2,0.770220899999913,-50.0
6,lxy,f,19,r,1,(-121.76378772032352, -121.76378772032348),26,-25,14,yes,x,5,x,0.5243981000003259,1,88,test2,2,0.5246410999998261,-70.0
6,lxy,f,19,r,1,(-172.20000000000002, 2.1088417881317425e-14),25,-3,11,no,m,6,m,0.6517339000001812,1,89,test2,2,0.6518968999998833,-70.0
6,lxy,f,19,r,1,(121.76378772032349, 121.76378772032349),22,-7,13,no,m,6,m,0.6335674000001745,1,90,test2,2,0.6337383999998565,-70.0
6,lxy,f,19,r,1,(-3.163262682197613e-14, -172.20000000000002),27,-25,14,no,m,6,m,0.6441168999999718,1,91,test2,2,0.644293800000014,-70.0
6,lxy,f,19,r,1,(-3.163262682197613e-14, -172.20000000000002),27,-7,13,no,m,6,m,0.7872460000007777,1,92,test2,2,0.7875656999995044,-70.0
6,lxy,f,19,r,1,(-172.20000000000002, 2.1088417881317425e-14),25,-25,14,yes,x,5,x,0.554144499999893,1,93,test2,2,0.5542441999996299,-70.0
6,lxy,f,19,r,1,(172.20000000000002, 0.0),21,-5,12,no,m,6,m,0.7780190000003131,1,94,test2,2,0.7782521999997698,-70.0
6,lxy,f,19,r,1,(-121.76378772032348, 121.76378772032349),24,7,3,yes,x,5,x,0.6012597999997524,1,95,test2,2,0.6014123000004474,-38.0
6,lxy,f,19,r,1,(-172.20000000000002, 2.1088417881317425e-14),25,-5,12,yes,x,5,x,0.679648599999382,1,96,test2,2,0.6798261000003549,-50.0
6,lxy,f,19,r,1,(121.76378772032349, 121.76378772032349),22,-3,11,yes,x,5,x,0.6596254999994926,1,1,test1,3,0.6600264999997307,-48.0
6,lxy,f,19,r,1,(-121.76378772032348, 121.76378772032349),24,5,2,yes,x,5,x,0.5409035000002405,1,2,test1,3,0.5410339000000022,-40.0
6,lxy,f,19,r,1,(-121.76378772032348, 121.76378772032349),24,-3,11,no,m,6,m,0.7090085999998337,1,3,test1,3,0.7096746999995958,-40.0
6,lxy,f,19,r,1,(-172.20000000000002, 2.1088417881317425e-14),25,5,2,no,m,6,x,0.6332099999999627,0,4,test1,3,0.6335048000000825,-40.0
6,lxy,f,19,r,1,(-3.163262682197613e-14, -172.20000000000002),27,7,3,yes,x,5,x,0.5827874999995402,1,5,test1,3,0.5829304999997476,-38.0
6,lxy,f,19,r,1,(-121.76378772032352, -121.76378772032348),26,25,4,no,m,6,m,0.6589688000003662,1,6,test1,3,0.6591333999995186,-38.0
6,lxy,f,19,r,1,(121.76378772032346, -121.76378772032352),28,-5,12,no,m,6,m,0.6642119999996794,1,7,test1,3,0.6644455999994534,-38.0
6,lxy,f,19,r,1,(-121.76378772032352, -121.76378772032348),26,-7,13,no,m,6,x,0.7982052999996085,0,8,test1,3,0.7986420999995971,-38.0
6,lxy,f,19,r,1,(-121.76378772032348, 121.76378772032349),24,25,4,yes,x,5,x,0.446538999999575,1,9,test1,3,0.4466740999996546,-20.0
6,lxy,f,19,r,1,(121.76378772032349, 121.76378772032349),22,-25,14,no,m,6,m,0.6289925000000949,1,10,test1,3,0.6294554000005519,-20.0
6,lxy,f,19,r,1,(-172.20000000000002, 2.1088417881317425e-14),25,25,4,yes,x,5,x,0.4799360000006345,1,11,test1,3,0.48005560000001424,-20.0
6,lxy,f,19,r,1,(121.76378772032346, -121.76378772032352),28,25,4,no,m,6,m,0.6701450000000477,1,12,test1,3,0.6709765999994488,-20.0
6,lxy,f,19,r,1,(-172.20000000000002, 2.1088417881317425e-14),25,3,1,no,m,6,m,0.6458370999998806,1,13,test1,3,0.6463454000004276,-20.0
6,lxy,f,19,r,1,(121.76378772032346, -121.76378772032352),28,3,1,no,m,6,m,0.6093258999999307,1,14,test1,3,0.6094263999993927,-20.0
6,lxy,f,19,r,1,(172.20000000000002, 0.0),21,-5,12,yes,x,5,x,0.907488399999238,1,15,test1,3,0.9076116999995065,-50.0
6,lxy,f,19,r,1,(172.20000000000002, 0.0),21,3,1,yes,x,5,x,0.7695161000001463,1,16,test1,3,0.7697065000002112,-42.0
6,lxy,f,19,r,1,(-121.76378772032352, -121.76378772032348),26,3,1,yes,x,5,x,0.9356996999995317,1,17,test1,3,0.9358640000000378,-42.0
6,lxy,f,19,r,1,(121.76378772032346, -121.76378772032352),28,-7,13,yes,x,5,x,0.6879214000000502,1,18,test1,3,0.6880399000001489,-52.0
6,lxy,f,19,r,1,(-121.76378772032352, -121.76378772032348),26,-5,12,no,m,6,x,0.941658699999607,0,19,test1,3,0.9426512999998522,-52.0
6,lxy,f,19,r,1,(-172.20000000000002, 2.1088417881317425e-14),25,7,3,yes,x,5,x,0.5719578999996884,1,20,test1,3,0.5720963999992819,-38.0
6,lxy,f,19,r,1,(1.0544208940658713e-14, 172.20000000000002),23,-3,11,yes,x,5,x,0.6956664999997884,1,21,test1,3,0.6957689999999275,-48.0
6,lxy,f,19,r,1,(121.76378772032349, 121.76378772032349),22,3,1,yes,x,5,m,0.9741512999999031,0,22,test1,3,0.9742854999994961,-42.0
6,lxy,f,19,r,1,(-3.163262682197613e-14, -172.20000000000002),27,-7,13,yes,x,5,x,0.49340680000022985,1,23,test1,3,0.4939456000001883,-52.0
6,lxy,f,19,r,1,(-121.76378772032348, 121.76378772032349),24,-3,11,yes,x,5,x,0.5482110000002649,1,24,test1,3,0.5484982999996646,-48.0
6,lxy,f,19,r,1,(-3.163262682197613e-14, -172.20000000000002),27,7,3,yes,x,5,x,0.6228252000000793,1,25,test1,3,0.6229277000002185,-38.0
6,lxy,f,19,r,1,(121.76378772032346, -121.76378772032352),28,25,4,yes,x,5,x,0.513639100000546,1,26,test1,3,0.5141370000001189,-20.0
6,lxy,f,19,r,1,(-3.163262682197613e-14, -172.20000000000002),27,-3,11,yes,x,5,x,0.8950342999996792,1,27,test1,3,0.8952632000000449,-48.0
6,lxy,f,19,r,1,(-121.76378772032352, -121.76378772032348),26,5,2,yes,x,5,x,0.9159915999998702,1,28,test1,3,0.9160915000002205,-40.0
6,lxy,f,19,r,1,(-3.163262682197613e-14, -172.20000000000002),27,-3,11,no,m,6,m,1.088112500000534,1,29,test1,3,1.0882167999998273,-40.0
6,lxy,f,19,r,1,(-121.76378772032352, -121.76378772032348),26,-3,11,yes,x,5,x,0.621342999999797,1,30,test1,3,0.6215079000003243,-48.0
6,lxy,f,19,r,1,(1.0544208940658713e-14, 172.20000000000002),23,7,3,yes,x,5,x,0.5388849999999366,1,31,test1,3,0.5389990000003309,-38.0
6,lxy,f,19,r,1,(121.76378772032346, -121.76378772032352),28,-3,11,yes,x,5,m,0.8619878999998036,0,32,test1,3,0.8623443999986193,-48.0
6,lxy,f,19,r,1,(121.76378772032346, -121.76378772032352),28,-5,12,yes,x,5,x,0.8671045999999478,1,33,test1,3,0.8679836999999679,-50.0
6,lxy,f,19,r,1,(-121.76378772032348, 121.76378772032349),24,25,4,no,m,6,m,0.7271529999998165,1,34,test1,3,0.7275589000000764,-50.0
6,lxy,f,19,r,1,(-121.76378772032352, -121.76378772032348),26,-25,14,yes,x,5,x,0.5216932000002998,1,35,test1,3,0.5217892000000575,-70.0
6,lxy,f,19,r,1,(1.0544208940658713e-14, 172.20000000000002),23,7,3,no,m,6,m,0.5508352999986528,1,36,test1,3,0.5509318000003987,-70.0
6,lxy,f,19,r,1,(1.0544208940658713e-14, 172.20000000000002),23,-5,12,no,m,6,m,0.9232769999998709,1,37,test1,3,0.9234073000006902,-70.0
6,lxy,f,19,r,1,(121.76378772032349, 121.76378772032349),22,7,3,yes,x,5,x,0.7104287999991357,1,38,test1,3,0.7105401999997412,-38.0
6,lxy,f,19,r,1,(121.76378772032349, 121.76378772032349),22,-5,12,yes,x,5,x,0.887380199999825,1,39,test1,3,0.8876952999999048,-50.0
6,lxy,f,19,r,1,(121.76378772032346, -121.76378772032352),28,-7,13,no,m,6,m,1.1654816000009305,1,40,test1,3,1.165860299999622,-50.0
6,lxy,f,19,r,1,(172.20000000000002, 0.0),21,25,4,no,m,6,m,0.7526362000007794,1,41,test1,3,0.7529071999997541,-50.0
6,lxy,f,19,r,1,(-121.76378772032348, 121.76378772032349),24,-5,12,yes,x,5,m,1.1649627000006149,0,42,test1,3,1.1651423999992403,-50.0
6,lxy,f,19,r,1,(1.0544208940658713e-14, 172.20000000000002),23,-25,14,no,m,6,m,0.8042633999993996,1,43,test1,3,0.8044253999996727,-50.0
6,lxy,f,19,r,1,(1.0544208940658713e-14, 172.20000000000002),23,25,4,yes,x,5,x,0.49832779999997,1,44,test1,3,0.49883499999850756,-20.0
6,lxy,f,19,r,1,(-3.163262682197613e-14, -172.20000000000002),27,-25,14,yes,x,5,x,0.9142264000001887,1,45,test1,3,0.914515799999208,-70.0
6,lxy,f,19,r,1,(172.20000000000002, 0.0),21,25,4,yes,x,5,x,0.525583500000721,1,46,test1,3,0.5256797000001825,-20.0
6,lxy,f,19,r,1,(-121.76378772032348, 121.76378772032349),24,-5,12,yes,x,5,x,0.9058019999993121,1,47,test1,3,0.906101700000363,-50.0
6,lxy,f,19,r,1,(-3.163262682197613e-14, -172.20000000000002),27,3,1,no,m,6,m,0.7038423000012699,1,48,test1,3,0.7042940999999701,-50.0
6,lxy,f,19,r,1,(1.0544208940658713e-14, 172.20000000000002),23,-3,11,yes,x,5,x,0.8416138000011415,1,49,test1,3,0.8420747999989544,-48.0
6,lxy,f,19,r,1,(-172.20000000000002, 2.1088417881317425e-14),25,5,2,yes,x,5,x,0.5541016999995918,1,50,test1,3,0.5542034999998577,-40.0
6,lxy,f,19,r,1,(-121.76378772032348, 121.76378772032349),24,3,1,yes,x,5,m,0.9392561999993632,0,51,test1,3,0.9400213999997504,-42.0
6,lxy,f,19,r,1,(172.20000000000002, 0.0),21,-5,12,yes,x,5,x,0.6151015999985248,1,52,test1,3,0.6152010999994673,-50.0
6,lxy,f,19,r,1,(-3.163262682197613e-14, -172.20000000000002),27,25,4,no,m,6,m,0.6587902999999642,1,53,test1,3,0.6594655999997485,-50.0
6,lxy,f,19,r,1,(-3.163262682197613e-14, -172.20000000000002),27,25,4,yes,x,5,x,0.5289042000003974,1,54,test1,3,0.529135500000848,-20.0
6,lxy,f,19,r,1,(121.76378772032349, 121.76378772032349),22,-25,14,yes,x,5,x,0.6327015000006213,1,55,test1,3,0.6331009000004997,-70.0
6,lxy,f,19,r,1,(1.0544208940658713e-14, 172.20000000000002),23,-25,14,yes,x,5,x,0.48549829999865324,1,56,test1,3,0.4856006999998499,-70.0
6,lxy,f,19,r,1,(121.76378772032349, 121.76378772032349),22,-7,13,yes,x,5,x,0.621810300001016,1,57,test1,3,0.6221686999997473,-52.0
6,lxy,f,19,r,1,(-121.76378772032348, 121.76378772032349),24,-7,13,yes,x,5,x,0.606414700001551,1,58,test1,3,0.6066600000012841,-52.0
6,lxy,f,19,r,1,(-172.20000000000002, 2.1088417881317425e-14),25,-7,13,yes,x,5,x,0.6173488000003999,1,59,test1,3,0.6180145999987872,-52.0
6,lxy,f,19,r,1,(121.76378772032346, -121.76378772032352),28,3,1,yes,x,5,m,0.7534331999995629,0,60,test1,3,0.7540107999993779,-42.0
6,lxy,f,19,r,1,(-121.76378772032352, -121.76378772032348),26,-5,12,yes,x,5,x,0.5772334000012052,1,61,test1,3,0.5774010999994061,-50.0
6,lxy,f,19,r,1,(121.76378772032349, 121.76378772032349),22,25,4,yes,x,5,x,0.5202936000005138,1,62,test1,3,0.5203958000001876,-20.0
6,lxy,f,19,r,1,(-121.76378772032352, -121.76378772032348),26,-25,14,no,m,6,m,0.7038123999991512,1,63,test1,3,0.7041406000007555,-20.0
6,lxy,f,19,r,1,(-172.20000000000002, 2.1088417881317425e-14),25,25,4,no,m,6,m,0.6819779999987077,1,64,test1,3,0.6820917999993981,-20.0
6,lxy,f,19,r,1,(-121.76378772032348, 121.76378772032349),24,-5,12,no,m,6,m,0.6875491999999213,1,65,test1,3,0.6877266000010422,-20.0
6,lxy,f,19,r,1,(121.76378772032346, -121.76378772032352),28,-25,14,no,m,6,m,0.631431199999497,1,66,test1,3,0.6317077000003337,-20.0
6,lxy,f,19,r,1,(121.76378772032349, 121.76378772032349),22,5,2,no,m,6,m,0.9914764999994077,1,67,test1,3,0.9920994000003702,-20.0
6,lxy,f,19,r,1,(-121.76378772032352, -121.76378772032348),26,-3,11,yes,x,5,x,0.9118830999996135,1,68,test1,3,0.9119993999993312,-48.0
6,lxy,f,19,r,1,(121.76378772032349, 121.76378772032349),22,-3,11,yes,x,5,m,0.973981700000877,0,69,test1,3,0.974430599999323,-48.0
6,lxy,f,19,r,1,(121.76378772032349, 121.76378772032349),22,7,3,no,m,6,m,0.7269892000003892,1,70,test1,3,0.7274166000006517,-48.0
6,lxy,f,19,r,1,(121.76378772032349, 121.76378772032349),22,25,4,no,m,6,m,0.7890250000000378,1,71,test1,3,0.7891412999997556,-48.0
6,lxy,f,19,r,1,(172.20000000000002, 0.0),21,-3,11,yes,x,5,m,0.8938250999999582,0,72,test1,3,0.8939697000005253,-48.0
6,lxy,f,19,r,1,(-121.76378772032352, -121.76378772032348),26,5,2,yes,x,5,x,0.5325102999995579,1,73,test1,3,0.5326509999995324,-40.0
6,lxy,f,19,r,1,(1.0544208940658713e-14, 172.20000000000002),23,5,2,yes,x,5,x,0.5283509000000777,1,74,test1,3,0.5284687000003032,-40.0
6,lxy,f,19,r,1,(-121.76378772032348, 121.76378772032349),24,-25,14,yes,x,5,x,0.49589879999984987,1,75,test1,3,0.49604779999936,-70.0
6,lxy,f,19,r,1,(121.76378772032349, 121.76378772032349),22,-3,11,no,m,6,m,1.168301199999405,1,76,test1,3,1.1689408999991429,-70.0
6,lxy,f,19,r,1,(-172.20000000000002, 2.1088417881317425e-14),25,-5,12,no,m,6,m,0.8127659000001586,1,77,test1,3,0.8128809000008914,-70.0
6,lxy,f,19,r,1,(121.76378772032346, -121.76378772032352),28,5,2,yes,x,5,x,0.5904123999989679,1,78,test1,3,0.5905268999995315,-40.0
6,lxy,f,19,r,1,(172.20000000000002, 0.0),21,-25,14,yes,x,5,x,0.5241678999991564,1,79,test1,3,0.5243659999996453,-70.0
6,lxy,f,19,r,1,(121.76378772032349, 121.76378772032349),22,5,2,yes,x,5,x,0.8526899999997113,1,80,test1,3,0.8527938000006543,-40.0
6,lxy,f,19,r,1,(172.20000000000002, 0.0),21,7,3,no,m,6,m,0.7981052000013733,1,81,test1,3,0.7982616999997845,-40.0
6,lxy,f,19,r,1,(121.76378772032346, -121.76378772032352),28,-7,13,yes,x,5,x,1.1794131000006018,1,82,test1,3,1.1795646000009583,-52.0
6,lxy,f,19,r,1,(-172.20000000000002, 2.1088417881317425e-14),25,25,4,yes,x,5,x,0.5150048000014067,1,83,test1,3,0.51511550000032,-20.0
6,lxy,f,19,r,1,(-121.76378772032352, -121.76378772032348),26,-7,13,yes,x,5,x,0.8329381000003195,1,84,test1,3,0.8330414000010933,-52.0
6,lxy,f,19,r,1,(-3.163262682197613e-14, -172.20000000000002),27,3,1,yes,x,5,m,0.8441832999997132,0,85,test1,3,0.8446582999986276,-42.0
6,lxy,f,19,r,1,(121.76378772032349, 121.76378772032349),22,-7,13,yes,x,5,x,0.6153792000004614,1,86,test1,3,0.615535999999338,-52.0
6,lxy,f,19,r,1,(-172.20000000000002, 2.1088417881317425e-14),25,7,3,yes,x,5,x,0.5058988999990106,1,87,test1,3,0.5060014999999112,-38.0
6,lxy,f,19,r,1,(-3.163262682197613e-14, -172.20000000000002),27,25,4,yes,x,5,x,0.6953469000000041,1,88,test1,3,0.695499600000403,-20.0
6,lxy,f,19,r,1,(-172.20000000000002, 2.1088417881317425e-14),25,3,1,yes,x,5,m,0.9022134999995615,0,89,test1,3,0.9023159000007581,-42.0
6,lxy,f,19,r,1,(-3.163262682197613e-14, -172.20000000000002),27,5,2,yes,x,5,x,0.6059310000000551,1,90,test1,3,0.6062431999998807,-40.0
6,lxy,f,19,r,1,(121.76378772032346, -121.76378772032352),28,3,1,yes,x,5,m,0.8039693999999145,0,91,test1,3,0.8043903999987378,-42.0
6,lxy,f,19,r,1,(-121.76378772032348, 121.76378772032349),24,-25,14,no,m,6,m,0.8028740999998263,1,92,test1,3,0.8032548000010138,-42.0
6,lxy,f,19,r,1,(1.0544208940658713e-14, 172.20000000000002),23,-5,12,yes,x,5,x,0.626311899999564,1,93,test1,3,0.6266327000012097,-50.0
6,lxy,f,19,r,1,(172.20000000000002, 0.0),21,-7,13,yes,x,5,x,0.6640363999995316,1,94,test1,3,0.6644156000002113,-52.0
6,lxy,f,19,r,1,(172.20000000000002, 0.0),21,-3,11,yes,x,5,m,0.8395749000010255,0,95,test1,3,0.8398075999994035,-48.0
6,lxy,f,19,r,1,(1.0544208940658713e-14, 172.20000000000002),23,25,4,no,m,6,m,0.7164021000007779,1,96,test1,3,0.716531699999905,-48.0
6,lxy,f,19,r,1,(-172.20000000000002, 2.1088417881317425e-14),25,5,2,yes,x,5,x,0.6284734000000753,1,1,test2,3,0.628594300000259,-40.0
6,lxy,f,19,r,1,(-121.76378772032348, 121.76378772032349),24,-25,14,yes,x,5,x,0.37685810000039055,1,2,test2,3,0.37701319999905536,-70.0
6,lxy,f,19,r,1,(-172.20000000000002, 2.1088417881317425e-14),25,-3,11,yes,x,5,x,0.4495409999999538,1,3,test2,3,0.4500488999983645,-48.0
6,lxy,f,19,r,1,(121.76378772032346, -121.76378772032352),28,-3,11,yes,x,5,m,0.7029267000016262,0,4,test2,3,0.7031456000004255,-48.0
6,lxy,f,19,r,1,(-172.20000000000002, 2.1088417881317425e-14),25,-7,13,yes,x,5,x,0.4680151000011392,1,5,test2,3,0.4682826999996905,-52.0
6,lxy,f,19,r,1,(-121.76378772032352, -121.76378772032348),26,25,4,yes,x,5,x,0.4937843999996403,1,6,test2,3,0.4939054999995278,-20.0
6,lxy,f,19,r,1,(-172.20000000000002, 2.1088417881317425e-14),25,7,3,no,m,6,m,0.6021753000004537,1,7,test2,3,0.6022728999996616,-20.0
6,lxy,f,19,r,1,(1.0544208940658713e-14, 172.20000000000002),23,5,2,no,m,6,x,0.6618230000003678,0,8,test2,3,0.6619523999997909,-20.0
6,lxy,f,19,r,1,(1.0544208940658713e-14, 172.20000000000002),23,3,1,yes,x,5,x,0.3925789999993867,1,9,test2,3,0.3928673999998864,-42.0
6,lxy,f,19,r,1,(121.76378772032346, -121.76378772032352),28,-25,14,yes,x,5,m,0.45758679999926244,0,10,test2,3,0.45778299999983574,-70.0
6,lxy,f,19,r,1,(-121.76378772032348, 121.76378772032349),24,5,2,yes,x,5,x,0.7671584999989136,1,11,test2,3,0.7676504999999452,-40.0
6,lxy,f,19,r,1,(-172.20000000000002, 2.1088417881317425e-14),25,-3,11,yes,x,5,x,0.9372507000007317,1,12,test2,3,0.9374982999997883,-48.0
6,lxy,f,19,r,1,(121.76378772032346, -121.76378772032352),28,7,3,yes,x,5,x,0.6610582000012073,1,13,test2,3,0.6613094000003912,-38.0
6,lxy,f,19,r,1,(-3.163262682197613e-14, -172.20000000000002),27,-5,12,yes,x,5,x,0.8257070999989082,1,14,test2,3,0.8258193000001484,-50.0
6,lxy,f,19,r,1,(-121.76378772032352, -121.76378772032348),26,7,3,yes,x,5,x,0.45428139999967243,1,15,test2,3,0.4547101999996812,-38.0
6,lxy,f,19,r,1,(-172.20000000000002, 2.1088417881317425e-14),25,3,1,yes,x,5,x,0.7358023999986472,1,16,test2,3,0.7359620000006544,-42.0
6,lxy,f,19,r,1,(172.20000000000002, 0.0),21,25,4,yes,x,5,x,0.596876900001007,1,17,test2,3,0.5971388999987539,-20.0
6,lxy,f,19,r,1,(121.76378772032349, 121.76378772032349),22,3,1,yes,x,5,m,0.6209864000011294,0,18,test2,3,0.6216077000008227,-42.0
6,lxy,f,19,r,1,(172.20000000000002, 0.0),21,-25,14,yes,x,5,m,0.6020535999996355,0,19,test2,3,0.6026713000010204,-70.0
6,lxy,f,19,r,1,(121.76378772032346, -121.76378772032352),28,25,4,yes,x,5,x,0.4718718000003719,1,20,test2,3,0.4721977999997762,-20.0
6,lxy,f,19,r,1,(-121.76378772032348, 121.76378772032349),24,7,3,yes,x,5,x,0.5073878000002878,1,21,test2,3,0.5076055999998061,-38.0
6,lxy,f,19,r,1,(-121.76378772032352, -121.76378772032348),26,3,1,no,m,6,x,0.768655600000784,0,22,test2,3,0.7687824000004184,-38.0
6,lxy,f,19,r,1,(121.76378772032346, -121.76378772032352),28,-25,14,yes,x,5,m,1.1395818000000872,0,23,test2,3,1.139734899999894,-70.0
6,lxy,f,19,r,1,(1.0544208940658713e-14, 172.20000000000002),23,3,1,yes,x,5,m,0.765255199999956,0,24,test2,3,0.7654399000002741,-42.0
6,lxy,f,19,r,1,(1.0544208940658713e-14, 172.20000000000002),23,-7,13,yes,x,5,x,0.47581589999936114,1,25,test2,3,0.4760609000004479,-52.0
6,lxy,f,19,r,1,(121.76378772032349, 121.76378772032349),22,-25,14,yes,x,5,x,0.4033433000004152,1,26,test2,3,0.4035536999999749,-70.0
6,lxy,f,19,r,1,(-121.76378772032348, 121.76378772032349),24,5,2,no,m,6,m,0.684117900000274,1,27,test2,3,0.6843507000012323,-70.0
6,lxy,f,19,r,1,(-121.76378772032348, 121.76378772032349),24,3,1,yes,x,5,x,0.7330539999984467,1,28,test2,3,0.7331729999987147,-42.0
6,lxy,f,19,r,1,(-121.76378772032352, -121.76378772032348),26,-7,13,yes,x,5,x,0.5446748000013031,1,29,test2,3,0.5449926999990566,-52.0
6,lxy,f,19,r,1,(121.76378772032346, -121.76378772032352),28,7,3,no,m,6,m,0.7666370000006282,1,30,test2,3,0.7669201999997313,-52.0
6,lxy,f,19,r,1,(-121.76378772032348, 121.76378772032349),24,-7,13,no,m,6,m,0.6716777999990882,1,31,test2,3,0.671822999998767,-52.0
6,lxy,f,19,r,1,(121.76378772032346, -121.76378772032352),28,7,3,yes,x,5,x,0.7165027999999438,1,32,test2,3,0.7166698000000906,-38.0
6,lxy,f,19,r,1,(-121.76378772032352, -121.76378772032348),26,7,3,yes,x,5,x,0.5168026999999711,1,33,test2,3,0.5169605000010051,-38.0
6,lxy,f,19,r,1,(-3.163262682197613e-14, -172.20000000000002),27,-25,14,yes,x,5,x,0.4722161999998207,1,34,test2,3,0.4725692000010895,-70.0
6,lxy,f,19,r,1,(-172.20000000000002, 2.1088417881317425e-14),25,-7,13,no,m,6,m,0.9400922000004357,1,35,test2,3,0.940325199999279,-70.0
6,lxy,f,19,r,1,(121.76378772032349, 121.76378772032349),22,-5,12,yes,x,5,x,0.6207142999992357,1,36,test2,3,0.6213671000004979,-50.0
6,lxy,f,19,r,1,(-172.20000000000002, 2.1088417881317425e-14),25,-5,12,yes,x,5,m,0.7011743999992177,0,37,test2,3,0.7013282999996591,-50.0
6,lxy,f,19,r,1,(-121.76378772032352, -121.76378772032348),26,-3,11,no,m,6,m,0.7029796999995597,1,38,test2,3,0.7031024999996589,-50.0
6,lxy,f,19,r,1,(172.20000000000002, 0.0),21,-25,14,no,m,6,x,0.6808585999988281,0,39,test2,3,0.6812083999993774,-50.0
6,lxy,f,19,r,1,(-121.76378772032348, 121.76378772032349),24,3,1,no,m,6,m,0.881188999999722,1,40,test2,3,0.8813979000005929,-50.0
6,lxy,f,19,r,1,(121.76378772032346, -121.76378772032352),28,5,2,no,m,6,m,0.9553182999989076,1,41,test2,3,0.9558901999989757,-50.0
6,lxy,f,19,r,1,(172.20000000000002, 0.0),21,3,1,yes,x,5,m,1.032728700000007,0,42,test2,3,1.032821700000568,-42.0
6,lxy,f,19,r,1,(121.76378772032349, 121.76378772032349),22,7,3,yes,x,5,x,0.6386555000008229,1,43,test2,3,0.6387585000011313,-38.0
6,lxy,f,19,r,1,(1.0544208940658713e-14, 172.20000000000002),23,3,1,no,m,6,m,0.7694630000005418,1,44,test2,3,0.7697021999993012,-38.0
6,lxy,f,19,r,1,(121.76378772032346, -121.76378772032352),28,5,2,yes,x,5,x,0.999794600000314,1,45,test2,3,0.9998931999998604,-40.0
6,lxy,f,19,r,1,(121.76378772032346, -121.76378772032352),28,-3,11,no,m,6,m,0.9267342000002827,1,46,test2,3,0.9270156999991741,-40.0
6,lxy,f,19,r,1,(121.76378772032349, 121.76378772032349),22,3,1,no,m,6,m,0.8264807999985351,1,47,test2,3,0.8265959000000294,-40.0
6,lxy,f,19,r,1,(-121.76378772032348, 121.76378772032349),24,25,4,yes,x,5,x,0.6146174000004976,1,48,test2,3,0.614855499999976,-20.0
6,lxy,f,19,r,1,(172.20000000000002, 0.0),21,5,2,no,m,6,m,0.8365714999999909,1,49,test2,3,0.8369136999990587,-20.0
6,lxy,f,19,r,1,(-121.76378772032352, -121.76378772032348),26,-5,12,yes,x,5,x,0.5255164999998669,1,50,test2,3,0.5256484000001365,-50.0
6,lxy,f,19,r,1,(1.0544208940658713e-14, 172.20000000000002),23,-7,13,no,m,6,m,0.6843360000002576,1,51,test2,3,0.6845768000002863,-50.0
6,lxy,f,19,r,1,(1.0544208940658713e-14, 172.20000000000002),23,-25,14,yes,x,5,x,0.6176491000005626,1,52,test2,3,0.617962999998781,-70.0
6,lxy,f,19,r,1,(-121.76378772032348, 121.76378772032349),24,-3,11,yes,x,5,m,0.7621643999991647,0,53,test2,3,0.7622678000006999,-48.0
6,lxy,f,19,r,1,(1.0544208940658713e-14, 172.20000000000002),23,-5,12,yes,x,5,x,1.471411700000317,1,54,test2,3,1.4717457999995531,-50.0
6,lxy,f,19,r,1,(1.0544208940658713e-14, 172.20000000000002),23,-7,13,yes,x,5,x,0.5963828000003559,1,55,test2,3,0.5965680999997858,-52.0
6,lxy,f,19,r,1,(-3.163262682197613e-14, -172.20000000000002),27,-5,12,no,m,6,m,0.702125600000727,1,56,test2,3,0.7023448999989341,-52.0
6,lxy,f,19,r,1,(172.20000000000002, 0.0),21,7,3,yes,x,5,x,1.122451600000204,1,57,test2,3,1.1225659000010637,-38.0
6,lxy,f,19,r,1,(-121.76378772032352, -121.76378772032348),26,3,1,yes,x,5,x,1.0927796000014496,1,58,test2,3,1.092987500000163,-42.0
6,lxy,f,19,r,1,(172.20000000000002, 0.0),21,-7,13,yes,x,5,x,0.7109808000004705,1,59,test2,3,0.7112876000010147,-52.0
6,lxy,f,19,r,1,(-3.163262682197613e-14, -172.20000000000002),27,5,2,no,m,6,m,0.8221654999997554,1,60,test2,3,0.8224891999998363,-52.0
6,lxy,f,19,r,1,(-121.76378772032352, -121.76378772032348),26,5,2,no,m,6,m,0.9830789999996341,1,61,test2,3,0.9833087999995769,-52.0
6,lxy,f,19,r,1,(121.76378772032349, 121.76378772032349),22,5,2,yes,x,5,x,1.0306446000013239,1,62,test2,3,1.030882200000633,-40.0
6,lxy,f,19,r,1,(-3.163262682197613e-14, -172.20000000000002),27,7,3,no,m,6,m,0.803278200000932,1,63,test2,3,0.8033765999989555,-40.0
6,lxy,f,19,r,1,(-3.163262682197613e-14, -172.20000000000002),27,3,1,yes,x,5,x,0.9120947000010347,1,64,test2,3,0.9122375999995711,-42.0
6,lxy,f,19,r,1,(172.20000000000002, 0.0),21,5,2,yes,x,5,x,0.5738492000000406,1,65,test2,3,0.5741201000000729,-40.0
6,lxy,f,19,r,1,(-172.20000000000002, 2.1088417881317425e-14),25,-25,14,yes,x,5,x,0.46468780000031984,1,66,test2,3,0.4652666000001773,-70.0
6,lxy,f,19,r,1,(-121.76378772032352, -121.76378772032348),26,25,4,yes,x,5,x,0.49324260000139475,1,67,test2,3,0.4933411999991222,-20.0
6,lxy,f,19,r,1,(-172.20000000000002, 2.1088417881317425e-14),25,-25,14,no,m,6,m,0.7476174999992509,1,68,test2,3,0.7478604000007181,-20.0
6,lxy,f,19,r,1,(172.20000000000002, 0.0),21,5,2,yes,x,5,x,0.9145549999993818,1,69,test2,3,0.9147783999997046,-40.0
6,lxy,f,19,r,1,(1.0544208940658713e-14, 172.20000000000002),23,25,4,yes,x,5,x,0.6968379999998433,1,70,test2,3,0.6969976000000315,-20.0
6,lxy,f,19,r,1,(-121.76378772032352, -121.76378772032348),26,7,3,no,m,6,m,0.7375114999995276,1,71,test2,3,0.7379505999997491,-20.0
6,lxy,f,19,r,1,(-3.163262682197613e-14, -172.20000000000002),27,5,2,yes,x,5,x,0.7253711000012117,1,72,test2,3,0.7254756999991514,-40.0
6,lxy,f,19,r,1,(-121.76378772032348, 121.76378772032349),24,-7,13,yes,x,5,x,0.49233230000027106,1,73,test2,3,0.49248220000117726,-52.0
6,lxy,f,19,r,1,(-3.163262682197613e-14, -172.20000000000002),27,-3,11,yes,x,5,m,0.7552377000010893,0,74,test2,3,0.7556397999996989,-48.0
6,lxy,f,19,r,1,(121.76378772032349, 121.76378772032349),22,-5,12,no,m,6,m,0.8256328999996185,1,75,test2,3,0.8259649999999965,-48.0
6,lxy,f,19,r,1,(1.0544208940658713e-14, 172.20000000000002),23,-3,11,no,m,6,x,0.812432999999146,0,76,test2,3,0.8125875999994605,-48.0
6,lxy,f,19,r,1,(121.76378772032349, 121.76378772032349),22,25,4,yes,x,5,x,0.5997556000002078,1,77,test2,3,0.6002996000006533,-20.0
6,lxy,f,19,r,1,(172.20000000000002, 0.0),21,7,3,yes,x,5,m,0.7762294000003749,0,78,test2,3,0.7765204000006634,-38.0
6,lxy,f,19,r,1,(1.0544208940658713e-14, 172.20000000000002),23,5,2,yes,x,5,x,0.6288177000005817,1,79,test2,3,0.6291102999985014,-40.0
6,lxy,f,19,r,1,(172.20000000000002, 0.0),21,-7,13,no,m,6,m,0.8698068000012427,1,80,test2,3,0.870050599998649,-40.0
6,lxy,f,19,r,1,(172.20000000000002, 0.0),21,-3,11,no,m,6,m,1.0682402000002185,1,81,test2,3,1.0685567000000447,-40.0
6,lxy,f,19,r,1,(-3.163262682197613e-14, -172.20000000000002),27,-7,13,yes,x,5,x,0.5852571000013995,1,82,test2,3,0.5853933000016696,-52.0
6,lxy,f,19,r,1,(-3.163262682197613e-14, -172.20000000000002),27,-5,12,yes,x,5,x,0.559352600001148,1,83,test2,3,0.5596636999998736,-50.0
6,lxy,f,19,r,1,(1.0544208940658713e-14, 172.20000000000002),23,7,3,yes,x,5,x,0.4732184000004054,1,84,test2,3,0.4736386999993556,-38.0
6,lxy,f,19,r,1,(121.76378772032346, -121.76378772032352),28,-5,12,yes,x,5,m,0.8876876999984233,0,85,test2,3,0.8878582999986975,-50.0
6,lxy,f,19,r,1,(172.20000000000002, 0.0),21,3,1,no,m,6,x,1.002603499999168,0,86,test2,3,1.0027819000006275,-50.0
6,lxy,f,19,r,1,(-121.76378772032348, 121.76378772032349),24,7,3,no,m,6,m,0.9413294999994832,1,87,test2,3,0.9414268000000448,-50.0
6,lxy,f,19,r,1,(-121.76378772032352, -121.76378772032348),26,-25,14,yes,x,5,x,1.3652839999995194,1,88,test2,3,1.3655159000009007,-70.0
6,lxy,f,19,r,1,(-172.20000000000002, 2.1088417881317425e-14),25,-3,11,no,m,6,m,0.6694290000014007,1,89,test2,3,0.669528899999932,-70.0
6,lxy,f,19,r,1,(121.76378772032349, 121.76378772032349),22,-7,13,no,m,6,m,1.1293581000008999,1,90,test2,3,1.1296433999996225,-70.0
6,lxy,f,19,r,1,(-3.163262682197613e-14, -172.20000000000002),27,-25,14,no,m,6,m,0.9251456999991206,1,91,test2,3,0.9252426999992167,-70.0
6,lxy,f,19,r,1,(-3.163262682197613e-14, -172.20000000000002),27,-7,13,no,m,6,m,0.7716472000010981,1,92,test2,3,0.7717505999989953,-70.0
6,lxy,f,19,r,1,(-172.20000000000002, 2.1088417881317425e-14),25,-25,14,yes,x,5,x,0.5125836999995954,1,93,test2,3,0.5127007000010053,-70.0
6,lxy,f,19,r,1,(172.20000000000002, 0.0),21,-5,12,no,m,6,m,0.7034923999999592,1,94,test2,3,0.7036272999994253,-70.0
6,lxy,f,19,r,1,(-121.76378772032348, 121.76378772032349),24,7,3,yes,x,5,x,0.5655984999993962,1,95,test2,3,0.5657459999983985,-38.0
6,lxy,f,19,r,1,(-172.20000000000002, 2.1088417881317425e-14),25,-5,12,yes,x,5,m,0.6582593999992241,0,96,test2,3,0.6583879999998317,-50.0
6,lxy,f,19,r,1,(121.76378772032349, 121.76378772032349),22,-3,11,yes,x,5,m,0.8883050999993429,0,1,test1,4,0.888444399999571,-48.0
6,lxy,f,19,r,1,(-121.76378772032348, 121.76378772032349),24,5,2,yes,x,5,x,0.5539544999992358,1,2,test1,4,0.5541952000003221,-40.0
6,lxy,f,19,r,1,(-121.76378772032348, 121.76378772032349),24,-3,11,no,m,6,m,0.8397934999993595,1,3,test1,4,0.8400849999998172,-40.0
6,lxy,f,19,r,1,(-172.20000000000002, 2.1088417881317425e-14),25,5,2,no,m,6,m,1.0597748000000138,1,4,test1,4,1.06007370000043,-40.0
6,lxy,f,19,r,1,(-3.163262682197613e-14, -172.20000000000002),27,7,3,yes,x,5,x,0.6620448000012402,1,5,test1,4,0.662141499999052,-38.0
6,lxy,f,19,r,1,(-121.76378772032352, -121.76378772032348),26,25,4,no,m,6,m,0.7231386999992537,1,6,test1,4,0.723597800000789,-38.0
6,lxy,f,19,r,1,(121.76378772032346, -121.76378772032352),28,-5,12,no,m,6,x,0.8395564000002196,0,7,test1,4,0.8403576000000612,-38.0
6,lxy,f,19,r,1,(-121.76378772032352, -121.76378772032348),26,-7,13,no,m,6,m,0.9620477000007668,1,8,test1,4,0.962473300000056,-38.0
6,lxy,f,19,r,1,(-121.76378772032348, 121.76378772032349),24,25,4,yes,x,5,x,0.6535492000002705,1,9,test1,4,0.6537676000007195,-20.0
6,lxy,f,19,r,1,(121.76378772032349, 121.76378772032349),22,-25,14,no,m,6,m,0.7297875000003842,1,10,test1,4,0.7301487999993697,-20.0
6,lxy,f,19,r,1,(-172.20000000000002, 2.1088417881317425e-14),25,25,4,yes,x,5,x,0.6468022999997629,1,11,test1,4,0.6470727000014449,-20.0
6,lxy,f,19,r,1,(121.76378772032346, -121.76378772032352),28,25,4,no,m,6,m,0.6711271999993187,1,12,test1,4,0.671701999999641,-20.0
6,lxy,f,19,r,1,(-172.20000000000002, 2.1088417881317425e-14),25,3,1,no,m,6,m,0.9814714999993157,1,13,test1,4,0.9815980999992462,-20.0
6,lxy,f,19,r,1,(121.76378772032346, -121.76378772032352),28,3,1,no,m,6,m,0.6461775999996462,1,14,test1,4,0.6464059999998426,-20.0
6,lxy,f,19,r,1,(172.20000000000002, 0.0),21,-5,12,yes,x,5,m,1.0945747999994637,0,15,test1,4,1.0946955999988859,-50.0
6,lxy,f,19,r,1,(172.20000000000002, 0.0),21,3,1,yes,x,5,m,0.7712716000005457,0,16,test1,4,0.7714025000004767,-42.0
6,lxy,f,19,r,1,(-121.76378772032352, -121.76378772032348),26,3,1,yes,x,5,x,0.5934897000006458,1,17,test1,4,0.5936036999992211,-42.0
6,lxy,f,19,r,1,(121.76378772032346, -121.76378772032352),28,-7,13,yes,x,5,x,0.5129092999995919,1,18,test1,4,0.5130647999994835,-52.0
6,lxy,f,19,r,1,(-121.76378772032352, -121.76378772032348),26,-5,12,no,m,6,x,0.5909095000006346,0,19,test1,4,0.5911427000010008,-52.0
6,lxy,f,19,r,1,(-172.20000000000002, 2.1088417881317425e-14),25,7,3,yes,x,5,x,0.6863150999997742,1,20,test1,4,0.6866174999995565,-38.0
6,lxy,f,19,r,1,(1.0544208940658713e-14, 172.20000000000002),23,-3,11,yes,x,5,m,0.860558200000014,0,21,test1,4,0.8607948999997461,-48.0
6,lxy,f,19,r,1,(121.76378772032349, 121.76378772032349),22,3,1,yes,x,5,x,0.6293273999999656,1,22,test1,4,0.6294275000000198,-42.0
6,lxy,f,19,r,1,(-3.163262682197613e-14, -172.20000000000002),27,-7,13,yes,x,5,x,0.5553436999998667,1,23,test1,4,0.5555526000007376,-52.0
6,lxy,f,19,r,1,(-121.76378772032348, 121.76378772032349),24,-3,11,yes,x,5,x,0.6412202999999863,1,24,test1,4,0.6413320999999996,-48.0
6,lxy,f,19,r,1,(-3.163262682197613e-14, -172.20000000000002),27,7,3,yes,x,5,x,0.8205510999996477,1,25,test1,4,0.8206766000002972,-38.0
6,lxy,f,19,r,1,(121.76378772032346, -121.76378772032352),28,25,4,yes,x,5,x,0.7176438000005874,1,26,test1,4,0.7178223999999318,-20.0
6,lxy,f,19,r,1,(-3.163262682197613e-14, -172.20000000000002),27,-3,11,yes,x,5,x,0.6906834999990679,1,27,test1,4,0.6907838999995874,-48.0
6,lxy,f,19,r,1,(-121.76378772032352, -121.76378772032348),26,5,2,yes,x,5,x,0.9079106000008323,1,28,test1,4,0.9081368999995902,-40.0
6,lxy,f,19,r,1,(-3.163262682197613e-14, -172.20000000000002),27,-3,11,no,m,6,m,1.2016196999993554,1,29,test1,4,1.2017527999996673,-40.0
6,lxy,f,19,r,1,(-121.76378772032352, -121.76378772032348),26,-3,11,yes,x,5,x,1.0211849999996048,1,30,test1,4,1.0212869000006322,-48.0
6,lxy,f,19,r,1,(1.0544208940658713e-14, 172.20000000000002),23,7,3,yes,x,5,x,0.6711223999991489,1,31,test1,4,0.6712372999991203,-38.0
6,lxy,f,19,r,1,(121.76378772032346, -121.76378772032352),28,-3,11,yes,x,5,m,0.8019041999996261,0,32,test1,4,0.8020211999992171,-48.0
6,lxy,f,19,r,1,(121.76378772032346, -121.76378772032352),28,-5,12,yes,x,5,x,1.010300299998562,1,33,test1,4,1.0105460999984643,-50.0
6,lxy,f,19,r,1,(-121.76378772032348, 121.76378772032349),24,25,4,no,m,6,x,1.0741519000002882,0,34,test1,4,1.0745291999992332,-50.0
6,lxy,f,19,r,1,(-121.76378772032352, -121.76378772032348),26,-25,14,yes,x,5,x,0.6677236999985325,1,35,test1,4,0.6683330999985628,-70.0
6,lxy,f,19,r,1,(1.0544208940658713e-14, 172.20000000000002),23,7,3,no,m,6,m,0.7419389999995474,1,36,test1,4,0.7422662000008131,-70.0
6,lxy,f,19,r,1,(1.0544208940658713e-14, 172.20000000000002),23,-5,12,no,m,6,m,0.6984093999999459,1,37,test1,4,0.6985509999994974,-70.0
6,lxy,f,19,r,1,(121.76378772032349, 121.76378772032349),22,7,3,yes,x,5,x,0.7566449999994802,1,38,test1,4,0.7568869999995513,-38.0
6,lxy,f,19,r,1,(121.76378772032349, 121.76378772032349),22,-5,12,yes,x,5,x,1.059137299998838,1,39,test1,4,1.0594043000000966,-50.0
6,lxy,f,19,r,1,(121.76378772032346, -121.76378772032352),28,-7,13,no,m,6,m,0.7944363000005978,1,40,test1,4,0.794537699999637,-50.0
6,lxy,f,19,r,1,(172.20000000000002, 0.0),21,25,4,no,m,6,m,0.6578445999984979,1,41,test1,4,0.6582345999995596,-50.0
6,lxy,f,19,r,1,(-121.76378772032348, 121.76378772032349),24,-5,12,yes,x,5,m,0.684386099999756,0,42,test1,4,0.6852068000007421,-50.0
6,lxy,f,19,r,1,(1.0544208940658713e-14, 172.20000000000002),23,-25,14,no,m,6,m,0.834885199999917,1,43,test1,4,0.8352572999992844,-50.0
6,lxy,f,19,r,1,(1.0544208940658713e-14, 172.20000000000002),23,25,4,yes,x,5,x,0.5691047999989678,1,44,test1,4,0.5693235999988246,-20.0
6,lxy,f,19,r,1,(-3.163262682197613e-14, -172.20000000000002),27,-25,14,yes,x,5,x,0.5240123000003223,1,45,test1,4,0.5242469999993773,-70.0
6,lxy,f,19,r,1,(172.20000000000002, 0.0),21,25,4,yes,x,5,x,0.42000109999935376,1,46,test1,4,0.4201002999998309,-20.0
6,lxy,f,19,r,1,(-121.76378772032348, 121.76378772032349),24,-5,12,yes,x,5,m,0.882905499998742,0,47,test1,4,0.8830032000005303,-50.0
6,lxy,f,19,r,1,(-3.163262682197613e-14, -172.20000000000002),27,3,1,no,m,6,m,0.9135201999997662,1,48,test1,4,0.913809300000139,-50.0
6,lxy,f,19,r,1,(1.0544208940658713e-14, 172.20000000000002),23,-3,11,yes,x,5,x,1.060408399998778,1,49,test1,4,1.0608097999993333,-48.0
6,lxy,f,19,r,1,(-172.20000000000002, 2.1088417881317425e-14),25,5,2,yes,x,5,m,1.2029342999994697,0,50,test1,4,1.2030556999998225,-40.0
6,lxy,f,19,r,1,(-121.76378772032348, 121.76378772032349),24,3,1,yes,x,5,x,1.0448656000007759,1,51,test1,4,1.044999399999142,-42.0
6,lxy,f,19,r,1,(172.20000000000002, 0.0),21,-5,12,yes,x,5,x,0.7442685999994865,1,52,test1,4,0.7443714000000909,-50.0
6,lxy,f,19,r,1,(-3.163262682197613e-14, -172.20000000000002),27,25,4,no,m,6,m,0.9866292000006069,1,53,test1,4,0.9867288999994344,-50.0
6,lxy,f,19,r,1,(-3.163262682197613e-14, -172.20000000000002),27,25,4,yes,x,5,x,0.716021099999125,1,54,test1,4,0.7161511999984214,-20.0
6,lxy,f,19,r,1,(121.76378772032349, 121.76378772032349),22,-25,14,yes,x,5,x,0.9609974000013608,1,55,test1,4,0.9611090000016702,-70.0
6,lxy,f,19,r,1,(1.0544208940658713e-14, 172.20000000000002),23,-25,14,yes,x,5,x,0.6238570999994408,1,56,test1,4,0.6240821999999753,-70.0
6,lxy,f,19,r,1,(121.76378772032349, 121.76378772032349),22,-7,13,yes,x,5,x,0.7929460999985167,1,57,test1,4,0.7937012999991566,-52.0
6,lxy,f,19,r,1,(-121.76378772032348, 121.76378772032349),24,-7,13,yes,x,5,x,0.7003826000000117,1,58,test1,4,0.7006087999998272,-52.0
6,lxy,f,19,r,1,(-172.20000000000002, 2.1088417881317425e-14),25,-7,13,yes,x,5,x,0.504298400001062,1,59,test1,4,0.5047668999995949,-52.0
6,lxy,f,19,r,1,(121.76378772032346, -121.76378772032352),28,3,1,yes,x,5,m,0.9487833000002865,0,60,test1,4,0.9490650999996433,-42.0
6,lxy,f,19,r,1,(-121.76378772032352, -121.76378772032348),26,-5,12,yes,x,5,x,0.7949644000000262,1,61,test1,4,0.7950676000000385,-50.0
6,lxy,f,19,r,1,(121.76378772032349, 121.76378772032349),22,25,4,yes,x,5,x,0.4754952000002959,1,62,test1,4,0.4756216999994649,-20.0
6,lxy,f,19,r,1,(-121.76378772032352, -121.76378772032348),26,-25,14,no,m,6,m,0.7832749999997759,1,63,test1,4,0.7834318999994139,-20.0
6,lxy,f,19,r,1,(-172.20000000000002, 2.1088417881317425e-14),25,25,4,no,m,6,m,0.7719692999999097,1,64,test1,4,0.7721624000005249,-20.0
6,lxy,f,19,r,1,(-121.76378772032348, 121.76378772032349),24,-5,12,no,m,6,m,0.7511395000001357,1,65,test1,4,0.7512387000006129,-20.0
6,lxy,f,19,r,1,(121.76378772032346, -121.76378772032352),28,-25,14,no,m,6,m,0.8557099000008748,1,66,test1,4,0.8558400000001711,-20.0
6,lxy,f,19,r,1,(121.76378772032349, 121.76378772032349),22,5,2,no,m,6,m,1.1113662000007025,1,67,test1,4,1.1114672000003338,-20.0
6,lxy,f,19,r,1,(-121.76378772032352, -121.76378772032348),26,-3,11,yes,x,5,m,1.1674795999988419,0,68,test1,4,1.1675802999998268,-48.0
6,lxy,f,19,r,1,(121.76378772032349, 121.76378772032349),22,-3,11,yes,x,5,x,0.8304432999993878,1,69,test1,4,0.8307380000005651,-48.0
6,lxy,f,19,r,1,(121.76378772032349, 121.76378772032349),22,7,3,no,m,6,m,1.4434101000006194,1,70,test1,4,1.4441686999998637,-48.0
6,lxy,f,19,r,1,(121.76378772032349, 121.76378772032349),22,25,4,no,m,6,m,1.191692200000034,1,71,test1,4,1.1919556000011653,-48.0
6,lxy,f,19,r,1,(172.20000000000002, 0.0),21,-3,11,yes,x,5,x,1.4654202000001533,1,72,test1,4,1.4656238000006852,-48.0
6,lxy,f,19,r,1,(-121.76378772032352, -121.76378772032348),26,5,2,yes,x,5,x,0.6312219999999797,1,73,test1,4,0.631337299999359,-40.0
6,lxy,f,19,r,1,(1.0544208940658713e-14, 172.20000000000002),23,5,2,yes,x,5,x,0.5484264999995503,1,74,test1,4,0.5486839000004693,-40.0
6,lxy,f,19,r,1,(-121.76378772032348, 121.76378772032349),24,-25,14,yes,x,5,x,0.5140496000003623,1,75,test1,4,0.5142790999998397,-70.0
6,lxy,f,19,r,1,(121.76378772032349, 121.76378772032349),22,-3,11,no,m,6,m,0.8203761000004306,1,76,test1,4,0.8208162999999331,-70.0
6,lxy,f,19,r,1,(-172.20000000000002, 2.1088417881317425e-14),25,-5,12,no,m,6,m,0.6652873000002728,1,77,test1,4,0.6654381000007561,-70.0
6,lxy,f,19,r,1,(121.76378772032346, -121.76378772032352),28,5,2,yes,x,5,x,0.689006699998572,1,78,test1,4,0.6893044999997073,-40.0
6,lxy,f,19,r,1,(172.20000000000002, 0.0),21,-25,14,yes,x,5,x,0.6790813000006892,1,79,test1,4,0.6795088999988366,-70.0
6,lxy,f,19,r,1,(121.76378772032349, 121.76378772032349),22,5,2,yes,x,5,x,0.9711568999991869,1,80,test1,4,0.9712595999990299,-40.0
6,lxy,f,19,r,1,(172.20000000000002, 0.0),21,7,3,no,m,6,m,0.8962249000014708,1,81,test1,4,0.8967665000000125,-40.0
6,lxy,f,19,r,1,(121.76378772032346, -121.76378772032352),28,-7,13,yes,x,5,x,0.9267061000009562,1,82,test1,4,0.9268381000001682,-52.0
6,lxy,f,19,r,1,(-172.20000000000002, 2.1088417881317425e-14),25,25,4,yes,x,5,x,0.7960719999991852,1,83,test1,4,0.7962764000003517,-20.0
6,lxy,f,19,r,1,(-121.76378772032352, -121.76378772032348),26,-7,13,yes,x,5,x,0.6797872000006464,1,84,test1,4,0.6798878000008699,-52.0
6,lxy,f,19,r,1,(-3.163262682197613e-14, -172.20000000000002),27,3,1,yes,x,5,m,1.146179299999858,0,85,test1,4,1.1464307999995071,-42.0
6,lxy,f,19,r,1,(121.76378772032349, 121.76378772032349),22,-7,13,yes,x,5,x,0.6896389000012277,1,86,test1,4,0.6904557999987446,-52.0
6,lxy,f,19,r,1,(-172.20000000000002, 2.1088417881317425e-14),25,7,3,yes,x,5,x,0.967599199999313,1,87,test1,4,0.9680576000009751,-38.0
6,lxy,f,19,r,1,(-3.163262682197613e-14, -172.20000000000002),27,25,4,yes,x,5,x,0.5265638000000763,1,88,test1,4,0.5269910999995773,-20.0
6,lxy,f,19,r,1,(-172.20000000000002, 2.1088417881317425e-14),25,3,1,yes,x,5,m,0.7471943000000465,0,89,test1,4,0.7472999000001437,-42.0
6,lxy,f,19,r,1,(-3.163262682197613e-14, -172.20000000000002),27,5,2,yes,x,5,x,0.5466257999996742,1,90,test1,4,0.5468206000005011,-40.0
6,lxy,f,19,r,1,(121.76378772032346, -121.76378772032352),28,3,1,yes,x,5,m,0.7750504999985424,0,91,test1,4,0.7753808000015852,-42.0
6,lxy,f,19,r,1,(-121.76378772032348, 121.76378772032349),24,-25,14,no,m,6,m,0.9982829000000493,1,92,test1,4,0.9989091999996162,-42.0
6,lxy,f,19,r,1,(1.0544208940658713e-14, 172.20000000000002),23,-5,12,yes,x,5,x,0.5821185000004334,1,93,test1,4,0.5822202999988804,-50.0
6,lxy,f,19,r,1,(172.20000000000002, 0.0),21,-7,13,yes,x,5,x,0.49724720000085654,1,94,test1,4,0.49779279999893333,-52.0
6,lxy,f,19,r,1,(172.20000000000002, 0.0),21,-3,11,yes,x,5,m,0.6860153999987233,0,95,test1,4,0.686133900000641,-48.0
6,lxy,f,19,r,1,(1.0544208940658713e-14, 172.20000000000002),23,25,4,no,m,6,m,0.9745100000000093,1,96,test1,4,0.9747686999999132,-48.0
6,lxy,f,19,r,1,(-172.20000000000002, 2.1088417881317425e-14),25,5,2,yes,x,5,x,0.6485601000003953,1,1,test2,4,0.6487108000001172,-40.0
6,lxy,f,19,r,1,(-121.76378772032348, 121.76378772032349),24,-25,14,yes,x,5,x,0.45254320000094594,1,2,test2,4,0.4527698000001692,-70.0
6,lxy,f,19,r,1,(-172.20000000000002, 2.1088417881317425e-14),25,-3,11,yes,x,5,m,0.6373655999996117,0,3,test2,4,0.6376424000009138,-48.0
6,lxy,f,19,r,1,(121.76378772032346, -121.76378772032352),28,-3,11,yes,x,5,m,0.7381979000001593,0,4,test2,4,0.7383203999997932,-48.0
6,lxy,f,19,r,1,(-172.20000000000002, 2.1088417881317425e-14),25,-7,13,yes,x,5,x,0.4631883000001835,1,5,test2,4,0.4633099000002403,-52.0
6,lxy,f,19,r,1,(-121.76378772032352, -121.76378772032348),26,25,4,yes,x,5,x,0.46542849999968894,1,6,test2,4,0.46552990000054706,-20.0
6,lxy,f,19,r,1,(-172.20000000000002, 2.1088417881317425e-14),25,7,3,no,m,6,m,0.6256860000012239,1,7,test2,4,0.62651200000073,-20.0
6,lxy,f,19,r,1,(1.0544208940658713e-14, 172.20000000000002),23,5,2,no,m,6,m,0.6380090000002383,1,8,test2,4,0.6383716000000277,-20.0
6,lxy,f,19,r,1,(1.0544208940658713e-14, 172.20000000000002),23,3,1,yes,x,5,x,0.5816653000001679,1,9,test2,4,0.5818612999992183,-42.0
6,lxy,f,19,r,1,(121.76378772032346, -121.76378772032352),28,-25,14,yes,x,5,x,0.5424882000006619,1,10,test2,4,0.5427144999994198,-70.0
6,lxy,f,19,r,1,(-121.76378772032348, 121.76378772032349),24,5,2,yes,x,5,x,0.487866400000712,1,11,test2,4,0.4879625000012311,-40.0
6,lxy,f,19,r,1,(-172.20000000000002, 2.1088417881317425e-14),25,-3,11,yes,x,5,m,0.9454244999997172,0,12,test2,4,0.9462793000002421,-48.0
6,lxy,f,19,r,1,(121.76378772032346, -121.76378772032352),28,7,3,yes,x,5,x,0.559182700000747,1,13,test2,4,0.5593669000008958,-38.0
6,lxy,f,19,r,1,(-3.163262682197613e-14, -172.20000000000002),27,-5,12,yes,x,5,x,0.554054800000813,1,14,test2,4,0.554335999999239,-50.0
6,lxy,f,19,r,1,(-121.76378772032352, -121.76378772032348),26,7,3,yes,x,5,x,0.4556340999988606,1,15,test2,4,0.4558250999998563,-38.0
6,lxy,f,19,r,1,(-172.20000000000002, 2.1088417881317425e-14),25,3,1,yes,x,5,m,0.7198059000002104,0,16,test2,4,0.7199323999993794,-42.0
6,lxy,f,19,r,1,(172.20000000000002, 0.0),21,25,4,yes,x,5,x,0.3615687000001344,1,17,test2,4,0.3616784000005282,-20.0
6,lxy,f,19,r,1,(121.76378772032349, 121.76378772032349),22,3,1,yes,x,5,x,1.2720494999994116,1,18,test2,4,1.2721645000001445,-42.0
6,lxy,f,19,r,1,(172.20000000000002, 0.0),21,-25,14,yes,x,5,x,0.46530300000085845,1,19,test2,4,0.46553689999927883,-70.0
6,lxy,f,19,r,1,(121.76378772032346, -121.76378772032352),28,25,4,yes,x,5,x,0.5186780999993061,1,20,test2,4,0.5187769000003755,-20.0
6,lxy,f,19,r,1,(-121.76378772032348, 121.76378772032349),24,7,3,yes,x,5,x,0.5006317000006675,1,21,test2,4,0.5008098999987851,-38.0
6,lxy,f,19,r,1,(-121.76378772032352, -121.76378772032348),26,3,1,no,m,6,m,0.6594745000002149,1,22,test2,4,0.659771799999362,-38.0
6,lxy,f,19,r,1,(121.76378772032346, -121.76378772032352),28,-25,14,yes,x,5,x,0.7950397000004159,1,23,test2,4,0.7951668999994581,-70.0
6,lxy,f,19,r,1,(1.0544208940658713e-14, 172.20000000000002),23,3,1,yes,x,5,m,0.7838857000006101,0,24,test2,4,0.784118399998988,-42.0
6,lxy,f,19,r,1,(1.0544208940658713e-14, 172.20000000000002),23,-7,13,yes,x,5,x,0.5438481000001048,1,25,test2,4,0.5441480999998021,-52.0
6,lxy,f,19,r,1,(121.76378772032349, 121.76378772032349),22,-25,14,yes,x,5,x,0.7476384999990842,1,26,test2,4,0.7479473000003054,-70.0
6,lxy,f,19,r,1,(-121.76378772032348, 121.76378772032349),24,5,2,no,m,6,m,1.0982275000005757,1,27,test2,4,1.0984779999998864,-70.0
6,lxy,f,19,r,1,(-121.76378772032348, 121.76378772032349),24,3,1,yes,x,5,x,0.8837125999998534,1,28,test2,4,0.8838331999995717,-42.0
6,lxy,f,19,r,1,(-121.76378772032352, -121.76378772032348),26,-7,13,yes,x,5,x,0.5916631000000052,1,29,test2,4,0.5917915999998513,-52.0
6,lxy,f,19,r,1,(121.76378772032346, -121.76378772032352),28,7,3,no,m,6,m,1.105241199999,1,30,test2,4,1.1055759999999282,-52.0
6,lxy,f,19,r,1,(-121.76378772032348, 121.76378772032349),24,-7,13,no,m,6,m,1.0375078000015492,1,31,test2,4,1.037888099999691,-52.0
6,lxy,f,19,r,1,(121.76378772032346, -121.76378772032352),28,7,3,yes,x,5,x,0.5899570000001404,1,32,test2,4,0.5900534000011248,-38.0
6,lxy,f,19,r,1,(-121.76378772032352, -121.76378772032348),26,7,3,yes,x,5,x,0.6106328000005306,1,33,test2,4,0.6107338999991043,-38.0
6,lxy,f,19,r,1,(-3.163262682197613e-14, -172.20000000000002),27,-25,14,yes,x,5,x,0.7266992999993818,1,34,test2,4,0.7272075000000768,-70.0
6,lxy,f,19,r,1,(-172.20000000000002, 2.1088417881317425e-14),25,-7,13,no,m,6,m,0.881964500000322,1,35,test2,4,0.8823586999988038,-70.0
6,lxy,f,19,r,1,(121.76378772032349, 121.76378772032349),22,-5,12,yes,x,5,x,1.0552309000013338,1,36,test2,4,1.0553275999991456,-50.0
6,lxy,f,19,r,1,(-172.20000000000002, 2.1088417881317425e-14),25,-5,12,yes,x,5,x,0.5574598999992304,1,37,test2,4,0.5581017999993492,-50.0
6,lxy,f,19,r,1,(-121.76378772032352, -121.76378772032348),26,-3,11,no,m,6,x,0.980163199999879,0,38,test2,4,0.9805654000010691,-50.0
6,lxy,f,19,r,1,(172.20000000000002, 0.0),21,-25,14,no,m,6,m,0.722494600000573,1,39,test2,4,0.7227189000004728,-50.0
6,lxy,f,19,r,1,(-121.76378772032348, 121.76378772032349),24,3,1,no,m,6,m,0.6576854000013554,1,40,test2,4,0.6580827000016143,-50.0
6,lxy,f,19,r,1,(121.76378772032346, -121.76378772032352),28,5,2,no,m,6,m,0.7581546000001254,1,41,test2,4,0.7590949000004912,-50.0
6,lxy,f,19,r,1,(172.20000000000002, 0.0),21,3,1,yes,x,5,m,0.7698917000016081,0,42,test2,4,0.7700060999995912,-42.0
6,lxy,f,19,r,1,(121.76378772032349, 121.76378772032349),22,7,3,yes,x,5,x,0.6540188999988459,1,43,test2,4,0.6541360999999597,-38.0
6,lxy,f,19,r,1,(1.0544208940658713e-14, 172.20000000000002),23,3,1,no,m,6,m,0.882298799999262,1,44,test2,4,0.882570100000521,-38.0
6,lxy,f,19,r,1,(121.76378772032346, -121.76378772032352),28,5,2,yes,x,5,x,0.6473979000002146,1,45,test2,4,0.6475218000014138,-40.0
6,lxy,f,19,r,1,(121.76378772032346, -121.76378772032352),28,-3,11,no,m,6,m,0.7276150999987294,1,46,test2,4,0.7277858999987075,-40.0
6,lxy,f,19,r,1,(121.76378772032349, 121.76378772032349),22,3,1,no,m,6,m,0.6476397000005818,1,47,test2,4,0.6478543000011996,-40.0
6,lxy,f,19,r,1,(-121.76378772032348, 121.76378772032349),24,25,4,yes,x,5,x,0.4137461999998777,1,48,test2,4,0.41387659999963944,-20.0
6,lxy,f,19,r,1,(172.20000000000002, 0.0),21,5,2,no,m,6,m,0.7466518999990512,1,49,test2,4,0.746978000001036,-20.0
6,lxy,f,19,r,1,(-121.76378772032352, -121.76378772032348),26,-5,12,yes,x,5,x,0.6534131000007619,1,50,test2,4,0.6535265000002255,-50.0
6,lxy,f,19,r,1,(1.0544208940658713e-14, 172.20000000000002),23,-7,13,no,m,6,x,0.9546038000007684,0,51,test2,4,0.9548927000014373,-50.0
6,lxy,f,19,r,1,(1.0544208940658713e-14, 172.20000000000002),23,-25,14,yes,x,5,x,0.5221822000003158,1,52,test2,4,0.5222783000008349,-70.0
6,lxy,f,19,r,1,(-121.76378772032348, 121.76378772032349),24,-3,11,yes,x,5,m,0.575628599999618,0,53,test2,4,0.5760513999994146,-48.0
6,lxy,f,19,r,1,(1.0544208940658713e-14, 172.20000000000002),23,-5,12,yes,x,5,x,0.6774786000005406,1,54,test2,4,0.6776989999998477,-50.0
6,lxy,f,19,r,1,(1.0544208940658713e-14, 172.20000000000002),23,-7,13,yes,x,5,x,0.5097315999992134,1,55,test2,4,0.5101556999998138,-52.0
6,lxy,f,19,r,1,(-3.163262682197613e-14, -172.20000000000002),27,-5,12,no,m,6,m,0.9107791999995243,1,56,test2,4,0.9110287999992579,-52.0
6,lxy,f,19,r,1,(172.20000000000002, 0.0),21,7,3,yes,x,5,x,0.7182917999998608,1,57,test2,4,0.7186406000000716,-38.0
6,lxy,f,19,r,1,(-121.76378772032352, -121.76378772032348),26,3,1,yes,x,5,m,0.6950107000011485,0,58,test2,4,0.6951389999994717,-42.0
6,lxy,f,19,r,1,(172.20000000000002, 0.0),21,-7,13,yes,x,5,x,0.7421663000004628,1,59,test2,4,0.7423017000000982,-52.0
6,lxy,f,19,r,1,(-3.163262682197613e-14, -172.20000000000002),27,5,2,no,m,6,m,0.6930326000001514,1,60,test2,4,0.6931999000007636,-52.0
6,lxy,f,19,r,1,(-121.76378772032352, -121.76378772032348),26,5,2,no,m,6,x,0.8787368000012066,0,61,test2,4,0.8788670999983879,-52.0
6,lxy,f,19,r,1,(121.76378772032349, 121.76378772032349),22,5,2,yes,x,5,x,0.7290982000013173,1,62,test2,4,0.7294033999987732,-40.0
6,lxy,f,19,r,1,(-3.163262682197613e-14, -172.20000000000002),27,7,3,no,m,6,m,0.7903708999983792,1,63,test2,4,0.7904874000014388,-40.0
6,lxy,f,19,r,1,(-3.163262682197613e-14, -172.20000000000002),27,3,1,yes,x,5,m,1.1159815000009985,0,64,test2,4,1.1161425999998755,-42.0
