subj_id,subj_name,subj_gender ,subj_age,subj_handedness,subj_runNum,tar_l_x,tar_l_y,loc_code,tar_ori,tar_code,tar_pre ,cor_response,pre_code,subj_response,RT,correct,trial_num,type,bloc_num,dur, real_tar
7,wby,m,23,r,1,(-121.76378772032352, -121.76378772032348),26,-5,12,yes,x,5,None,None,0,1,prac,0,1.9800890999995318,-50.0
7,wby,m,23,r,1,(-172.20000000000002, 2.1088417881317425e-14),25,-3,11,yes,x,5,m,0.5750893000003998,0,2,prac,0,0.5752053999995042,-48.0
7,wby,m,23,r,1,(172.20000000000002, 0.0),21,-5,12,yes,x,5,m,1.257891600000221,0,3,prac,0,1.258073200000581,-50.0
7,wby,m,23,r,1,(-172.20000000000002, 2.1088417881317425e-14),25,25,4,yes,x,5,x,0.7909667000003537,1,4,prac,0,0.7910821000004944,-20.0
7,wby,m,23,r,1,(-121.76378772032352, -121.76378772032348),26,-25,14,no,m,6,m,0.8643047000005026,1,5,prac,0,0.8644341999997778,-20.0
7,wby,m,23,r,1,(121.76378772032349, 121.76378772032349),22,-5,12,yes,x,5,m,0.5970641999992949,0,6,prac,0,0.5971621999997296,-50.0
7,wby,m,23,r,1,(121.76378772032346, -121.76378772032352),28,-5,12,no,m,6,m,0.8293366999996579,1,7,prac,0,0.8294685999999274,-50.0
7,wby,m,23,r,1,(121.76378772032346, -121.76378772032352),28,-25,14,yes,x,5,x,0.764393000000382,1,8,prac,0,0.7644943999994211,-70.0
7,wby,m,23,r,1,(121.76378772032349, 121.76378772032349),22,-7,13,no,m,6,m,0.6214205000005677,1,9,prac,0,0.6217299999998431,-70.0
7,wby,m,23,r,1,(-121.76378772032348, 121.76378772032349),24,-3,11,yes,x,5,m,0.7550116000002163,0,10,prac,0,0.7551869999997507,-48.0
7,wby,m,23,r,1,(121.76378772032349, 121.76378772032349),22,25,4,no,m,6,m,0.70045890000074,1,11,prac,0,0.7005550000003495,-48.0
7,wby,m,23,r,1,(121.76378772032346, -121.76378772032352),28,-7,13,no,m,6,m,0.8443726999994396,1,12,prac,0,0.8444665999995777,-48.0
7,wby,m,23,r,1,(-3.163262682197613e-14, -172.20000000000002),27,-5,12,yes,x,5,m,0.5226572999999917,0,13,prac,0,0.5230704000005062,-50.0
7,wby,m,23,r,1,(-3.163262682197613e-14, -172.20000000000002),27,-25,14,yes,x,5,x,0.6366379999999481,1,14,prac,0,0.6370100000003731,-70.0
7,wby,m,23,r,1,(172.20000000000002, 0.0),21,7,3,yes,x,5,m,0.7243617999993148,0,15,prac,0,0.7245957000004637,-38.0
7,wby,m,23,r,1,(121.76378772032349, 121.76378772032349),22,-5,12,no,m,6,m,1.1272720999995727,1,16,prac,0,1.1274664000002304,-38.0
7,wby,m,23,r,1,(-172.20000000000002, 2.1088417881317425e-14),25,-7,13,yes,x,5,x,1.3126992999996219,1,17,prac,0,1.313189199999215,-52.0
7,wby,m,23,r,1,(-121.76378772032352, -121.76378772032348),26,-5,12,yes,x,5,x,1.4753829999999653,1,18,prac,0,1.475681899999472,-50.0
7,wby,m,23,r,1,(1.0544208940658713e-14, 172.20000000000002),23,-5,12,yes,x,5,m,1.1243593999997756,0,19,prac,0,1.124591099999634,-50.0
7,wby,m,23,r,1,(-121.76378772032348, 121.76378772032349),24,-5,12,yes,x,5,x,1.2665304000001925,1,20,prac,0,1.2666981000002124,-50.0
7,wby,m,23,r,1,(172.20000000000002, 0.0),21,25,4,no,m,6,m,1.3225055000002612,1,1,test1,1,1.322603199999321,-50.0
7,wby,m,23,r,1,(121.76378772032349, 121.76378772032349),22,-5,12,no,m,6,m,1.3837217999998757,1,2,test1,1,1.3843154000005597,-50.0
7,wby,m,23,r,1,(-172.20000000000002, 2.1088417881317425e-14),25,-7,13,no,m,6,m,1.274861800000508,1,3,test1,1,1.2750772999997935,-50.0
7,wby,m,23,r,1,(121.76378772032346, -121.76378772032352),28,25,4,no,m,6,m,1.388970299999528,1,4,test1,1,1.3892134999996415,-50.0
7,wby,m,23,r,1,(-172.20000000000002, 2.1088417881317425e-14),25,5,2,yes,x,5,x,1.3756333000001177,1,5,test1,1,1.3757599000000482,-40.0
7,wby,m,23,r,1,(1.0544208940658713e-14, 172.20000000000002),23,-25,14,no,m,6,m,1.3908373999993273,1,6,test1,1,1.391063199999735,-40.0
7,wby,m,23,r,1,(121.76378772032346, -121.76378772032352),28,3,1,no,m,6,m,1.0455028999995193,1,7,test1,1,1.04571229999965,-40.0
7,wby,m,23,r,1,(1.0544208940658713e-14, 172.20000000000002),23,7,3,yes,x,5,x,0.6729593999998542,1,8,test1,1,0.6730620999996972,-38.0
7,wby,m,23,r,1,(-121.76378772032352, -121.76378772032348),26,25,4,yes,x,5,x,1.2944852000000537,1,9,test1,1,1.2947645000003831,-20.0
7,wby,m,23,r,1,(-121.76378772032352, -121.76378772032348),26,-25,14,no,m,6,m,0.9589402999999947,1,10,test1,1,0.9590392000000065,-20.0
7,wby,m,23,r,1,(-121.76378772032348, 121.76378772032349),24,-3,11,yes,x,5,m,1.137287199999264,0,11,test1,1,1.1378411000005144,-48.0
7,wby,m,23,r,1,(121.76378772032349, 121.76378772032349),22,5,2,yes,x,5,x,1.0399054999998043,1,12,test1,1,1.0401504999999815,-40.0
7,wby,m,23,r,1,(-3.163262682197613e-14, -172.20000000000002),27,-25,14,yes,x,5,x,0.8324288999992859,1,13,test1,1,0.8326912000002267,-70.0
7,wby,m,23,r,1,(172.20000000000002, 0.0),21,-7,13,no,m,6,m,1.008683399999427,1,14,test1,1,1.0088072999997166,-70.0
7,wby,m,23,r,1,(-3.163262682197613e-14, -172.20000000000002),27,-3,11,no,m,6,m,1.0409884000000602,1,15,test1,1,1.0411181000008582,-70.0
7,wby,m,23,r,1,(-172.20000000000002, 2.1088417881317425e-14),25,3,1,yes,x,5,m,0.8866778999999951,0,16,test1,1,0.8869043999993664,-42.0
7,wby,m,23,r,1,(121.76378772032346, -121.76378772032352),28,25,4,yes,x,5,x,0.6574436000000787,1,17,test1,1,0.657690700000785,-20.0
7,wby,m,23,r,1,(121.76378772032346, -121.76378772032352),28,7,3,yes,x,5,x,0.696094500000072,1,18,test1,1,0.6961957999992592,-38.0
7,wby,m,23,r,1,(121.76378772032349, 121.76378772032349),22,3,1,no,m,6,m,0.9609705000002577,1,19,test1,1,0.9611716999997952,-38.0
7,wby,m,23,r,1,(-121.76378772032352, -121.76378772032348),26,7,3,yes,x,5,x,0.7955792000002475,1,20,test1,1,0.7957478000007541,-38.0
7,wby,m,23,r,1,(121.76378772032349, 121.76378772032349),22,-5,12,yes,x,5,m,1.238977199999681,0,21,test1,1,1.2394580999998652,-50.0
7,wby,m,23,r,1,(-172.20000000000002, 2.1088417881317425e-14),25,3,1,no,m,6,m,1.3921392000002015,1,22,test1,1,1.3922662000004493,-50.0
7,wby,m,23,r,1,(-121.76378772032348, 121.76378772032349),24,-7,13,yes,x,5,x,1.0659703000001173,1,23,test1,1,1.066251000000193,-52.0
7,wby,m,23,r,1,(121.76378772032346, -121.76378772032352),28,-7,13,yes,x,5,x,1.152603800000179,1,24,test1,1,1.1527734999999666,-52.0
7,wby,m,23,r,1,(-172.20000000000002, 2.1088417881317425e-14),25,25,4,yes,x,5,x,0.8899828000003254,1,25,test1,1,0.8902635000004011,-20.0
7,wby,m,23,r,1,(-172.20000000000002, 2.1088417881317425e-14),25,5,2,no,m,6,m,1.7021931999997832,1,26,test1,1,1.7023338999997577,-20.0
7,wby,m,23,r,1,(-121.76378772032352, -121.76378772032348),26,-3,11,no,m,6,m,1.473533999999745,1,27,test1,1,1.4737763000002815,-20.0
7,wby,m,23,r,1,(1.0544208940658713e-14, 172.20000000000002),23,3,1,yes,x,5,x,1.1296779999993305,1,28,test1,1,1.1298481000003449,-42.0
7,wby,m,23,r,1,(121.76378772032346, -121.76378772032352),28,-7,13,no,m,6,None,None,0,29,test1,1,1.980089599999701,-42.0
7,wby,m,23,r,1,(121.76378772032346, -121.76378772032352),28,5,2,no,m,6,m,0.8357867999993687,1,30,test1,1,0.8361719000004086,-42.0
7,wby,m,23,r,1,(172.20000000000002, 0.0),21,-25,14,yes,x,5,x,0.5907862999993085,1,31,test1,1,0.5910079000004771,-70.0
7,wby,m,23,r,1,(-121.76378772032348, 121.76378772032349),24,25,4,no,m,6,m,0.8518649999996342,1,32,test1,1,0.8519868999992468,-70.0
7,wby,m,23,r,1,(-121.76378772032352, -121.76378772032348),26,-7,13,yes,x,5,x,0.6554673000000548,1,33,test1,1,0.6556313000000955,-52.0
7,wby,m,23,r,1,(-121.76378772032348, 121.76378772032349),24,-5,12,yes,x,5,x,1.0551189999996495,1,34,test1,1,1.0552173000005496,-50.0
7,wby,m,23,r,1,(1.0544208940658713e-14, 172.20000000000002),23,3,1,yes,x,5,x,1.0461507999998503,1,35,test1,1,1.0467683999995643,-42.0
7,wby,m,23,r,1,(-121.76378772032352, -121.76378772032348),26,7,3,yes,x,5,x,0.8918842000002769,1,36,test1,1,0.8920004999999946,-38.0
7,wby,m,23,r,1,(121.76378772032346, -121.76378772032352),28,7,3,no,m,6,m,0.9182983999999124,1,37,test1,1,0.9183996000001571,-38.0
7,wby,m,23,r,1,(-121.76378772032348, 121.76378772032349),24,-25,14,yes,x,5,x,0.4724448000006305,1,38,test1,1,0.472670900000594,-70.0
7,wby,m,23,r,1,(121.76378772032349, 121.76378772032349),22,7,3,no,m,6,m,0.8572619000005943,1,39,test1,1,0.8574773000000278,-70.0
7,wby,m,23,r,1,(121.76378772032346, -121.76378772032352),28,-3,11,yes,x,5,m,0.8622021999999561,0,40,test1,1,0.862623199999689,-48.0
7,wby,m,23,r,1,(-3.163262682197613e-14, -172.20000000000002),27,7,3,yes,x,5,x,0.5504805000000488,1,41,test1,1,0.5505797999994684,-38.0
7,wby,m,23,r,1,(-172.20000000000002, 2.1088417881317425e-14),25,-5,12,no,m,6,m,0.8126424000001862,1,42,test1,1,0.8127385999996477,-38.0
7,wby,m,23,r,1,(121.76378772032349, 121.76378772032349),22,3,1,yes,x,5,m,0.8009615000000849,0,43,test1,1,0.8010872000004383,-42.0
7,wby,m,23,r,1,(-172.20000000000002, 2.1088417881317425e-14),25,-3,11,yes,x,5,m,1.0751725000000079,0,44,test1,1,1.075420099999974,-48.0
7,wby,m,23,r,1,(-121.76378772032348, 121.76378772032349),24,-25,14,no,m,6,m,1.0211429999999382,1,45,test1,1,1.0212692999994033,-48.0
7,wby,m,23,r,1,(172.20000000000002, 0.0),21,5,2,yes,x,5,x,0.7844345999992584,1,46,test1,1,0.7846026999995956,-40.0
7,wby,m,23,r,1,(121.76378772032346, -121.76378772032352),28,5,2,yes,x,5,x,0.8885413999996672,1,47,test1,1,0.8889482000004136,-40.0
7,wby,m,23,r,1,(1.0544208940658713e-14, 172.20000000000002),23,-25,14,yes,x,5,x,0.5207734000005075,1,48,test1,1,0.5210064000002603,-70.0
7,wby,m,23,r,1,(-121.76378772032348, 121.76378772032349),24,5,2,yes,x,5,m,0.82030499999928,0,49,test1,1,0.8204810000006546,-40.0
7,wby,m,23,r,1,(1.0544208940658713e-14, 172.20000000000002),23,25,4,yes,x,5,x,0.49355670000022656,1,50,test1,1,0.49368629999935365,-20.0
7,wby,m,23,r,1,(-121.76378772032348, 121.76378772032349),24,3,1,yes,x,5,m,0.8665884000001824,0,51,test1,1,0.8666863000007652,-42.0
7,wby,m,23,r,1,(-121.76378772032352, -121.76378772032348),26,5,2,yes,x,5,x,0.7301069000004645,1,52,test1,1,0.7302092999998422,-40.0
7,wby,m,23,r,1,(172.20000000000002, 0.0),21,7,3,yes,x,5,x,0.5600596999993286,1,53,test1,1,0.560225399999581,-38.0
7,wby,m,23,r,1,(-121.76378772032352, -121.76378772032348),26,-25,14,yes,x,5,x,0.4408531999997649,1,54,test1,1,0.4409803999997166,-70.0
7,wby,m,23,r,1,(-3.163262682197613e-14, -172.20000000000002),27,25,4,yes,x,5,x,0.48191769999993994,1,55,test1,1,0.4820212000004176,-20.0
7,wby,m,23,r,1,(121.76378772032349, 121.76378772032349),22,7,3,yes,x,5,m,1.1049788000000262,0,56,test1,1,1.1055511000004117,-38.0
7,wby,m,23,r,1,(-172.20000000000002, 2.1088417881317425e-14),25,25,4,no,m,6,m,0.9862943999996787,1,57,test1,1,0.9864577999996982,-38.0
7,wby,m,23,r,1,(121.76378772032349, 121.76378772032349),22,25,4,yes,x,5,x,0.4069134999999733,1,58,test1,1,0.40730640000037965,-20.0
7,wby,m,23,r,1,(-3.163262682197613e-14, -172.20000000000002),27,-25,14,no,m,6,m,1.2168517000000065,1,59,test1,1,1.217175099999622,-20.0
7,wby,m,23,r,1,(172.20000000000002, 0.0),21,-5,12,yes,x,5,x,0.5263726999992286,1,60,test1,1,0.526688799999647,-50.0
7,wby,m,23,r,1,(1.0544208940658713e-14, 172.20000000000002),23,7,3,no,m,6,m,0.7642169000000649,1,61,test1,1,0.7645996999999625,-50.0
7,wby,m,23,r,1,(-121.76378772032348, 121.76378772032349),24,7,3,yes,x,5,x,0.5155939000005674,1,62,test1,1,0.5158325000002151,-38.0
7,wby,m,23,r,1,(-3.163262682197613e-14, -172.20000000000002),27,25,4,yes,x,5,x,0.6362576999999874,1,63,test1,1,0.6363815000004251,-20.0
7,wby,m,23,r,1,(1.0544208940658713e-14, 172.20000000000002),23,25,4,yes,x,5,x,0.4738706000007369,1,64,test1,1,0.4739700999998604,-20.0
7,wby,m,23,r,1,(121.76378772032349, 121.76378772032349),22,5,2,no,m,6,m,0.8485213000003569,1,65,test1,1,0.8486422999994829,-20.0
7,wby,m,23,r,1,(172.20000000000002, 0.0),21,3,1,no,m,6,m,0.7863876999999775,1,66,test1,1,0.7869496000002982,-20.0
7,wby,m,23,r,1,(1.0544208940658713e-14, 172.20000000000002),23,-5,12,no,m,6,m,0.7056593000006615,1,67,test1,1,0.7058133000000453,-20.0
7,wby,m,23,r,1,(121.76378772032349, 121.76378772032349),22,5,2,yes,x,5,x,0.9778942000002644,1,68,test1,1,0.9781935000000885,-40.0
7,wby,m,23,r,1,(172.20000000000002, 0.0),21,-7,13,yes,x,5,x,0.6090561999999409,1,69,test1,1,0.6093268000004173,-52.0
7,wby,m,23,r,1,(-3.163262682197613e-14, -172.20000000000002),27,-5,12,yes,x,5,x,0.5683670999997048,1,70,test1,1,0.5685734000007869,-50.0
7,wby,m,23,r,1,(172.20000000000002, 0.0),21,-3,11,yes,x,5,x,0.5095781999998508,1,71,test1,1,0.5096794999999474,-48.0
7,wby,m,23,r,1,(121.76378772032346, -121.76378772032352),28,-5,12,yes,x,5,m,0.8275830000002316,0,72,test1,1,0.8279837000000043,-50.0
7,wby,m,23,r,1,(-121.76378772032352, -121.76378772032348),26,3,1,yes,x,5,m,1.0624219000001176,0,73,test1,1,1.0625273000005109,-42.0
7,wby,m,23,r,1,(121.76378772032346, -121.76378772032352),28,-5,12,yes,x,5,x,0.5981290999998237,1,74,test1,1,0.5984006999997291,-50.0
7,wby,m,23,r,1,(-3.163262682197613e-14, -172.20000000000002),27,-5,12,yes,x,5,x,0.5334831000000122,1,75,test1,1,0.5336541999995461,-50.0
7,wby,m,23,r,1,(-121.76378772032348, 121.76378772032349),24,-25,14,yes,x,5,x,0.4683018000005177,1,76,test1,1,0.46840160000010655,-70.0
7,wby,m,23,r,1,(121.76378772032346, -121.76378772032352),28,-25,14,yes,x,5,x,0.44037630000002537,1,77,test1,1,0.44047519999912765,-70.0
7,wby,m,23,r,1,(172.20000000000002, 0.0),21,7,3,no,m,6,x,0.798115499999767,0,78,test1,1,0.7989876000001459,-70.0
7,wby,m,23,r,1,(-3.163262682197613e-14, -172.20000000000002),27,7,3,no,m,6,x,0.8884329000002253,0,79,test1,1,0.888562300000558,-70.0
7,wby,m,23,r,1,(121.76378772032346, -121.76378772032352),28,25,4,yes,x,5,x,0.43273279999993974,1,80,test1,1,0.43301789999986795,-20.0
7,wby,m,23,r,1,(-121.76378772032348, 121.76378772032349),24,-5,12,yes,x,5,x,0.7197519000001193,1,81,test1,1,0.719902899999397,-50.0
7,wby,m,23,r,1,(1.0544208940658713e-14, 172.20000000000002),23,-3,11,yes,x,5,x,0.6775862000004054,1,82,test1,1,0.6778284000001804,-48.0
7,wby,m,23,r,1,(121.76378772032346, -121.76378772032352),28,-3,11,yes,x,5,m,0.825883900000008,0,83,test1,1,0.8261109000004581,-48.0
7,wby,m,23,r,1,(-172.20000000000002, 2.1088417881317425e-14),25,-3,11,no,m,6,m,0.9820822000001499,1,84,test1,1,0.9822418999992806,-48.0
7,wby,m,23,r,1,(-172.20000000000002, 2.1088417881317425e-14),25,-5,12,yes,x,5,x,1.2029836000001524,1,85,test1,1,1.203200900000411,-50.0
7,wby,m,23,r,1,(-121.76378772032348, 121.76378772032349),24,7,3,no,m,6,m,0.8181014000001596,1,86,test1,1,0.8183669000000009,-50.0
7,wby,m,23,r,1,(121.76378772032349, 121.76378772032349),22,-3,11,yes,x,5,x,0.8051753999998255,1,87,test1,1,0.8054885999999897,-48.0
7,wby,m,23,r,1,(121.76378772032349, 121.76378772032349),22,-7,13,no,m,6,m,0.7289985000006709,1,88,test1,1,0.7290997999998581,-48.0
7,wby,m,23,r,1,(-3.163262682197613e-14, -172.20000000000002),27,-7,13,no,m,6,x,0.9392918000003192,0,89,test1,1,0.9395858999996562,-48.0
7,wby,m,23,r,1,(1.0544208940658713e-14, 172.20000000000002),23,-3,11,no,m,6,m,0.6397612000000663,1,90,test1,1,0.6398631000001842,-48.0
7,wby,m,23,r,1,(-121.76378772032352, -121.76378772032348),26,25,4,yes,x,5,x,0.47401300000001356,1,91,test1,1,0.47412880000047153,-20.0
7,wby,m,23,r,1,(-172.20000000000002, 2.1088417881317425e-14),25,-5,12,yes,x,5,m,0.655226899999434,0,92,test1,1,0.655851999999868,-50.0
7,wby,m,23,r,1,(-172.20000000000002, 2.1088417881317425e-14),25,-25,14,yes,x,5,x,0.50703059999978,1,93,test1,1,0.5072928999998112,-70.0
7,wby,m,23,r,1,(172.20000000000002, 0.0),21,-5,12,yes,x,5,m,0.7448205000000598,0,94,test1,1,0.744981299999381,-50.0
7,wby,m,23,r,1,(-3.163262682197613e-14, -172.20000000000002),27,-7,13,yes,x,5,x,0.6879269999999451,1,95,test1,1,0.6883333000005223,-52.0
7,wby,m,23,r,1,(-3.163262682197613e-14, -172.20000000000002),27,5,2,no,m,6,x,0.620912600000338,0,96,test1,1,0.6210111000000325,-52.0
7,wby,m,23,r,1,(-172.20000000000002, 2.1088417881317425e-14),25,7,3,yes,x,5,x,0.8463314999999056,1,1,test2,1,0.8465613999997004,-38.0
7,wby,m,23,r,1,(121.76378772032349, 121.76378772032349),22,3,1,yes,x,5,m,0.9219025999991572,0,2,test2,1,0.9221246999995856,-42.0
7,wby,m,23,r,1,(-3.163262682197613e-14, -172.20000000000002),27,-5,12,no,m,6,x,0.6020970999998099,0,3,test2,1,0.6022187999997186,-42.0
7,wby,m,23,r,1,(-3.163262682197613e-14, -172.20000000000002),27,5,2,yes,x,5,x,0.817246200000227,1,4,test2,1,0.8174418999997215,-40.0
7,wby,m,23,r,1,(-3.163262682197613e-14, -172.20000000000002),27,-3,11,yes,x,5,m,0.9633914999994886,0,5,test2,1,0.9636530999996467,-48.0
7,wby,m,23,r,1,(172.20000000000002, 0.0),21,-3,11,yes,x,5,x,0.539273399999729,1,6,test2,1,0.5394446999998763,-48.0
7,wby,m,23,r,1,(172.20000000000002, 0.0),21,3,1,yes,x,5,m,0.9287737999993624,0,7,test2,1,0.9288754999997764,-42.0
7,wby,m,23,r,1,(121.76378772032349, 121.76378772032349),22,7,3,yes,x,5,x,0.729907899999489,1,8,test2,1,0.7300199000001157,-38.0
7,wby,m,23,r,1,(121.76378772032346, -121.76378772032352),28,5,2,yes,x,5,m,0.6570522000001802,0,9,test2,1,0.657281900000271,-40.0
7,wby,m,23,r,1,(-121.76378772032348, 121.76378772032349),24,5,2,yes,x,5,x,1.1785823999998684,1,10,test2,1,1.1788068000005296,-40.0
7,wby,m,23,r,1,(-121.76378772032348, 121.76378772032349),24,-3,11,yes,x,5,x,0.980424999999741,1,11,test2,1,0.9807276000001366,-48.0
7,wby,m,23,r,1,(121.76378772032349, 121.76378772032349),22,-25,14,yes,x,5,x,0.4571157000000312,1,12,test2,1,0.45733259999997244,-70.0
7,wby,m,23,r,1,(172.20000000000002, 0.0),21,25,4,yes,x,5,x,0.605012799999713,1,13,test2,1,0.605254099999911,-20.0
7,wby,m,23,r,1,(-3.163262682197613e-14, -172.20000000000002),27,25,4,no,m,6,m,0.8835929000006217,1,14,test2,1,0.8837452000007033,-20.0
7,wby,m,23,r,1,(121.76378772032349, 121.76378772032349),22,-3,11,yes,x,5,x,1.0093254000003071,1,15,test2,1,1.0096487999999226,-48.0
7,wby,m,23,r,1,(1.0544208940658713e-14, 172.20000000000002),23,-7,13,yes,x,5,x,0.5060248999998294,1,16,test2,1,0.5061274999998204,-52.0
7,wby,m,23,r,1,(172.20000000000002, 0.0),21,-7,13,yes,x,5,x,0.8915380999997069,1,17,test2,1,0.8916365000004589,-52.0
7,wby,m,23,r,1,(-3.163262682197613e-14, -172.20000000000002),27,3,1,yes,x,5,x,0.8743236999998771,1,18,test2,1,0.8745625000001382,-42.0
7,wby,m,23,r,1,(-121.76378772032352, -121.76378772032348),26,5,2,yes,x,5,x,0.7218647999998211,1,19,test2,1,0.7219906999998784,-40.0
7,wby,m,23,r,1,(121.76378772032349, 121.76378772032349),22,-7,13,yes,x,5,x,0.5332798999997976,1,20,test2,1,0.5335791999996218,-52.0
7,wby,m,23,r,1,(1.0544208940658713e-14, 172.20000000000002),23,7,3,yes,x,5,x,0.5409356999998636,1,21,test2,1,0.5410343000003195,-38.0
7,wby,m,23,r,1,(-121.76378772032352, -121.76378772032348),26,5,2,no,m,6,m,1.0825355000006311,1,22,test2,1,1.0828811999999743,-38.0
7,wby,m,23,r,1,(-121.76378772032352, -121.76378772032348),26,-7,13,no,m,6,x,0.634336400000393,0,23,test2,1,0.6345080999999482,-38.0
7,wby,m,23,r,1,(121.76378772032346, -121.76378772032352),28,-25,14,yes,x,5,x,0.4266646000005494,1,24,test2,1,0.4269608000004155,-70.0
7,wby,m,23,r,1,(172.20000000000002, 0.0),21,3,1,yes,x,5,m,0.9239246999995885,0,25,test2,1,0.924054499999329,-42.0
7,wby,m,23,r,1,(-3.163262682197613e-14, -172.20000000000002),27,5,2,yes,x,5,x,0.8755694000001313,1,26,test2,1,0.8758746000003157,-40.0
7,wby,m,23,r,1,(172.20000000000002, 0.0),21,5,2,yes,x,5,x,0.5842314999999871,1,27,test2,1,0.5844440999999279,-40.0
7,wby,m,23,r,1,(121.76378772032346, -121.76378772032352),28,3,1,yes,x,5,x,1.156859799999438,1,28,test2,1,1.15698219999922,-42.0
7,wby,m,23,r,1,(-121.76378772032352, -121.76378772032348),26,-3,11,yes,x,5,x,0.676101999999446,1,29,test2,1,0.6762171999998827,-48.0
7,wby,m,23,r,1,(121.76378772032349, 121.76378772032349),22,-25,14,no,m,6,m,1.020268600000236,1,30,test2,1,1.0204299000006358,-48.0
7,wby,m,23,r,1,(-172.20000000000002, 2.1088417881317425e-14),25,-3,11,yes,x,5,m,0.8560256000000663,0,31,test2,1,0.856157300000632,-48.0
7,wby,m,23,r,1,(1.0544208940658713e-14, 172.20000000000002),23,25,4,no,m,6,x,1.884436899999855,0,32,test2,1,1.884542099999635,-48.0
7,wby,m,23,r,1,(-172.20000000000002, 2.1088417881317425e-14),25,-7,13,yes,x,5,x,0.6200488000004043,1,33,test2,1,0.6205130999996982,-52.0
7,wby,m,23,r,1,(172.20000000000002, 0.0),21,-3,11,no,m,6,m,0.8274497000002157,1,34,test2,1,0.8276098999995156,-52.0
7,wby,m,23,r,1,(-121.76378772032352, -121.76378772032348),26,-3,11,yes,x,5,m,0.6991926000000603,0,35,test2,1,0.6994318999995812,-48.0
7,wby,m,23,r,1,(-121.76378772032348, 121.76378772032349),24,25,4,yes,x,5,x,0.41310470000007626,1,36,test2,1,0.4132067000000461,-20.0
7,wby,m,23,r,1,(121.76378772032349, 121.76378772032349),22,-5,12,yes,x,5,m,1.0076748000001317,0,37,test2,1,1.0078973999998198,-50.0
7,wby,m,23,r,1,(-121.76378772032348, 121.76378772032349),24,25,4,yes,x,5,x,0.6272139000002426,1,38,test2,1,0.6273172000001068,-20.0
7,wby,m,23,r,1,(-121.76378772032352, -121.76378772032348),26,7,3,no,m,6,m,0.9824136999995972,1,39,test2,1,0.9828360000001339,-20.0
7,wby,m,23,r,1,(-121.76378772032352, -121.76378772032348),26,-5,12,yes,x,5,m,0.5766143999999258,0,40,test2,1,0.5769579999996495,-50.0
7,wby,m,23,r,1,(-121.76378772032348, 121.76378772032349),24,3,1,no,m,6,m,0.7195280000005368,1,41,test2,1,0.720698000000084,-50.0
7,wby,m,23,r,1,(-3.163262682197613e-14, -172.20000000000002),27,3,1,no,m,6,m,0.6472838999998203,1,42,test2,1,0.6476439999996728,-50.0
7,wby,m,23,r,1,(121.76378772032349, 121.76378772032349),22,-25,14,yes,x,5,x,0.5590204000000085,1,43,test2,1,0.5592416999998022,-70.0
7,wby,m,23,r,1,(-121.76378772032352, -121.76378772032348),26,-7,13,yes,x,5,x,0.8951113999992231,1,44,test2,1,0.8952258999997866,-52.0
7,wby,m,23,r,1,(-121.76378772032348, 121.76378772032349),24,7,3,yes,x,5,x,0.8198564000003898,1,45,test2,1,0.8200771000001623,-38.0
7,wby,m,23,r,1,(121.76378772032346, -121.76378772032352),28,3,1,yes,x,5,m,1.3368897999998808,0,46,test2,1,1.3370219999997062,-42.0
7,wby,m,23,r,1,(-3.163262682197613e-14, -172.20000000000002),27,3,1,yes,x,5,m,1.1289121999998315,0,47,test2,1,1.1290521999999328,-42.0
7,wby,m,23,r,1,(-121.76378772032352, -121.76378772032348),26,-5,12,no,m,6,x,1.054030899999816,0,48,test2,1,1.0541323999996166,-42.0
7,wby,m,23,r,1,(-121.76378772032352, -121.76378772032348),26,-25,14,yes,x,5,x,0.5490915999998833,1,49,test2,1,0.5491915000002336,-70.0
7,wby,m,23,r,1,(-172.20000000000002, 2.1088417881317425e-14),25,5,2,yes,x,5,x,0.8060585999992327,1,50,test2,1,0.8064566999992167,-40.0
7,wby,m,23,r,1,(-172.20000000000002, 2.1088417881317425e-14),25,-25,14,yes,x,5,x,0.5729056999998647,1,51,test2,1,0.5731434999997873,-70.0
7,wby,m,23,r,1,(1.0544208940658713e-14, 172.20000000000002),23,5,2,no,m,6,m,0.6590290999993158,1,52,test2,1,0.659327299999859,-70.0
7,wby,m,23,r,1,(121.76378772032349, 121.76378772032349),22,-7,13,yes,x,5,m,0.658946499999729,0,53,test2,1,0.659356299999672,-52.0
7,wby,m,23,r,1,(121.76378772032349, 121.76378772032349),22,25,4,no,m,6,m,0.9996698000004471,1,54,test2,1,0.999781399999847,-52.0
7,wby,m,23,r,1,(121.76378772032349, 121.76378772032349),22,25,4,yes,x,5,x,0.5247951000001194,1,55,test2,1,0.5250065000000177,-20.0
7,wby,m,23,r,1,(-121.76378772032348, 121.76378772032349),24,5,2,no,m,6,m,0.7474036999992677,1,56,test2,1,0.7477211999994324,-20.0
7,wby,m,23,r,1,(-121.76378772032348, 121.76378772032349),24,-7,13,no,m,6,m,0.6705188000005364,1,57,test2,1,0.6709130999997797,-20.0
7,wby,m,23,r,1,(-121.76378772032352, -121.76378772032348),26,25,4,no,m,6,m,0.6930114000006142,1,58,test2,1,0.6938718999999764,-20.0
7,wby,m,23,r,1,(-172.20000000000002, 2.1088417881317425e-14),25,7,3,yes,x,5,x,0.6936289000004763,1,59,test2,1,0.6938235999996323,-38.0
7,wby,m,23,r,1,(121.76378772032349, 121.76378772032349),22,-3,11,no,m,6,m,0.6620276000003287,1,60,test2,1,0.6622532999999748,-38.0
7,wby,m,23,r,1,(1.0544208940658713e-14, 172.20000000000002),23,-3,11,yes,x,5,x,0.9847274999992806,1,61,test2,1,0.984869200000503,-48.0
7,wby,m,23,r,1,(172.20000000000002, 0.0),21,7,3,yes,x,5,m,1.260478800000783,0,62,test2,1,1.2606869999999617,-38.0
7,wby,m,23,r,1,(1.0544208940658713e-14, 172.20000000000002),23,-25,14,yes,x,5,x,0.5159184000003734,1,63,test2,1,0.5160200999998779,-70.0
7,wby,m,23,r,1,(121.76378772032346, -121.76378772032352),28,-5,12,no,m,6,m,0.7524084000006042,1,64,test2,1,0.7525369999993927,-70.0
7,wby,m,23,r,1,(121.76378772032346, -121.76378772032352),28,7,3,yes,x,5,x,0.6727608999999575,1,65,test2,1,0.6728597999999693,-38.0
7,wby,m,23,r,1,(172.20000000000002, 0.0),21,5,2,no,m,6,m,0.7046290000007502,1,66,test2,1,0.7047533999993902,-38.0
7,wby,m,23,r,1,(1.0544208940658713e-14, 172.20000000000002),23,5,2,yes,x,5,x,0.7051787999998851,1,67,test2,1,0.705460199999834,-40.0
7,wby,m,23,r,1,(-3.163262682197613e-14, -172.20000000000002),27,-3,11,yes,x,5,m,0.5426010000001042,0,68,test2,1,0.5428279999996448,-48.0
7,wby,m,23,r,1,(1.0544208940658713e-14, 172.20000000000002),23,3,1,no,m,6,m,1.0807598000001235,1,69,test2,1,1.0808620999996492,-48.0
7,wby,m,23,r,1,(-121.76378772032348, 121.76378772032349),24,-5,12,no,m,6,m,0.7870489000006273,1,70,test2,1,0.7873572000007698,-48.0
7,wby,m,23,r,1,(-121.76378772032352, -121.76378772032348),26,-5,12,yes,x,5,x,0.7395033999991938,1,71,test2,1,0.7396028000002843,-50.0
7,wby,m,23,r,1,(-172.20000000000002, 2.1088417881317425e-14),25,3,1,yes,x,5,m,1.0167246000000887,0,72,test2,1,1.0168555999998716,-42.0
7,wby,m,23,r,1,(-172.20000000000002, 2.1088417881317425e-14),25,25,4,yes,x,5,x,0.5524759999998423,1,73,test2,1,0.5530198000005839,-20.0
7,wby,m,23,r,1,(-121.76378772032348, 121.76378772032349),24,-3,11,no,m,6,m,0.9163374999998268,1,74,test2,1,0.916474599999674,-20.0
7,wby,m,23,r,1,(172.20000000000002, 0.0),21,-25,14,yes,x,5,x,0.5528518000000986,1,75,test2,1,0.5529508999998143,-70.0
7,wby,m,23,r,1,(-121.76378772032352, -121.76378772032348),26,3,1,no,m,6,m,0.7087224999995669,1,76,test2,1,0.7089512000002287,-70.0
7,wby,m,23,r,1,(1.0544208940658713e-14, 172.20000000000002),23,-7,13,yes,x,5,x,0.5749432999991768,1,77,test2,1,0.5750760999999329,-52.0
7,wby,m,23,r,1,(-121.76378772032348, 121.76378772032349),24,3,1,yes,x,5,m,0.7180957999999009,0,78,test2,1,0.7181993000003786,-42.0
7,wby,m,23,r,1,(-172.20000000000002, 2.1088417881317425e-14),25,-7,13,yes,x,5,x,0.5728990999996313,1,79,test2,1,0.5730020999999397,-52.0
7,wby,m,23,r,1,(172.20000000000002, 0.0),21,-5,12,no,m,6,m,1.1681754999999612,1,80,test2,1,1.1682909000001018,-52.0
7,wby,m,23,r,1,(172.20000000000002, 0.0),21,-25,14,no,m,6,m,0.7000742000000173,1,81,test2,1,0.7003916000003301,-52.0
7,wby,m,23,r,1,(1.0544208940658713e-14, 172.20000000000002),23,-5,12,yes,x,5,x,0.6577323999999862,1,82,test2,1,0.6578784000002997,-50.0
7,wby,m,23,r,1,(-121.76378772032348, 121.76378772032349),24,-7,13,yes,x,5,x,0.7619277000003422,1,83,test2,1,0.7620559999995749,-52.0
7,wby,m,23,r,1,(-121.76378772032352, -121.76378772032348),26,3,1,yes,x,5,m,0.6531425000002855,0,84,test2,1,0.6535835000004226,-42.0
7,wby,m,23,r,1,(-172.20000000000002, 2.1088417881317425e-14),25,7,3,no,m,6,m,0.626512200000434,1,85,test2,1,0.6266168000001926,-42.0
7,wby,m,23,r,1,(121.76378772032346, -121.76378772032352),28,-25,14,no,m,6,m,0.5974713999994492,1,86,test2,1,0.5977075999999215,-42.0
7,wby,m,23,r,1,(172.20000000000002, 0.0),21,25,4,yes,x,5,x,0.5685942999998588,1,87,test2,1,0.5688064999994822,-20.0
7,wby,m,23,r,1,(-3.163262682197613e-14, -172.20000000000002),27,-25,14,yes,x,5,x,0.5633031999996092,1,88,test2,1,0.5634153999999398,-70.0
7,wby,m,23,r,1,(-172.20000000000002, 2.1088417881317425e-14),25,-25,14,no,m,6,m,0.6184148999991521,1,89,test2,1,0.6186486999995395,-70.0
7,wby,m,23,r,1,(1.0544208940658713e-14, 172.20000000000002),23,-5,12,yes,x,5,x,0.5660577000007834,1,90,test2,1,0.5662518999997701,-50.0
7,wby,m,23,r,1,(1.0544208940658713e-14, 172.20000000000002),23,-7,13,no,m,6,m,0.8032481000000189,1,91,test2,1,0.8033704999998008,-50.0
7,wby,m,23,r,1,(121.76378772032346, -121.76378772032352),28,-3,11,no,m,6,m,0.6855247000003146,1,92,test2,1,0.6858328999996957,-50.0
7,wby,m,23,r,1,(-3.163262682197613e-14, -172.20000000000002),27,7,3,yes,x,5,x,0.6503100999998424,1,93,test2,1,0.6504365000000689,-38.0
7,wby,m,23,r,1,(-3.163262682197613e-14, -172.20000000000002),27,-7,13,yes,x,5,x,0.5816697000000204,1,94,test2,1,0.581767800000307,-52.0
7,wby,m,23,r,1,(1.0544208940658713e-14, 172.20000000000002),23,5,2,yes,x,5,x,0.6324247000002288,1,95,test2,1,0.6327255000005607,-40.0
7,wby,m,23,r,1,(121.76378772032346, -121.76378772032352),28,-7,13,yes,x,5,x,0.7108318000000509,1,96,test2,1,0.7112323000001197,-52.0
7,wby,m,23,r,1,(172.20000000000002, 0.0),21,25,4,no,m,6,m,0.9422316999998657,1,1,test1,2,0.942991300000358,-52.0
7,wby,m,23,r,1,(121.76378772032349, 121.76378772032349),22,-5,12,no,m,6,m,0.6467614000002868,1,2,test1,2,0.6469872000006944,-52.0
7,wby,m,23,r,1,(-172.20000000000002, 2.1088417881317425e-14),25,-7,13,no,m,6,m,0.637853800000812,1,3,test1,2,0.6380895000002056,-52.0
7,wby,m,23,r,1,(121.76378772032346, -121.76378772032352),28,25,4,no,m,6,m,0.4934564000004684,1,4,test1,2,0.49361450000014884,-52.0
7,wby,m,23,r,1,(-172.20000000000002, 2.1088417881317425e-14),25,5,2,yes,x,5,m,0.5586817000003066,0,5,test1,2,0.5587851000000228,-40.0
7,wby,m,23,r,1,(1.0544208940658713e-14, 172.20000000000002),23,-25,14,no,m,6,m,1.0202881000004709,1,6,test1,2,1.0207538000004206,-40.0
7,wby,m,23,r,1,(121.76378772032346, -121.76378772032352),28,3,1,no,m,6,x,0.7863077000001795,0,7,test1,2,0.7865333999998256,-40.0
7,wby,m,23,r,1,(1.0544208940658713e-14, 172.20000000000002),23,7,3,yes,x,5,x,1.6680960000003324,1,8,test1,2,1.668316600000253,-38.0
7,wby,m,23,r,1,(-121.76378772032352, -121.76378772032348),26,25,4,yes,x,5,x,0.637289299999793,1,9,test1,2,0.6374372000000221,-20.0
7,wby,m,23,r,1,(-121.76378772032352, -121.76378772032348),26,-25,14,no,m,6,m,0.7074140999993688,1,10,test1,2,0.7077109000001656,-20.0
7,wby,m,23,r,1,(-121.76378772032348, 121.76378772032349),24,-3,11,yes,x,5,m,0.7316634999997405,0,11,test1,2,0.7318867000003593,-48.0
7,wby,m,23,r,1,(121.76378772032349, 121.76378772032349),22,5,2,yes,x,5,x,0.9326794000007794,1,12,test1,2,0.9329689999995026,-40.0
7,wby,m,23,r,1,(-3.163262682197613e-14, -172.20000000000002),27,-25,14,yes,x,5,x,0.5009406000008312,1,13,test1,2,0.5012004000000161,-70.0
7,wby,m,23,r,1,(172.20000000000002, 0.0),21,-7,13,no,m,6,m,0.6897987000002104,1,14,test1,2,0.6901311999999962,-70.0
7,wby,m,23,r,1,(-3.163262682197613e-14, -172.20000000000002),27,-3,11,no,m,6,m,0.6872343999993973,1,15,test1,2,0.6873650999996244,-70.0
7,wby,m,23,r,1,(-172.20000000000002, 2.1088417881317425e-14),25,3,1,yes,x,5,m,0.634041199999956,0,16,test1,2,0.6341641999997591,-42.0
7,wby,m,23,r,1,(121.76378772032346, -121.76378772032352),28,25,4,yes,x,5,x,0.6708937000003061,1,17,test1,2,0.6710325999993074,-20.0
7,wby,m,23,r,1,(121.76378772032346, -121.76378772032352),28,7,3,yes,x,5,x,0.8213413000003129,1,18,test1,2,0.8217107000000397,-38.0
7,wby,m,23,r,1,(121.76378772032349, 121.76378772032349),22,3,1,no,m,6,m,0.7161282999995819,1,19,test1,2,0.7163731999999072,-38.0
7,wby,m,23,r,1,(-121.76378772032352, -121.76378772032348),26,7,3,yes,x,5,x,0.5459860999999364,1,20,test1,2,0.5461800000002768,-38.0
7,wby,m,23,r,1,(121.76378772032349, 121.76378772032349),22,-5,12,yes,x,5,m,0.6616649999996298,0,21,test1,2,0.6617901999998139,-50.0
7,wby,m,23,r,1,(-172.20000000000002, 2.1088417881317425e-14),25,3,1,no,m,6,m,0.5813656000000265,1,22,test1,2,0.581816500000059,-50.0
7,wby,m,23,r,1,(-121.76378772032348, 121.76378772032349),24,-7,13,yes,x,5,x,0.6417572999998811,1,23,test1,2,0.6418752999998105,-52.0
7,wby,m,23,r,1,(121.76378772032346, -121.76378772032352),28,-7,13,yes,x,5,m,0.7926575000001321,0,24,test1,2,0.7930633999994825,-52.0
7,wby,m,23,r,1,(-172.20000000000002, 2.1088417881317425e-14),25,25,4,yes,x,5,x,0.7122251999999207,1,25,test1,2,0.7125058000001445,-20.0
7,wby,m,23,r,1,(-172.20000000000002, 2.1088417881317425e-14),25,5,2,no,m,6,m,0.6271825000003446,1,26,test1,2,0.6273190000001705,-20.0
7,wby,m,23,r,1,(-121.76378772032352, -121.76378772032348),26,-3,11,no,m,6,m,0.568520200000421,1,27,test1,2,0.5688116999999693,-20.0
7,wby,m,23,r,1,(1.0544208940658713e-14, 172.20000000000002),23,3,1,yes,x,5,m,0.6237848999999187,0,28,test1,2,0.6239938999997321,-42.0
7,wby,m,23,r,1,(121.76378772032346, -121.76378772032352),28,-7,13,no,m,6,m,0.752590500000224,1,29,test1,2,0.7527845000004163,-42.0
7,wby,m,23,r,1,(121.76378772032346, -121.76378772032352),28,5,2,no,m,6,m,0.8094238000003315,1,30,test1,2,0.8098190999999133,-42.0
7,wby,m,23,r,1,(172.20000000000002, 0.0),21,-25,14,yes,x,5,x,0.6148893999998108,1,31,test1,2,0.6151418999997986,-70.0
7,wby,m,23,r,1,(-121.76378772032348, 121.76378772032349),24,25,4,no,m,6,m,0.6975256000005174,1,32,test1,2,0.6976169000008667,-70.0
7,wby,m,23,r,1,(-121.76378772032352, -121.76378772032348),26,-7,13,yes,x,5,x,0.8790367999999944,1,33,test1,2,0.8795601000001625,-52.0
7,wby,m,23,r,1,(-121.76378772032348, 121.76378772032349),24,-5,12,yes,x,5,x,0.5651979999993273,1,34,test1,2,0.5655766999998377,-50.0
7,wby,m,23,r,1,(1.0544208940658713e-14, 172.20000000000002),23,3,1,yes,x,5,x,1.1073847000006936,1,35,test1,2,1.107545000000755,-42.0
7,wby,m,23,r,1,(-121.76378772032352, -121.76378772032348),26,7,3,yes,x,5,x,0.7028553000000102,1,36,test1,2,0.7032825000005687,-38.0
7,wby,m,23,r,1,(121.76378772032346, -121.76378772032352),28,7,3,no,m,6,m,0.718247099999644,1,37,test1,2,0.718554199999744,-38.0
7,wby,m,23,r,1,(-121.76378772032348, 121.76378772032349),24,-25,14,yes,x,5,x,0.5731032000003324,1,38,test1,2,0.5733737999998993,-70.0
7,wby,m,23,r,1,(121.76378772032349, 121.76378772032349),22,7,3,no,m,6,m,0.6682983000000604,1,39,test1,2,0.6684034999998403,-70.0
7,wby,m,23,r,1,(121.76378772032346, -121.76378772032352),28,-3,11,yes,x,5,m,0.6005075999992187,0,40,test1,2,0.6006078000000343,-48.0
7,wby,m,23,r,1,(-3.163262682197613e-14, -172.20000000000002),27,7,3,yes,x,5,x,0.8210699999999633,1,41,test1,2,0.821173400000589,-38.0
7,wby,m,23,r,1,(-172.20000000000002, 2.1088417881317425e-14),25,-5,12,no,m,6,m,0.5465180999999575,1,42,test1,2,0.5468358000007356,-38.0
7,wby,m,23,r,1,(121.76378772032349, 121.76378772032349),22,3,1,yes,x,5,m,0.7962447999998403,0,43,test1,2,0.796565699999519,-42.0
7,wby,m,23,r,1,(-172.20000000000002, 2.1088417881317425e-14),25,-3,11,yes,x,5,m,0.8014665000000605,0,44,test1,2,0.8020458000000872,-48.0
7,wby,m,23,r,1,(-121.76378772032348, 121.76378772032349),24,-25,14,no,m,6,m,0.8524471000000631,1,45,test1,2,0.8528131999992183,-48.0
7,wby,m,23,r,1,(172.20000000000002, 0.0),21,5,2,yes,x,5,x,1.0418537999994442,1,46,test1,2,1.0420094999999492,-40.0
7,wby,m,23,r,1,(121.76378772032346, -121.76378772032352),28,5,2,yes,x,5,x,0.7984354999998686,1,47,test1,2,0.7986997999996674,-40.0
7,wby,m,23,r,1,(1.0544208940658713e-14, 172.20000000000002),23,-25,14,yes,x,5,x,0.6649387000006755,1,48,test1,2,0.6651618000005328,-70.0
7,wby,m,23,r,1,(-121.76378772032348, 121.76378772032349),24,5,2,yes,x,5,x,0.8871380000000499,1,49,test1,2,0.8877843999998731,-40.0
7,wby,m,23,r,1,(1.0544208940658713e-14, 172.20000000000002),23,25,4,yes,x,5,x,0.4663482000005388,1,50,test1,2,0.4665905000001658,-20.0
7,wby,m,23,r,1,(-121.76378772032348, 121.76378772032349),24,3,1,yes,x,5,m,0.8132909999994808,0,51,test1,2,0.8137456000004022,-42.0
7,wby,m,23,r,1,(-121.76378772032352, -121.76378772032348),26,5,2,yes,x,5,m,1.3747066000005361,0,52,test1,2,1.3751853999992818,-40.0
7,wby,m,23,r,1,(172.20000000000002, 0.0),21,7,3,yes,x,5,x,1.5002997000001415,1,53,test1,2,1.5004025999996884,-38.0
7,wby,m,23,r,1,(-121.76378772032352, -121.76378772032348),26,-25,14,yes,x,5,x,0.5130060999999841,1,54,test1,2,0.5132462999999916,-70.0
7,wby,m,23,r,1,(-3.163262682197613e-14, -172.20000000000002),27,25,4,yes,x,5,x,0.46480460000020685,1,55,test1,2,0.4655000000002474,-20.0
7,wby,m,23,r,1,(121.76378772032349, 121.76378772032349),22,7,3,yes,x,5,x,0.5683478000000832,1,56,test1,2,0.5684791000003315,-38.0
7,wby,m,23,r,1,(-172.20000000000002, 2.1088417881317425e-14),25,25,4,no,m,6,m,0.8857560999995258,1,57,test1,2,0.8859925999995539,-38.0
7,wby,m,23,r,1,(121.76378772032349, 121.76378772032349),22,25,4,yes,x,5,x,0.5425024999995003,1,58,test1,2,0.5429067999994004,-20.0
7,wby,m,23,r,1,(-3.163262682197613e-14, -172.20000000000002),27,-25,14,no,m,6,m,0.7083716999995886,1,59,test1,2,0.7084979999999632,-20.0
7,wby,m,23,r,1,(172.20000000000002, 0.0),21,-5,12,yes,x,5,x,0.6861533999999665,1,60,test1,2,0.6862529999998515,-50.0
7,wby,m,23,r,1,(1.0544208940658713e-14, 172.20000000000002),23,7,3,no,m,6,m,0.7228384000000005,1,61,test1,2,0.7229694999996354,-50.0
7,wby,m,23,r,1,(-121.76378772032348, 121.76378772032349),24,7,3,yes,x,5,m,0.7799537999999302,0,62,test1,2,0.780054800000471,-38.0
7,wby,m,23,r,1,(-3.163262682197613e-14, -172.20000000000002),27,25,4,yes,x,5,x,0.5283583000000363,1,63,test1,2,0.5286394999993718,-20.0
7,wby,m,23,r,1,(1.0544208940658713e-14, 172.20000000000002),23,25,4,yes,x,5,x,0.4781580999997459,1,64,test1,2,0.4788759000002756,-20.0
7,wby,m,23,r,1,(121.76378772032349, 121.76378772032349),22,5,2,no,m,6,m,0.6402472999998281,1,65,test1,2,0.6403608000000531,-20.0
7,wby,m,23,r,1,(172.20000000000002, 0.0),21,3,1,no,m,6,m,0.567106500000591,1,66,test1,2,0.5672297000000981,-20.0
7,wby,m,23,r,1,(1.0544208940658713e-14, 172.20000000000002),23,-5,12,no,m,6,m,0.6731365999994523,1,67,test1,2,0.6735194000002593,-20.0
7,wby,m,23,r,1,(121.76378772032349, 121.76378772032349),22,5,2,yes,x,5,m,0.5503619000000981,0,68,test1,2,0.550492999999733,-40.0
7,wby,m,23,r,1,(172.20000000000002, 0.0),21,-7,13,yes,x,5,x,0.6776591000007102,1,69,test1,2,0.6778709999998682,-52.0
7,wby,m,23,r,1,(-3.163262682197613e-14, -172.20000000000002),27,-5,12,yes,x,5,x,1.1525891999999658,1,70,test1,2,1.1527264999995168,-50.0
7,wby,m,23,r,1,(172.20000000000002, 0.0),21,-3,11,yes,x,5,x,0.7553022000001874,1,71,test1,2,0.7555338000001939,-48.0
7,wby,m,23,r,1,(121.76378772032346, -121.76378772032352),28,-5,12,yes,x,5,x,0.7604665999997451,1,72,test1,2,0.7606476000000839,-50.0
7,wby,m,23,r,1,(-121.76378772032352, -121.76378772032348),26,3,1,yes,x,5,m,0.912065800000164,0,73,test1,2,0.9122451000002911,-42.0
7,wby,m,23,r,1,(121.76378772032346, -121.76378772032352),28,-5,12,yes,x,5,x,0.7901834000003873,1,74,test1,2,0.7903063000003385,-50.0
7,wby,m,23,r,1,(-3.163262682197613e-14, -172.20000000000002),27,-5,12,yes,x,5,x,1.108343099999729,1,75,test1,2,1.108595100000457,-50.0
7,wby,m,23,r,1,(-121.76378772032348, 121.76378772032349),24,-25,14,yes,x,5,x,0.4891688999996404,1,76,test1,2,0.49021260000063194,-70.0
7,wby,m,23,r,1,(121.76378772032346, -121.76378772032352),28,-25,14,yes,x,5,x,0.574747199999365,1,77,test1,2,0.574965699999666,-70.0
7,wby,m,23,r,1,(172.20000000000002, 0.0),21,7,3,no,m,6,m,1.0619315000003553,1,78,test1,2,1.0621688000001086,-70.0
7,wby,m,23,r,1,(-3.163262682197613e-14, -172.20000000000002),27,7,3,no,m,6,m,0.6151837000006708,1,79,test1,2,0.6152891000001546,-70.0
7,wby,m,23,r,1,(121.76378772032346, -121.76378772032352),28,25,4,yes,x,5,x,0.6378519999998389,1,80,test1,2,0.638040999999248,-20.0
7,wby,m,23,r,1,(-121.76378772032348, 121.76378772032349),24,-5,12,yes,x,5,x,1.3174609999996392,1,81,test1,2,1.3178561000004265,-50.0
7,wby,m,23,r,1,(1.0544208940658713e-14, 172.20000000000002),23,-3,11,yes,x,5,x,1.0594092999999702,1,82,test1,2,1.059669300000678,-48.0
7,wby,m,23,r,1,(121.76378772032346, -121.76378772032352),28,-3,11,yes,x,5,m,1.0493319999995947,0,83,test1,2,1.0494865999999092,-48.0
7,wby,m,23,r,1,(-172.20000000000002, 2.1088417881317425e-14),25,-3,11,no,m,6,m,0.9734327999995003,1,84,test1,2,0.9737654000000475,-48.0
7,wby,m,23,r,1,(-172.20000000000002, 2.1088417881317425e-14),25,-5,12,yes,x,5,x,0.7686312000005273,1,85,test1,2,0.7687663999995493,-50.0
7,wby,m,23,r,1,(-121.76378772032348, 121.76378772032349),24,7,3,no,m,6,m,0.7137295000002268,1,86,test1,2,0.714477600000464,-50.0
7,wby,m,23,r,1,(121.76378772032349, 121.76378772032349),22,-3,11,yes,x,5,m,0.818600399999923,0,87,test1,2,0.8190222999992329,-48.0
7,wby,m,23,r,1,(121.76378772032349, 121.76378772032349),22,-7,13,no,m,6,m,0.8434706999996706,1,88,test1,2,0.8436422999993738,-48.0
7,wby,m,23,r,1,(-3.163262682197613e-14, -172.20000000000002),27,-7,13,no,m,6,m,0.9260604000000967,1,89,test1,2,0.9261889999997948,-48.0
7,wby,m,23,r,1,(1.0544208940658713e-14, 172.20000000000002),23,-3,11,no,m,6,m,0.6193632000004072,1,90,test1,2,0.6195682999996279,-48.0
7,wby,m,23,r,1,(-121.76378772032352, -121.76378772032348),26,25,4,yes,x,5,x,0.5186303999998927,1,91,test1,2,0.5187991000002512,-20.0
7,wby,m,23,r,1,(-172.20000000000002, 2.1088417881317425e-14),25,-5,12,yes,x,5,x,0.630998599999657,1,92,test1,2,0.6311126999999033,-50.0
7,wby,m,23,r,1,(-172.20000000000002, 2.1088417881317425e-14),25,-25,14,yes,x,5,x,0.3959015999998883,1,93,test1,2,0.3961421000003611,-70.0
7,wby,m,23,r,1,(172.20000000000002, 0.0),21,-5,12,yes,x,5,x,0.568802499999947,1,94,test1,2,0.5690381000003981,-50.0
7,wby,m,23,r,1,(-3.163262682197613e-14, -172.20000000000002),27,-7,13,yes,x,5,x,0.5965994999996838,1,95,test1,2,0.5967448000001241,-52.0
7,wby,m,23,r,1,(-3.163262682197613e-14, -172.20000000000002),27,5,2,no,m,6,m,0.7181574999995064,1,96,test1,2,0.7183340999999928,-52.0
7,wby,m,23,r,1,(-172.20000000000002, 2.1088417881317425e-14),25,7,3,yes,x,5,x,0.7618844999997236,1,1,test2,2,0.762021000000459,-38.0
7,wby,m,23,r,1,(121.76378772032349, 121.76378772032349),22,3,1,yes,x,5,m,0.7413077999999587,0,2,test2,2,0.7415558999991845,-42.0
7,wby,m,23,r,1,(-3.163262682197613e-14, -172.20000000000002),27,-5,12,no,m,6,m,0.9272065999994084,1,3,test2,2,0.9275074999995923,-42.0
7,wby,m,23,r,1,(-3.163262682197613e-14, -172.20000000000002),27,5,2,yes,x,5,x,0.8233566999997493,1,4,test2,2,0.8237447000001339,-40.0
7,wby,m,23,r,1,(-3.163262682197613e-14, -172.20000000000002),27,-3,11,yes,x,5,x,1.1282217999996647,1,5,test2,2,1.1283547000002727,-48.0
7,wby,m,23,r,1,(172.20000000000002, 0.0),21,-3,11,yes,x,5,m,0.752605599999697,0,6,test2,2,0.7527208999999857,-48.0
7,wby,m,23,r,1,(172.20000000000002, 0.0),21,3,1,yes,x,5,x,0.7359343999996781,1,7,test2,2,0.7360490999999456,-42.0
7,wby,m,23,r,1,(121.76378772032349, 121.76378772032349),22,7,3,yes,x,5,x,0.6784822000008717,1,8,test2,2,0.6785947999997006,-38.0
7,wby,m,23,r,1,(121.76378772032346, -121.76378772032352),28,5,2,yes,x,5,x,0.7763984000002893,1,9,test2,2,0.7764997000003859,-40.0
7,wby,m,23,r,1,(-121.76378772032348, 121.76378772032349),24,5,2,yes,x,5,x,0.5983550000000832,1,10,test2,2,0.5984683999995468,-40.0
7,wby,m,23,r,1,(-121.76378772032348, 121.76378772032349),24,-3,11,yes,x,5,x,0.9124871000003623,1,11,test2,2,0.9126600999998118,-48.0
7,wby,m,23,r,1,(121.76378772032349, 121.76378772032349),22,-25,14,yes,x,5,x,0.47958850000031816,1,12,test2,2,0.47988860000077693,-70.0
7,wby,m,23,r,1,(172.20000000000002, 0.0),21,25,4,yes,x,5,x,0.4242705000006026,1,13,test2,2,0.424485999999888,-20.0
7,wby,m,23,r,1,(-3.163262682197613e-14, -172.20000000000002),27,25,4,no,m,6,x,1.0079982999995991,0,14,test2,2,1.0081920000002356,-20.0
7,wby,m,23,r,1,(121.76378772032349, 121.76378772032349),22,-3,11,yes,x,5,x,0.9667196000000331,1,15,test2,2,0.9669284000001426,-48.0
7,wby,m,23,r,1,(1.0544208940658713e-14, 172.20000000000002),23,-7,13,yes,x,5,x,0.4531833999999435,1,16,test2,2,0.45331890000034036,-52.0
7,wby,m,23,r,1,(172.20000000000002, 0.0),21,-7,13,yes,x,5,x,0.44356339999922056,1,17,test2,2,0.4437483000001521,-52.0
7,wby,m,23,r,1,(-3.163262682197613e-14, -172.20000000000002),27,3,1,yes,x,5,x,1.4568122000000585,1,18,test2,2,1.4570212000007814,-42.0
7,wby,m,23,r,1,(-121.76378772032352, -121.76378772032348),26,5,2,yes,x,5,x,0.6433964999996533,1,19,test2,2,0.6435300000002826,-40.0
7,wby,m,23,r,1,(121.76378772032349, 121.76378772032349),22,-7,13,yes,x,5,x,0.5840473999996902,1,20,test2,2,0.5844830999994883,-52.0
7,wby,m,23,r,1,(1.0544208940658713e-14, 172.20000000000002),23,7,3,yes,x,5,x,0.46205600000030245,1,21,test2,2,0.46241749999990134,-38.0
7,wby,m,23,r,1,(-121.76378772032352, -121.76378772032348),26,5,2,no,m,6,m,1.4653189000000566,1,22,test2,2,1.4654497999999876,-38.0
7,wby,m,23,r,1,(-121.76378772032352, -121.76378772032348),26,-7,13,no,m,6,m,0.7511445000000094,1,23,test2,2,0.7513748000001215,-38.0
7,wby,m,23,r,1,(121.76378772032346, -121.76378772032352),28,-25,14,yes,x,5,x,0.4883052000004682,1,24,test2,2,0.48867969999992056,-70.0
7,wby,m,23,r,1,(172.20000000000002, 0.0),21,3,1,yes,x,5,m,0.7801145000003089,0,25,test2,2,0.7802880999997797,-42.0
7,wby,m,23,r,1,(-3.163262682197613e-14, -172.20000000000002),27,5,2,yes,x,5,x,0.7401222000007692,1,26,test2,2,0.7403965000003154,-40.0
7,wby,m,23,r,1,(172.20000000000002, 0.0),21,5,2,yes,x,5,x,0.832883000000038,1,27,test2,2,0.8331505000005563,-40.0
7,wby,m,23,r,1,(121.76378772032346, -121.76378772032352),28,3,1,yes,x,5,x,0.8352153000005273,1,28,test2,2,0.8353348999999071,-42.0
7,wby,m,23,r,1,(-121.76378772032352, -121.76378772032348),26,-3,11,yes,x,5,x,0.7593577999996342,1,29,test2,2,0.7595363000000361,-48.0
7,wby,m,23,r,1,(121.76378772032349, 121.76378772032349),22,-25,14,no,m,6,m,0.9141668999991452,1,30,test2,2,0.9142982999992455,-48.0
7,wby,m,23,r,1,(-172.20000000000002, 2.1088417881317425e-14),25,-3,11,yes,x,5,x,1.0704076000001805,1,31,test2,2,1.07064470000023,-48.0
7,wby,m,23,r,1,(1.0544208940658713e-14, 172.20000000000002),23,25,4,no,m,6,m,0.7285087000000203,1,32,test2,2,0.7289013999998133,-48.0
7,wby,m,23,r,1,(-172.20000000000002, 2.1088417881317425e-14),25,-7,13,yes,x,5,x,0.5904246000000057,1,33,test2,2,0.5905171000003975,-52.0
7,wby,m,23,r,1,(172.20000000000002, 0.0),21,-3,11,no,m,6,m,0.8122536000000764,1,34,test2,2,0.8124010999999882,-52.0
7,wby,m,23,r,1,(-121.76378772032352, -121.76378772032348),26,-3,11,yes,x,5,x,0.6683341999996628,1,35,test2,2,0.6685772999999244,-48.0
7,wby,m,23,r,1,(-121.76378772032348, 121.76378772032349),24,25,4,yes,x,5,x,0.5610670999994909,1,36,test2,2,0.5615384999991875,-20.0
7,wby,m,23,r,1,(121.76378772032349, 121.76378772032349),22,-5,12,yes,x,5,m,0.6786530999997922,0,37,test2,2,0.6787535000003118,-50.0
7,wby,m,23,r,1,(-121.76378772032348, 121.76378772032349),24,25,4,yes,x,5,x,0.6555404000000635,1,38,test2,2,0.655637700000625,-20.0
7,wby,m,23,r,1,(-121.76378772032352, -121.76378772032348),26,7,3,no,m,6,m,0.6119889000001422,1,39,test2,2,0.6121694000003117,-20.0
7,wby,m,23,r,1,(-121.76378772032352, -121.76378772032348),26,-5,12,yes,x,5,x,0.6042835999996896,1,40,test2,2,0.6046580000001995,-50.0
7,wby,m,23,r,1,(-121.76378772032348, 121.76378772032349),24,3,1,no,m,6,m,0.748634999999922,1,41,test2,2,0.7487365999995745,-50.0
7,wby,m,23,r,1,(-3.163262682197613e-14, -172.20000000000002),27,3,1,no,m,6,m,0.6537994000000253,1,42,test2,2,0.6539767000003849,-50.0
7,wby,m,23,r,1,(121.76378772032349, 121.76378772032349),22,-25,14,yes,x,5,x,0.5424920999994356,1,43,test2,2,0.5430084999998144,-70.0
7,wby,m,23,r,1,(-121.76378772032352, -121.76378772032348),26,-7,13,yes,x,5,x,0.49416670000027807,1,44,test2,2,0.4945207999999184,-52.0
7,wby,m,23,r,1,(-121.76378772032348, 121.76378772032349),24,7,3,yes,x,5,x,0.5300914999997985,1,45,test2,2,0.5302763999998206,-38.0
7,wby,m,23,r,1,(121.76378772032346, -121.76378772032352),28,3,1,yes,x,5,m,0.5747577000001911,0,46,test2,2,0.5752886000000217,-42.0
7,wby,m,23,r,1,(-3.163262682197613e-14, -172.20000000000002),27,3,1,yes,x,5,m,0.8400694000001749,0,47,test2,2,0.8402086000005511,-42.0
7,wby,m,23,r,1,(-121.76378772032352, -121.76378772032348),26,-5,12,no,m,6,m,0.953064400000585,1,48,test2,2,0.9532113999994181,-42.0
7,wby,m,23,r,1,(-121.76378772032352, -121.76378772032348),26,-25,14,yes,x,5,x,0.5753482999998596,1,49,test2,2,0.5759610999994038,-70.0
7,wby,m,23,r,1,(-172.20000000000002, 2.1088417881317425e-14),25,5,2,yes,x,5,x,0.7205910000002405,1,50,test2,2,0.7209149000000252,-40.0
7,wby,m,23,r,1,(-172.20000000000002, 2.1088417881317425e-14),25,-25,14,yes,x,5,x,0.5157917999995334,1,51,test2,2,0.5159855000001698,-70.0
7,wby,m,23,r,1,(1.0544208940658713e-14, 172.20000000000002),23,5,2,no,m,6,m,0.5373182000002998,1,52,test2,2,0.5375116999994134,-70.0
7,wby,m,23,r,1,(121.76378772032349, 121.76378772032349),22,-7,13,yes,x,5,x,1.4801735000000917,1,53,test2,2,1.4802724999999555,-52.0
7,wby,m,23,r,1,(121.76378772032349, 121.76378772032349),22,25,4,no,m,6,m,0.6276582999998936,1,54,test2,2,0.62778310000067,-52.0
7,wby,m,23,r,1,(121.76378772032349, 121.76378772032349),22,25,4,yes,x,5,x,0.5355390000004263,1,55,test2,2,0.5357292000007874,-20.0
7,wby,m,23,r,1,(-121.76378772032348, 121.76378772032349),24,5,2,no,m,6,m,0.8782152999992832,1,56,test2,2,0.8783174000000145,-20.0
7,wby,m,23,r,1,(-121.76378772032348, 121.76378772032349),24,-7,13,no,m,6,m,0.5328237000003355,1,57,test2,2,0.5332648000003246,-20.0
7,wby,m,23,r,1,(-121.76378772032352, -121.76378772032348),26,25,4,no,m,6,m,0.547971800000596,1,58,test2,2,0.5481776000005993,-20.0
7,wby,m,23,r,1,(-172.20000000000002, 2.1088417881317425e-14),25,7,3,yes,x,5,x,0.7544570999998541,1,59,test2,2,0.7547175999998217,-38.0
7,wby,m,23,r,1,(121.76378772032349, 121.76378772032349),22,-3,11,no,m,6,m,0.6292975000005754,1,60,test2,2,0.629621699999916,-38.0
7,wby,m,23,r,1,(1.0544208940658713e-14, 172.20000000000002),23,-3,11,yes,x,5,m,0.43181020000065473,0,61,test2,2,0.4320219999999608,-48.0
7,wby,m,23,r,1,(172.20000000000002, 0.0),21,7,3,yes,x,5,x,0.5738824000000022,1,62,test2,2,0.5739861000001838,-38.0
7,wby,m,23,r,1,(1.0544208940658713e-14, 172.20000000000002),23,-25,14,yes,x,5,x,0.7269209000005503,1,63,test2,2,0.727136900000005,-70.0
7,wby,m,23,r,1,(121.76378772032346, -121.76378772032352),28,-5,12,no,m,6,m,0.6159428000000844,1,64,test2,2,0.6162406000003102,-70.0
7,wby,m,23,r,1,(121.76378772032346, -121.76378772032352),28,7,3,yes,x,5,m,0.6547672999995484,0,65,test2,2,0.6549019000003682,-38.0
7,wby,m,23,r,1,(172.20000000000002, 0.0),21,5,2,no,m,6,m,0.8738690000000133,1,66,test2,2,0.8740927999997439,-38.0
7,wby,m,23,r,1,(1.0544208940658713e-14, 172.20000000000002),23,5,2,yes,x,5,x,0.8439981999999873,1,67,test2,2,0.8441167999999379,-40.0
7,wby,m,23,r,1,(-3.163262682197613e-14, -172.20000000000002),27,-3,11,yes,x,5,m,0.605399999999463,0,68,test2,2,0.6057804000001852,-48.0
7,wby,m,23,r,1,(1.0544208940658713e-14, 172.20000000000002),23,3,1,no,m,6,m,0.6965168999995512,1,69,test2,2,0.6966284000000087,-48.0
7,wby,m,23,r,1,(-121.76378772032348, 121.76378772032349),24,-5,12,no,m,6,m,0.6865127000000939,1,70,test2,2,0.6868068000003404,-48.0
7,wby,m,23,r,1,(-121.76378772032352, -121.76378772032348),26,-5,12,yes,x,5,x,0.5437244000004284,1,71,test2,2,0.5438219999996363,-50.0
7,wby,m,23,r,1,(-172.20000000000002, 2.1088417881317425e-14),25,3,1,yes,x,5,m,0.6405424999993556,0,72,test2,2,0.640991700000086,-42.0
7,wby,m,23,r,1,(-172.20000000000002, 2.1088417881317425e-14),25,25,4,yes,x,5,x,0.4723321000001306,1,73,test2,2,0.47243620000062947,-20.0
7,wby,m,23,r,1,(-121.76378772032348, 121.76378772032349),24,-3,11,no,m,6,m,0.5878648999996585,1,74,test2,2,0.5879652000003261,-20.0
7,wby,m,23,r,1,(172.20000000000002, 0.0),21,-25,14,yes,x,5,x,0.49565009999969334,1,75,test2,2,0.4958261000001585,-70.0
7,wby,m,23,r,1,(-121.76378772032352, -121.76378772032348),26,3,1,no,m,6,m,0.5209041000007346,1,76,test2,2,0.5210988999997426,-70.0
7,wby,m,23,r,1,(1.0544208940658713e-14, 172.20000000000002),23,-7,13,yes,x,5,x,0.5830175000000963,1,77,test2,2,0.5832402000005459,-52.0
7,wby,m,23,r,1,(-121.76378772032348, 121.76378772032349),24,3,1,yes,x,5,x,0.9385870000005525,1,78,test2,2,0.9387016000000585,-42.0
7,wby,m,23,r,1,(-172.20000000000002, 2.1088417881317425e-14),25,-7,13,yes,x,5,x,0.6912074000001667,1,79,test2,2,0.6914640999993935,-52.0
7,wby,m,23,r,1,(172.20000000000002, 0.0),21,-5,12,no,m,6,m,0.6898965000000317,1,80,test2,2,0.6899950999995781,-52.0
7,wby,m,23,r,1,(172.20000000000002, 0.0),21,-25,14,no,m,6,m,0.4360828999997466,1,81,test2,2,0.43632439999964845,-52.0
7,wby,m,23,r,1,(1.0544208940658713e-14, 172.20000000000002),23,-5,12,yes,x,5,x,0.5091854000002058,1,82,test2,2,0.5093479999995907,-50.0
7,wby,m,23,r,1,(-121.76378772032348, 121.76378772032349),24,-7,13,yes,x,5,x,0.532984999999826,1,83,test2,2,0.533098400000199,-52.0
7,wby,m,23,r,1,(-121.76378772032352, -121.76378772032348),26,3,1,yes,x,5,m,0.8573682000005647,0,84,test2,2,0.8574978999995437,-42.0
7,wby,m,23,r,1,(-172.20000000000002, 2.1088417881317425e-14),25,7,3,no,m,6,m,0.8493643000001612,1,85,test2,2,0.849565800000164,-42.0
7,wby,m,23,r,1,(121.76378772032346, -121.76378772032352),28,-25,14,no,m,6,m,0.5106114000000161,1,86,test2,2,0.5111172999995688,-42.0
7,wby,m,23,r,1,(172.20000000000002, 0.0),21,25,4,yes,x,5,x,0.5453354000001127,1,87,test2,2,0.5454439999994065,-20.0
7,wby,m,23,r,1,(-3.163262682197613e-14, -172.20000000000002),27,-25,14,yes,x,5,x,0.5075883999998041,1,88,test2,2,0.5077031000000716,-70.0
7,wby,m,23,r,1,(-172.20000000000002, 2.1088417881317425e-14),25,-25,14,no,m,6,m,0.7026001000003816,1,89,test2,2,0.7027664999995977,-70.0
7,wby,m,23,r,1,(1.0544208940658713e-14, 172.20000000000002),23,-5,12,yes,x,5,x,0.6678253000000041,1,90,test2,2,0.6680967000002056,-50.0
7,wby,m,23,r,1,(1.0544208940658713e-14, 172.20000000000002),23,-7,13,no,m,6,x,0.6305830000001151,0,91,test2,2,0.6309454000002006,-50.0
7,wby,m,23,r,1,(121.76378772032346, -121.76378772032352),28,-3,11,no,m,6,m,0.5407846999996764,1,92,test2,2,0.5409734999993816,-50.0
7,wby,m,23,r,1,(-3.163262682197613e-14, -172.20000000000002),27,7,3,yes,x,5,x,0.581287699999848,1,93,test2,2,0.5815672999997332,-38.0
7,wby,m,23,r,1,(-3.163262682197613e-14, -172.20000000000002),27,-7,13,yes,x,5,x,0.5984065000002374,1,94,test2,2,0.5987113999999565,-52.0
7,wby,m,23,r,1,(1.0544208940658713e-14, 172.20000000000002),23,5,2,yes,x,5,m,0.7494136000004801,0,95,test2,2,0.7495155999995404,-40.0
7,wby,m,23,r,1,(121.76378772032346, -121.76378772032352),28,-7,13,yes,x,5,x,0.928097600000001,1,96,test2,2,0.9282117000002472,-52.0
7,wby,m,23,r,1,(172.20000000000002, 0.0),21,25,4,no,m,6,m,0.896313100000043,1,1,test1,3,0.896580399999948,-52.0
7,wby,m,23,r,1,(121.76378772032349, 121.76378772032349),22,-5,12,no,m,6,m,0.47402559999954974,1,2,test1,3,0.4742031000005227,-52.0
7,wby,m,23,r,1,(-172.20000000000002, 2.1088417881317425e-14),25,-7,13,no,m,6,m,0.4369745999993029,1,3,test1,3,0.43728120000014314,-52.0
7,wby,m,23,r,1,(121.76378772032346, -121.76378772032352),28,25,4,no,m,6,m,0.5130427000003692,1,4,test1,3,0.5132504000002882,-52.0
7,wby,m,23,r,1,(-172.20000000000002, 2.1088417881317425e-14),25,5,2,yes,x,5,x,0.5872351999996681,1,5,test1,3,0.5873842000000877,-40.0
7,wby,m,23,r,1,(1.0544208940658713e-14, 172.20000000000002),23,-25,14,no,m,6,m,0.6188141000002361,1,6,test1,3,0.6190375999995013,-40.0
7,wby,m,23,r,1,(121.76378772032346, -121.76378772032352),28,3,1,no,m,6,m,0.4414937999999893,1,7,test1,3,0.4416214000002583,-40.0
7,wby,m,23,r,1,(1.0544208940658713e-14, 172.20000000000002),23,7,3,yes,x,5,x,0.637135599999965,1,8,test1,3,0.6374406000004456,-38.0
7,wby,m,23,r,1,(-121.76378772032352, -121.76378772032348),26,25,4,yes,x,5,x,0.5349532000000181,1,9,test1,3,0.535339699999895,-20.0
7,wby,m,23,r,1,(-121.76378772032352, -121.76378772032348),26,-25,14,no,m,6,m,0.8885120000004463,1,10,test1,3,0.8886961000007432,-20.0
7,wby,m,23,r,1,(-121.76378772032348, 121.76378772032349),24,-3,11,yes,x,5,x,0.753719600000295,1,11,test1,3,0.7538821999996799,-48.0
7,wby,m,23,r,1,(121.76378772032349, 121.76378772032349),22,5,2,yes,x,5,x,0.6888859999999113,1,12,test1,3,0.6890127999995457,-40.0
7,wby,m,23,r,1,(-3.163262682197613e-14, -172.20000000000002),27,-25,14,yes,x,5,x,0.5336380999997345,1,13,test1,3,0.5337555999994947,-70.0
7,wby,m,23,r,1,(172.20000000000002, 0.0),21,-7,13,no,m,6,m,0.6901071000002048,1,14,test1,3,0.6902788000006694,-70.0
7,wby,m,23,r,1,(-3.163262682197613e-14, -172.20000000000002),27,-3,11,no,m,6,m,0.540150700000595,1,15,test1,3,0.5403700000006211,-70.0
7,wby,m,23,r,1,(-172.20000000000002, 2.1088417881317425e-14),25,3,1,yes,x,5,m,0.6051821000000928,0,16,test1,3,0.6054233999993812,-42.0
7,wby,m,23,r,1,(121.76378772032346, -121.76378772032352),28,25,4,yes,x,5,x,0.6384391999999934,1,17,test1,3,0.6387388000002829,-20.0
7,wby,m,23,r,1,(121.76378772032346, -121.76378772032352),28,7,3,yes,x,5,x,1.157180100000005,1,18,test1,3,1.1574111999998422,-38.0
7,wby,m,23,r,1,(121.76378772032349, 121.76378772032349),22,3,1,no,m,6,m,0.8494288000001688,1,19,test1,3,0.8495493999998871,-38.0
7,wby,m,23,r,1,(-121.76378772032352, -121.76378772032348),26,7,3,yes,x,5,x,0.6897810000000391,1,20,test1,3,0.6899553000002925,-38.0
7,wby,m,23,r,1,(121.76378772032349, 121.76378772032349),22,-5,12,yes,x,5,x,0.8886222999999518,1,21,test1,3,0.8889777999993385,-50.0
7,wby,m,23,r,1,(-172.20000000000002, 2.1088417881317425e-14),25,3,1,no,m,6,m,0.8076594000003752,1,22,test1,3,0.8077779999994164,-50.0
7,wby,m,23,r,1,(-121.76378772032348, 121.76378772032349),24,-7,13,yes,x,5,x,0.5894203999996535,1,23,test1,3,0.5897072999996453,-52.0
7,wby,m,23,r,1,(121.76378772032346, -121.76378772032352),28,-7,13,yes,x,5,x,0.9583164999994551,1,24,test1,3,0.958741700000246,-52.0
7,wby,m,23,r,1,(-172.20000000000002, 2.1088417881317425e-14),25,25,4,yes,x,5,x,0.5989532000003237,1,25,test1,3,0.5992068999994444,-20.0
7,wby,m,23,r,1,(-172.20000000000002, 2.1088417881317425e-14),25,5,2,no,m,6,m,0.729309899999862,1,26,test1,3,0.7297637000001487,-20.0
7,wby,m,23,r,1,(-121.76378772032352, -121.76378772032348),26,-3,11,no,m,6,m,0.5900180999997247,1,27,test1,3,0.5903060000000551,-20.0
7,wby,m,23,r,1,(1.0544208940658713e-14, 172.20000000000002),23,3,1,yes,x,5,m,0.8115907000001243,0,28,test1,3,0.8119551999998293,-42.0
7,wby,m,23,r,1,(121.76378772032346, -121.76378772032352),28,-7,13,no,m,6,m,1.1374792000005982,1,29,test1,3,1.1376225000003615,-42.0
7,wby,m,23,r,1,(121.76378772032346, -121.76378772032352),28,5,2,no,m,6,m,0.7281105000001844,1,30,test1,3,0.7283225999999559,-42.0
7,wby,m,23,r,1,(172.20000000000002, 0.0),21,-25,14,yes,x,5,x,0.5124032000003353,1,31,test1,3,0.5125745999994251,-70.0
7,wby,m,23,r,1,(-121.76378772032348, 121.76378772032349),24,25,4,no,m,6,m,0.5955818000002182,1,32,test1,3,0.5956792999995741,-70.0
7,wby,m,23,r,1,(-121.76378772032352, -121.76378772032348),26,-7,13,yes,x,5,x,0.47186619999956747,1,33,test1,3,0.47198649999972986,-52.0
7,wby,m,23,r,1,(-121.76378772032348, 121.76378772032349),24,-5,12,yes,x,5,x,0.5397416999994675,1,34,test1,3,0.5398684000001595,-50.0
7,wby,m,23,r,1,(1.0544208940658713e-14, 172.20000000000002),23,3,1,yes,x,5,x,1.2155770000008488,1,35,test1,3,1.2156949999998687,-42.0
7,wby,m,23,r,1,(-121.76378772032352, -121.76378772032348),26,7,3,yes,x,5,x,0.7731707000002643,1,36,test1,3,0.77330240000083,-38.0
7,wby,m,23,r,1,(121.76378772032346, -121.76378772032352),28,7,3,no,m,6,m,1.3883851999999024,1,37,test1,3,1.388599300000351,-38.0
7,wby,m,23,r,1,(-121.76378772032348, 121.76378772032349),24,-25,14,yes,x,5,x,0.4701559000004636,1,38,test1,3,0.4703969000001962,-70.0
7,wby,m,23,r,1,(121.76378772032349, 121.76378772032349),22,7,3,no,m,6,m,0.7339394999999058,1,39,test1,3,0.7341505000003963,-70.0
7,wby,m,23,r,1,(121.76378772032346, -121.76378772032352),28,-3,11,yes,x,5,m,0.5363998000002539,0,40,test1,3,0.5368013999996037,-48.0
7,wby,m,23,r,1,(-3.163262682197613e-14, -172.20000000000002),27,7,3,yes,x,5,x,0.6299951000000874,1,41,test1,3,0.6301845000007233,-38.0
7,wby,m,23,r,1,(-172.20000000000002, 2.1088417881317425e-14),25,-5,12,no,m,6,m,1.0637161000004198,1,42,test1,3,1.0639086999999563,-38.0
7,wby,m,23,r,1,(121.76378772032349, 121.76378772032349),22,3,1,yes,x,5,m,0.7878082000006543,0,43,test1,3,0.7880881000000954,-42.0
7,wby,m,23,r,1,(-172.20000000000002, 2.1088417881317425e-14),25,-3,11,yes,x,5,x,1.3464183000005505,1,44,test1,3,1.3465993999998318,-48.0
7,wby,m,23,r,1,(-121.76378772032348, 121.76378772032349),24,-25,14,no,m,6,m,0.6758340999995198,1,45,test1,3,0.6759683000000223,-48.0
7,wby,m,23,r,1,(172.20000000000002, 0.0),21,5,2,yes,x,5,x,0.9417596000002959,1,46,test1,3,0.9421020999998291,-40.0
7,wby,m,23,r,1,(121.76378772032346, -121.76378772032352),28,5,2,yes,x,5,x,1.435452499999883,1,47,test1,3,1.4356392999998207,-40.0
7,wby,m,23,r,1,(1.0544208940658713e-14, 172.20000000000002),23,-25,14,yes,x,5,x,0.6245665999995254,1,48,test1,3,0.6249078000000736,-70.0
7,wby,m,23,r,1,(-121.76378772032348, 121.76378772032349),24,5,2,yes,x,5,x,0.7254206999996313,1,49,test1,3,0.7258953000000474,-40.0
7,wby,m,23,r,1,(1.0544208940658713e-14, 172.20000000000002),23,25,4,yes,x,5,x,0.5242145000001983,1,50,test1,3,0.5244763999999122,-20.0
7,wby,m,23,r,1,(-121.76378772032348, 121.76378772032349),24,3,1,yes,x,5,m,0.7049118000004455,0,51,test1,3,0.7050738999996611,-42.0
7,wby,m,23,r,1,(-121.76378772032352, -121.76378772032348),26,5,2,yes,x,5,x,0.8749420000003738,1,52,test1,3,0.8751829000002544,-40.0
7,wby,m,23,r,1,(172.20000000000002, 0.0),21,7,3,yes,x,5,x,0.5500461000001451,1,53,test1,3,0.5503570000000764,-38.0
7,wby,m,23,r,1,(-121.76378772032352, -121.76378772032348),26,-25,14,yes,x,5,x,0.46913469999981317,1,54,test1,3,0.46932399999968766,-70.0
7,wby,m,23,r,1,(-3.163262682197613e-14, -172.20000000000002),27,25,4,yes,x,5,x,0.46142479999980424,1,55,test1,3,0.46166319999974803,-20.0
7,wby,m,23,r,1,(121.76378772032349, 121.76378772032349),22,7,3,yes,x,5,x,0.5180858000003354,1,56,test1,3,0.5182809999996607,-38.0
7,wby,m,23,r,1,(-172.20000000000002, 2.1088417881317425e-14),25,25,4,no,m,6,m,0.9326227999999901,1,57,test1,3,0.9327217000000019,-38.0
7,wby,m,23,r,1,(121.76378772032349, 121.76378772032349),22,25,4,yes,x,5,x,0.5952395999993314,1,58,test1,3,0.5955321000001277,-20.0
7,wby,m,23,r,1,(-3.163262682197613e-14, -172.20000000000002),27,-25,14,no,m,6,x,1.3419324999995297,0,59,test1,3,1.3420482000001357,-20.0
7,wby,m,23,r,1,(172.20000000000002, 0.0),21,-5,12,yes,x,5,m,0.6017485000002125,0,60,test1,3,0.60185569999976,-50.0
7,wby,m,23,r,1,(1.0544208940658713e-14, 172.20000000000002),23,7,3,no,m,6,m,0.6337825000000521,1,61,test1,3,0.6339029000000664,-50.0
7,wby,m,23,r,1,(-121.76378772032348, 121.76378772032349),24,7,3,yes,x,5,x,0.6208943999999974,1,62,test1,3,0.6212579000002734,-38.0
7,wby,m,23,r,1,(-3.163262682197613e-14, -172.20000000000002),27,25,4,yes,x,5,x,0.5846510999999737,1,63,test1,3,0.584937099999479,-20.0
7,wby,m,23,r,1,(1.0544208940658713e-14, 172.20000000000002),23,25,4,yes,x,5,x,0.44818599999962316,1,64,test1,3,0.44847909999953117,-20.0
7,wby,m,23,r,1,(121.76378772032349, 121.76378772032349),22,5,2,no,m,6,m,0.6338929999992615,1,65,test1,3,0.6340070000005653,-20.0
7,wby,m,23,r,1,(172.20000000000002, 0.0),21,3,1,no,m,6,m,0.8112182000004395,1,66,test1,3,0.811655200000132,-20.0
7,wby,m,23,r,1,(1.0544208940658713e-14, 172.20000000000002),23,-5,12,no,m,6,m,0.6273585999997522,1,67,test1,3,0.6278127999994467,-20.0
7,wby,m,23,r,1,(121.76378772032349, 121.76378772032349),22,5,2,yes,x,5,m,0.43655359999957,0,68,test1,3,0.43678989999989426,-40.0
7,wby,m,23,r,1,(172.20000000000002, 0.0),21,-7,13,yes,x,5,m,0.6447564999998576,0,69,test1,3,0.645243599999958,-52.0
7,wby,m,23,r,1,(-3.163262682197613e-14, -172.20000000000002),27,-5,12,yes,x,5,x,1.1228586999995969,1,70,test1,3,1.1229550999996718,-50.0
7,wby,m,23,r,1,(172.20000000000002, 0.0),21,-3,11,yes,x,5,m,0.6891822999996293,0,71,test1,3,0.6894678999997268,-48.0
7,wby,m,23,r,1,(121.76378772032346, -121.76378772032352),28,-5,12,yes,x,5,x,1.85597129999951,1,72,test1,3,1.8563368999994054,-50.0
7,wby,m,23,r,1,(-121.76378772032352, -121.76378772032348),26,3,1,yes,x,5,m,1.1379696000003605,0,73,test1,3,1.1380755999998655,-42.0
7,wby,m,23,r,1,(121.76378772032346, -121.76378772032352),28,-5,12,yes,x,5,x,0.8277264999996987,1,74,test1,3,0.8281124999994063,-50.0
7,wby,m,23,r,1,(-3.163262682197613e-14, -172.20000000000002),27,-5,12,yes,x,5,x,0.5849527000000307,1,75,test1,3,0.5853507000001628,-50.0
7,wby,m,23,r,1,(-121.76378772032348, 121.76378772032349),24,-25,14,yes,x,5,x,0.5037978999998813,1,76,test1,3,0.5041915000001609,-70.0
7,wby,m,23,r,1,(121.76378772032346, -121.76378772032352),28,-25,14,yes,x,5,x,0.4863785999996253,1,77,test1,3,0.48649250000016764,-70.0
7,wby,m,23,r,1,(172.20000000000002, 0.0),21,7,3,no,m,6,m,1.0822530000004917,1,78,test1,3,1.0823583000001236,-70.0
7,wby,m,23,r,1,(-3.163262682197613e-14, -172.20000000000002),27,7,3,no,m,6,m,0.6815428999998403,1,79,test1,3,0.6818360999996003,-70.0
7,wby,m,23,r,1,(121.76378772032346, -121.76378772032352),28,25,4,yes,x,5,x,0.6121842000002289,1,80,test1,3,0.6123042000008354,-20.0
7,wby,m,23,r,1,(-121.76378772032348, 121.76378772032349),24,-5,12,yes,x,5,x,0.7058676000006017,1,81,test1,3,0.7061171000004833,-50.0
7,wby,m,23,r,1,(1.0544208940658713e-14, 172.20000000000002),23,-3,11,yes,x,5,x,0.5461083000000144,1,82,test1,3,0.5462319999996907,-48.0
7,wby,m,23,r,1,(121.76378772032346, -121.76378772032352),28,-3,11,yes,x,5,x,0.8479433000002246,1,83,test1,3,0.8481700000002093,-48.0
7,wby,m,23,r,1,(-172.20000000000002, 2.1088417881317425e-14),25,-3,11,no,m,6,x,0.6081702000001314,0,84,test1,3,0.6082711999997628,-48.0
7,wby,m,23,r,1,(-172.20000000000002, 2.1088417881317425e-14),25,-5,12,yes,x,5,x,0.6303039999993416,1,85,test1,3,0.6309735000004366,-50.0
7,wby,m,23,r,1,(-121.76378772032348, 121.76378772032349),24,7,3,no,m,6,m,0.8757370000002993,1,86,test1,3,0.87620810000044,-50.0
7,wby,m,23,r,1,(121.76378772032349, 121.76378772032349),22,-3,11,yes,x,5,x,0.7501228999999512,1,87,test1,3,0.7502848000003723,-48.0
7,wby,m,23,r,1,(121.76378772032349, 121.76378772032349),22,-7,13,no,m,6,x,0.5754634999993868,0,88,test1,3,0.5755790000002889,-48.0
7,wby,m,23,r,1,(-3.163262682197613e-14, -172.20000000000002),27,-7,13,no,m,6,m,0.9102366999995866,1,89,test1,3,0.9105641000005562,-48.0
7,wby,m,23,r,1,(1.0544208940658713e-14, 172.20000000000002),23,-3,11,no,m,6,m,0.5652749999999287,1,90,test1,3,0.5654864000007365,-48.0
7,wby,m,23,r,1,(-121.76378772032352, -121.76378772032348),26,25,4,yes,x,5,x,0.49308900000050926,1,91,test1,3,0.4936089000002539,-20.0
7,wby,m,23,r,1,(-172.20000000000002, 2.1088417881317425e-14),25,-5,12,yes,x,5,x,0.6962456999999631,1,92,test1,3,0.6963453999997,-50.0
7,wby,m,23,r,1,(-172.20000000000002, 2.1088417881317425e-14),25,-25,14,yes,x,5,x,0.5237936000003174,1,93,test1,3,0.5239105999999083,-70.0
7,wby,m,23,r,1,(172.20000000000002, 0.0),21,-5,12,yes,x,5,m,0.616186999999627,0,94,test1,3,0.6163179000004675,-50.0
7,wby,m,23,r,1,(-3.163262682197613e-14, -172.20000000000002),27,-7,13,yes,x,5,x,0.574524399999973,1,95,test1,3,0.5746312999999645,-52.0
7,wby,m,23,r,1,(-3.163262682197613e-14, -172.20000000000002),27,5,2,no,m,6,m,0.6966594999994413,1,96,test1,3,0.6972445000001244,-52.0
7,wby,m,23,r,1,(-172.20000000000002, 2.1088417881317425e-14),25,7,3,yes,x,5,x,0.7130373999998483,1,1,test2,3,0.7136785000002419,-38.0
7,wby,m,23,r,1,(121.76378772032349, 121.76378772032349),22,3,1,yes,x,5,m,0.638181700000132,0,2,test2,3,0.6382854000003135,-42.0
7,wby,m,23,r,1,(-3.163262682197613e-14, -172.20000000000002),27,-5,12,no,m,6,m,0.6665032999999312,1,3,test2,3,0.6666586999999708,-42.0
7,wby,m,23,r,1,(-3.163262682197613e-14, -172.20000000000002),27,5,2,yes,x,5,x,0.5862499000004391,1,4,test2,3,0.5863488000004509,-40.0
7,wby,m,23,r,1,(-3.163262682197613e-14, -172.20000000000002),27,-3,11,yes,x,5,x,0.597105200000442,1,5,test2,3,0.5973520999996254,-48.0
7,wby,m,23,r,1,(172.20000000000002, 0.0),21,-3,11,yes,x,5,x,0.9068499000004522,1,6,test2,3,0.9069631999991543,-48.0
7,wby,m,23,r,1,(172.20000000000002, 0.0),21,3,1,yes,x,5,x,0.7184701999995013,1,7,test2,3,0.7187106000001222,-42.0
7,wby,m,23,r,1,(121.76378772032349, 121.76378772032349),22,7,3,yes,x,5,x,0.5518543000007412,1,8,test2,3,0.5519540000004781,-38.0
7,wby,m,23,r,1,(121.76378772032346, -121.76378772032352),28,5,2,yes,x,5,x,0.5947881000001871,1,9,test2,3,0.5949303999996118,-40.0
7,wby,m,23,r,1,(-121.76378772032348, 121.76378772032349),24,5,2,yes,x,5,m,0.6498762999999599,0,10,test2,3,0.650271999999859,-40.0
7,wby,m,23,r,1,(-121.76378772032348, 121.76378772032349),24,-3,11,yes,x,5,x,0.8651125999995202,1,11,test2,3,0.8656058999995366,-48.0
7,wby,m,23,r,1,(121.76378772032349, 121.76378772032349),22,-25,14,yes,x,5,x,0.4894131999999445,1,12,test2,3,0.4896502000001419,-70.0
7,wby,m,23,r,1,(172.20000000000002, 0.0),21,25,4,yes,x,5,x,0.47417479999967327,1,13,test2,3,0.47461790000033943,-20.0
7,wby,m,23,r,1,(-3.163262682197613e-14, -172.20000000000002),27,25,4,no,m,6,m,0.627329699999791,1,14,test2,3,0.6274874999999156,-20.0
7,wby,m,23,r,1,(121.76378772032349, 121.76378772032349),22,-3,11,yes,x,5,x,0.6189975999996022,1,15,test2,3,0.6191235999995115,-48.0
7,wby,m,23,r,1,(1.0544208940658713e-14, 172.20000000000002),23,-7,13,yes,x,5,x,0.5923930000008113,1,16,test2,3,0.5925300999997489,-52.0
7,wby,m,23,r,1,(172.20000000000002, 0.0),21,-7,13,yes,x,5,x,0.5662525999996433,1,17,test2,3,0.5669469999993453,-52.0
7,wby,m,23,r,1,(-3.163262682197613e-14, -172.20000000000002),27,3,1,yes,x,5,x,0.9358651000002283,1,18,test2,3,0.9362122000002273,-42.0
7,wby,m,23,r,1,(-121.76378772032352, -121.76378772032348),26,5,2,yes,x,5,x,0.8036357999999382,1,19,test2,3,0.8037421999997605,-40.0
7,wby,m,23,r,1,(121.76378772032349, 121.76378772032349),22,-7,13,yes,x,5,x,0.587581599999794,1,20,test2,3,0.5876856999993834,-52.0
7,wby,m,23,r,1,(1.0544208940658713e-14, 172.20000000000002),23,7,3,yes,x,5,x,0.5159749000004012,1,21,test2,3,0.5161042999998244,-38.0
7,wby,m,23,r,1,(-121.76378772032352, -121.76378772032348),26,5,2,no,m,6,m,0.7604812999998103,1,22,test2,3,0.7611048999997365,-38.0
7,wby,m,23,r,1,(-121.76378772032352, -121.76378772032348),26,-7,13,no,m,6,m,1.0505620000003546,1,23,test2,3,1.0506765000000087,-38.0
7,wby,m,23,r,1,(121.76378772032346, -121.76378772032352),28,-25,14,yes,x,5,x,0.5607637000002796,1,24,test2,3,0.560944699999709,-70.0
7,wby,m,23,r,1,(172.20000000000002, 0.0),21,3,1,yes,x,5,m,1.1538919999993595,0,25,test2,3,1.1540231999997559,-42.0
7,wby,m,23,r,1,(-3.163262682197613e-14, -172.20000000000002),27,5,2,yes,x,5,x,0.6742968999997174,1,26,test2,3,0.6744496999999683,-40.0
7,wby,m,23,r,1,(172.20000000000002, 0.0),21,5,2,yes,x,5,x,0.6655633000000307,1,27,test2,3,0.66582870000002,-40.0
7,wby,m,23,r,1,(121.76378772032346, -121.76378772032352),28,3,1,yes,x,5,x,1.2754470999998375,1,28,test2,3,1.2756989000008616,-42.0
7,wby,m,23,r,1,(-121.76378772032352, -121.76378772032348),26,-3,11,yes,x,5,m,0.7303806999998415,0,29,test2,3,0.7306568000003608,-48.0
7,wby,m,23,r,1,(121.76378772032349, 121.76378772032349),22,-25,14,no,m,6,x,1.159557400000267,0,30,test2,3,1.1598785000005591,-48.0
7,wby,m,23,r,1,(-172.20000000000002, 2.1088417881317425e-14),25,-3,11,yes,x,5,m,0.7180385999999999,0,31,test2,3,0.7183078999996724,-48.0
7,wby,m,23,r,1,(1.0544208940658713e-14, 172.20000000000002),23,25,4,no,m,6,m,0.7618920000004437,1,32,test2,3,0.7620108000000982,-48.0
7,wby,m,23,r,1,(-172.20000000000002, 2.1088417881317425e-14),25,-7,13,yes,x,5,x,0.6293941999992967,1,33,test2,3,0.6295781999997416,-52.0
7,wby,m,23,r,1,(172.20000000000002, 0.0),21,-3,11,no,m,6,m,0.579373100000339,1,34,test2,3,0.5795420999993439,-52.0
7,wby,m,23,r,1,(-121.76378772032352, -121.76378772032348),26,-3,11,yes,x,5,m,0.5832265999997617,0,35,test2,3,0.5833843999998862,-48.0
7,wby,m,23,r,1,(-121.76378772032348, 121.76378772032349),24,25,4,yes,x,5,x,0.4647835000005216,1,36,test2,3,0.46510550000039075,-20.0
7,wby,m,23,r,1,(121.76378772032349, 121.76378772032349),22,-5,12,yes,x,5,x,0.7501328999996986,1,37,test2,3,0.750525700000253,-50.0
7,wby,m,23,r,1,(-121.76378772032348, 121.76378772032349),24,25,4,yes,x,5,x,0.5237035000000105,1,38,test2,3,0.5239304999995511,-20.0
7,wby,m,23,r,1,(-121.76378772032352, -121.76378772032348),26,7,3,no,m,6,m,0.6380531000004339,1,39,test2,3,0.6382186999999249,-20.0
7,wby,m,23,r,1,(-121.76378772032352, -121.76378772032348),26,-5,12,yes,x,5,x,0.6967355999995561,1,40,test2,3,0.6968377000002874,-50.0
7,wby,m,23,r,1,(-121.76378772032348, 121.76378772032349),24,3,1,no,m,6,m,0.5899633999997604,1,41,test2,3,0.5900778999994145,-50.0
7,wby,m,23,r,1,(-3.163262682197613e-14, -172.20000000000002),27,3,1,no,m,6,m,0.5062644999998156,1,42,test2,3,0.5063636999993832,-50.0
7,wby,m,23,r,1,(121.76378772032349, 121.76378772032349),22,-25,14,yes,x,5,x,0.48556290000033187,1,43,test2,3,0.4857731000001877,-70.0
7,wby,m,23,r,1,(-121.76378772032352, -121.76378772032348),26,-7,13,yes,x,5,x,1.0935263000001214,1,44,test2,3,1.0936595000002853,-52.0
7,wby,m,23,r,1,(-121.76378772032348, 121.76378772032349),24,7,3,yes,x,5,x,1.2151258000003509,1,45,test2,3,1.2152954000002865,-38.0
7,wby,m,23,r,1,(121.76378772032346, -121.76378772032352),28,3,1,yes,x,5,m,0.7734361000002536,0,46,test2,3,0.7738069000006362,-42.0
7,wby,m,23,r,1,(-3.163262682197613e-14, -172.20000000000002),27,3,1,yes,x,5,m,0.5593900000003487,0,47,test2,3,0.5595926999994845,-42.0
7,wby,m,23,r,1,(-121.76378772032352, -121.76378772032348),26,-5,12,no,m,6,m,0.6156931999994413,1,48,test2,3,0.6158176999997522,-42.0
7,wby,m,23,r,1,(-121.76378772032352, -121.76378772032348),26,-25,14,yes,x,5,x,0.5582819999999629,1,49,test2,3,0.5585786999999982,-70.0
7,wby,m,23,r,1,(-172.20000000000002, 2.1088417881317425e-14),25,5,2,yes,x,5,x,0.6827118000001065,1,50,test2,3,0.6831473000002006,-40.0
7,wby,m,23,r,1,(-172.20000000000002, 2.1088417881317425e-14),25,-25,14,yes,x,5,x,0.5940966000007393,1,51,test2,3,0.5943182000000888,-70.0
7,wby,m,23,r,1,(1.0544208940658713e-14, 172.20000000000002),23,5,2,no,m,6,m,0.7111334000001079,1,52,test2,3,0.7112872999996398,-70.0
7,wby,m,23,r,1,(121.76378772032349, 121.76378772032349),22,-7,13,yes,x,5,m,0.705237400000442,0,53,test2,3,0.7053408000001582,-52.0
7,wby,m,23,r,1,(121.76378772032349, 121.76378772032349),22,25,4,no,m,6,m,0.9706132000001162,1,54,test2,3,0.9707355999998981,-52.0
7,wby,m,23,r,1,(121.76378772032349, 121.76378772032349),22,25,4,yes,x,5,x,0.5990186999997604,1,55,test2,3,0.5992572999994081,-20.0
7,wby,m,23,r,1,(-121.76378772032348, 121.76378772032349),24,5,2,no,m,6,m,1.330037099999572,1,56,test2,3,1.3301368000002185,-20.0
7,wby,m,23,r,1,(-121.76378772032348, 121.76378772032349),24,-7,13,no,m,6,m,0.8782138000005943,1,57,test2,3,0.8785612000001493,-20.0
7,wby,m,23,r,1,(-121.76378772032352, -121.76378772032348),26,25,4,no,m,6,m,0.5262844999997469,1,58,test2,3,0.5264140999997835,-20.0
7,wby,m,23,r,1,(-172.20000000000002, 2.1088417881317425e-14),25,7,3,yes,x,5,x,0.5954808000005869,1,59,test2,3,0.5957737999997335,-38.0
7,wby,m,23,r,1,(121.76378772032349, 121.76378772032349),22,-3,11,no,m,6,m,0.5784092999992936,1,60,test2,3,0.5787007999997513,-38.0
7,wby,m,23,r,1,(1.0544208940658713e-14, 172.20000000000002),23,-3,11,yes,x,5,m,0.7664262000007511,0,61,test2,3,0.7666520000002492,-48.0
7,wby,m,23,r,1,(172.20000000000002, 0.0),21,7,3,yes,x,5,x,0.6959415000001172,1,62,test2,3,0.6960398000001078,-38.0
7,wby,m,23,r,1,(1.0544208940658713e-14, 172.20000000000002),23,-25,14,yes,x,5,x,0.5471889999998893,1,63,test2,3,0.5474823999993532,-70.0
7,wby,m,23,r,1,(121.76378772032346, -121.76378772032352),28,-5,12,no,m,6,m,0.6170592999997098,1,64,test2,3,0.6171646000002511,-70.0
7,wby,m,23,r,1,(121.76378772032346, -121.76378772032352),28,7,3,yes,x,5,x,0.739886999999726,1,65,test2,3,0.7402209000001676,-38.0
7,wby,m,23,r,1,(172.20000000000002, 0.0),21,5,2,no,m,6,m,0.6198646999991979,1,66,test2,3,0.6200244000001476,-38.0
7,wby,m,23,r,1,(1.0544208940658713e-14, 172.20000000000002),23,5,2,yes,x,5,x,0.7147401000001992,1,67,test2,3,0.7148772000000463,-40.0
7,wby,m,23,r,1,(-3.163262682197613e-14, -172.20000000000002),27,-3,11,yes,x,5,m,0.9646115999994436,0,68,test2,3,0.9652064000001701,-48.0
7,wby,m,23,r,1,(1.0544208940658713e-14, 172.20000000000002),23,3,1,no,m,6,m,0.6117397999996683,1,69,test2,3,0.6118913999998767,-48.0
7,wby,m,23,r,1,(-121.76378772032348, 121.76378772032349),24,-5,12,no,m,6,m,0.6017258000001675,1,70,test2,3,0.6020562999992762,-48.0
7,wby,m,23,r,1,(-121.76378772032352, -121.76378772032348),26,-5,12,yes,x,5,x,0.609821799999736,1,71,test2,3,0.6099555000000692,-50.0
7,wby,m,23,r,1,(-172.20000000000002, 2.1088417881317425e-14),25,3,1,yes,x,5,x,1.5691882000000987,1,72,test2,3,1.569319600000199,-42.0
7,wby,m,23,r,1,(-172.20000000000002, 2.1088417881317425e-14),25,25,4,yes,x,5,x,0.5821263999996518,1,73,test2,3,0.5824079000003621,-20.0
7,wby,m,23,r,1,(-121.76378772032348, 121.76378772032349),24,-3,11,no,m,6,m,0.7308565000003,1,74,test2,3,0.7311223000006066,-20.0
7,wby,m,23,r,1,(172.20000000000002, 0.0),21,-25,14,yes,x,5,x,0.5544872000000396,1,75,test2,3,0.5548342000001867,-70.0
7,wby,m,23,r,1,(-121.76378772032352, -121.76378772032348),26,3,1,no,m,6,m,0.7157738999994763,1,76,test2,3,0.7161386000007042,-70.0
7,wby,m,23,r,1,(1.0544208940658713e-14, 172.20000000000002),23,-7,13,yes,x,5,x,0.531773499999872,1,77,test2,3,0.5322382999993351,-52.0
7,wby,m,23,r,1,(-121.76378772032348, 121.76378772032349),24,3,1,yes,x,5,m,0.7115383999998812,0,78,test2,3,0.7116432000002533,-42.0
7,wby,m,23,r,1,(-172.20000000000002, 2.1088417881317425e-14),25,-7,13,yes,x,5,x,0.5236893000001146,1,79,test2,3,0.5238057000005938,-52.0
7,wby,m,23,r,1,(172.20000000000002, 0.0),21,-5,12,no,m,6,m,0.8991630999998961,1,80,test2,3,0.8993007999997644,-52.0
7,wby,m,23,r,1,(172.20000000000002, 0.0),21,-25,14,no,m,6,m,0.602378000000499,1,81,test2,3,0.6025388999996721,-52.0
7,wby,m,23,r,1,(1.0544208940658713e-14, 172.20000000000002),23,-5,12,yes,x,5,x,0.7463682999996308,1,82,test2,3,0.7465486999999484,-50.0
7,wby,m,23,r,1,(-121.76378772032348, 121.76378772032349),24,-7,13,yes,x,5,x,0.5036055999999007,1,83,test2,3,0.5041212999994968,-52.0
7,wby,m,23,r,1,(-121.76378772032352, -121.76378772032348),26,3,1,yes,x,5,m,0.5655884999996488,0,84,test2,3,0.566009799999847,-42.0
7,wby,m,23,r,1,(-172.20000000000002, 2.1088417881317425e-14),25,7,3,no,m,6,m,0.5699586999999156,1,85,test2,3,0.5703395000000455,-42.0
7,wby,m,23,r,1,(121.76378772032346, -121.76378772032352),28,-25,14,no,m,6,m,0.5465045999999347,1,86,test2,3,0.5466483000000153,-42.0
7,wby,m,23,r,1,(172.20000000000002, 0.0),21,25,4,yes,x,5,x,0.5361063000000286,1,87,test2,3,0.5369861999997738,-20.0
7,wby,m,23,r,1,(-3.163262682197613e-14, -172.20000000000002),27,-25,14,yes,x,5,x,0.6131106000002546,1,88,test2,3,0.61324280000008,-70.0
7,wby,m,23,r,1,(-172.20000000000002, 2.1088417881317425e-14),25,-25,14,no,m,6,m,0.642652999999882,1,89,test2,3,0.6429647999993904,-70.0
7,wby,m,23,r,1,(1.0544208940658713e-14, 172.20000000000002),23,-5,12,yes,x,5,x,0.6059772999997222,1,90,test2,3,0.6062866000002032,-50.0
7,wby,m,23,r,1,(1.0544208940658713e-14, 172.20000000000002),23,-7,13,no,m,6,m,0.6692710999996052,1,91,test2,3,0.6697492000002967,-50.0
7,wby,m,23,r,1,(121.76378772032346, -121.76378772032352),28,-3,11,no,m,6,m,1.2252739999994446,1,92,test2,3,1.2254044000001159,-50.0
7,wby,m,23,r,1,(-3.163262682197613e-14, -172.20000000000002),27,7,3,yes,x,5,x,0.6172645999995439,1,93,test2,3,0.6175613999994312,-38.0
7,wby,m,23,r,1,(-3.163262682197613e-14, -172.20000000000002),27,-7,13,yes,x,5,x,1.3792218999997203,1,94,test2,3,1.3795891999998275,-52.0
7,wby,m,23,r,1,(1.0544208940658713e-14, 172.20000000000002),23,5,2,yes,x,5,x,0.600265699999909,1,95,test2,3,0.6003994000002422,-40.0
7,wby,m,23,r,1,(121.76378772032346, -121.76378772032352),28,-7,13,yes,x,5,x,0.6760108999997101,1,96,test2,3,0.6761248000002524,-52.0
7,wby,m,23,r,1,(172.20000000000002, 0.0),21,25,4,no,m,6,m,1.0407529000003706,1,1,test1,4,1.040886099999625,-52.0
7,wby,m,23,r,1,(121.76378772032349, 121.76378772032349),22,-5,12,no,m,6,x,1.062426399999822,0,2,test1,4,1.0627450000001772,-52.0
7,wby,m,23,r,1,(-172.20000000000002, 2.1088417881317425e-14),25,-7,13,no,m,6,m,0.6379216999994242,1,3,test1,4,0.6380806000006487,-52.0
7,wby,m,23,r,1,(121.76378772032346, -121.76378772032352),28,25,4,no,m,6,m,0.6351925999997547,1,4,test1,4,0.6352961000002324,-52.0
7,wby,m,23,r,1,(-172.20000000000002, 2.1088417881317425e-14),25,5,2,yes,x,5,m,0.5853192999993553,0,5,test1,4,0.5854132999993453,-40.0
7,wby,m,23,r,1,(1.0544208940658713e-14, 172.20000000000002),23,-25,14,no,m,6,m,0.8736536999995224,1,6,test1,4,0.8739420000001701,-40.0
7,wby,m,23,r,1,(121.76378772032346, -121.76378772032352),28,3,1,no,m,6,m,0.5275112999997873,1,7,test1,4,0.5281215000004522,-40.0
7,wby,m,23,r,1,(1.0544208940658713e-14, 172.20000000000002),23,7,3,yes,x,5,x,0.57941000000028,1,8,test1,4,0.5797358999998323,-38.0
7,wby,m,23,r,1,(-121.76378772032352, -121.76378772032348),26,25,4,yes,x,5,x,0.655689799999891,1,9,test1,4,0.6564306999998735,-20.0
7,wby,m,23,r,1,(-121.76378772032352, -121.76378772032348),26,-25,14,no,m,6,m,0.6076617999997325,1,10,test1,4,0.607846700000664,-20.0
7,wby,m,23,r,1,(-121.76378772032348, 121.76378772032349),24,-3,11,yes,x,5,m,0.5106806999992841,0,11,test1,4,0.5108953999997539,-48.0
7,wby,m,23,r,1,(121.76378772032349, 121.76378772032349),22,5,2,yes,x,5,x,0.8378765000006752,1,12,test1,4,0.8384648999999627,-40.0
7,wby,m,23,r,1,(-3.163262682197613e-14, -172.20000000000002),27,-25,14,yes,x,5,x,0.5567953999998281,1,13,test1,4,0.5569112999992285,-70.0
7,wby,m,23,r,1,(172.20000000000002, 0.0),21,-7,13,no,m,6,None,None,0,14,test1,4,1.9800859999995737,-70.0
7,wby,m,23,r,1,(-3.163262682197613e-14, -172.20000000000002),27,-3,11,no,m,6,m,0.737116999999671,1,15,test1,4,0.737344000000121,-70.0
7,wby,m,23,r,1,(-172.20000000000002, 2.1088417881317425e-14),25,3,1,yes,x,5,x,0.9657606999999189,1,16,test1,4,0.9658785000001444,-42.0
7,wby,m,23,r,1,(121.76378772032346, -121.76378772032352),28,25,4,yes,x,5,x,0.6569619000001694,1,17,test1,4,0.6575205999997706,-20.0
7,wby,m,23,r,1,(121.76378772032346, -121.76378772032352),28,7,3,yes,x,5,x,0.6101205000004484,1,18,test1,4,0.610709599999609,-38.0
7,wby,m,23,r,1,(121.76378772032349, 121.76378772032349),22,3,1,no,m,6,x,1.1673469999996087,0,19,test1,4,1.1675709000001007,-38.0
7,wby,m,23,r,1,(-121.76378772032352, -121.76378772032348),26,7,3,yes,x,5,x,0.8925079000000551,1,20,test1,4,0.8926124999998137,-38.0
7,wby,m,23,r,1,(121.76378772032349, 121.76378772032349),22,-5,12,yes,x,5,m,0.5985618999993676,0,21,test1,4,0.5989727999995011,-50.0
7,wby,m,23,r,1,(-172.20000000000002, 2.1088417881317425e-14),25,3,1,no,m,6,m,0.6760684000000765,1,22,test1,4,0.6767040000004272,-50.0
7,wby,m,23,r,1,(-121.76378772032348, 121.76378772032349),24,-7,13,yes,x,5,x,0.6425922000007631,1,23,test1,4,0.642742800000633,-52.0
7,wby,m,23,r,1,(121.76378772032346, -121.76378772032352),28,-7,13,yes,x,5,m,0.8013163000005079,0,24,test1,4,0.8014328999997815,-52.0
7,wby,m,23,r,1,(-172.20000000000002, 2.1088417881317425e-14),25,25,4,yes,x,5,x,0.5002794000001813,1,25,test1,4,0.500736699999834,-20.0
7,wby,m,23,r,1,(-172.20000000000002, 2.1088417881317425e-14),25,5,2,no,m,6,m,0.6130100000000311,1,26,test1,4,0.6132760000000417,-20.0
7,wby,m,23,r,1,(-121.76378772032352, -121.76378772032348),26,-3,11,no,m,6,m,0.6275984000003518,1,27,test1,4,0.6281434000002264,-20.0
7,wby,m,23,r,1,(1.0544208940658713e-14, 172.20000000000002),23,3,1,yes,x,5,x,0.8494358999996621,1,28,test1,4,0.8498472999999649,-42.0
7,wby,m,23,r,1,(121.76378772032346, -121.76378772032352),28,-7,13,no,m,6,m,1.0135499999996682,1,29,test1,4,1.0137141000004704,-42.0
7,wby,m,23,r,1,(121.76378772032346, -121.76378772032352),28,5,2,no,m,6,m,0.6518506000002162,1,30,test1,4,0.6519603999995525,-42.0
7,wby,m,23,r,1,(172.20000000000002, 0.0),21,-25,14,yes,x,5,x,0.6912739999997939,1,31,test1,4,0.6914963999997781,-70.0
7,wby,m,23,r,1,(-121.76378772032348, 121.76378772032349),24,25,4,no,m,6,m,0.5656894000003376,1,32,test1,4,0.5659864999997808,-70.0
7,wby,m,23,r,1,(-121.76378772032352, -121.76378772032348),26,-7,13,yes,x,5,x,0.6803233999999065,1,33,test1,4,0.6804517000000487,-52.0
7,wby,m,23,r,1,(-121.76378772032348, 121.76378772032349),24,-5,12,yes,x,5,x,0.5982275000005757,1,34,test1,4,0.5986204999999245,-50.0
7,wby,m,23,r,1,(1.0544208940658713e-14, 172.20000000000002),23,3,1,yes,x,5,m,0.7080219999998008,0,35,test1,4,0.7082263000002058,-42.0
7,wby,m,23,r,1,(-121.76378772032352, -121.76378772032348),26,7,3,yes,x,5,x,0.4545228999995743,1,36,test1,4,0.45526220000010653,-38.0
7,wby,m,23,r,1,(121.76378772032346, -121.76378772032352),28,7,3,no,m,6,x,0.42928550000033283,0,37,test1,4,0.4295259000000442,-38.0
7,wby,m,23,r,1,(-121.76378772032348, 121.76378772032349),24,-25,14,yes,x,5,x,0.3743544999997539,1,38,test1,4,0.37459190000026865,-70.0
7,wby,m,23,r,1,(121.76378772032349, 121.76378772032349),22,7,3,no,m,6,m,1.183143100000052,1,39,test1,4,1.1832454000004873,-70.0
7,wby,m,23,r,1,(121.76378772032346, -121.76378772032352),28,-3,11,yes,x,5,m,0.7398368000003757,0,40,test1,4,0.7400782000004256,-48.0
7,wby,m,23,r,1,(-3.163262682197613e-14, -172.20000000000002),27,7,3,yes,x,5,x,0.6562831999999617,1,41,test1,4,0.656485700000303,-38.0
7,wby,m,23,r,1,(-172.20000000000002, 2.1088417881317425e-14),25,-5,12,no,m,6,m,0.5843791999996029,1,42,test1,4,0.5844913000000815,-38.0
7,wby,m,23,r,1,(121.76378772032349, 121.76378772032349),22,3,1,yes,x,5,m,0.48659759999918606,0,43,test1,4,0.4867000000003827,-42.0
7,wby,m,23,r,1,(-172.20000000000002, 2.1088417881317425e-14),25,-3,11,yes,x,5,m,0.6994758999999249,0,44,test1,4,0.6995788000003813,-48.0
7,wby,m,23,r,1,(-121.76378772032348, 121.76378772032349),24,-25,14,no,m,6,m,0.9264560999999958,1,45,test1,4,0.9267645999998422,-48.0
7,wby,m,23,r,1,(172.20000000000002, 0.0),21,5,2,yes,x,5,x,0.8103504000000612,1,46,test1,4,0.8104499000000942,-40.0
7,wby,m,23,r,1,(121.76378772032346, -121.76378772032352),28,5,2,yes,x,5,x,0.6643203000003268,1,47,test1,4,0.6644534000006388,-40.0
7,wby,m,23,r,1,(1.0544208940658713e-14, 172.20000000000002),23,-25,14,yes,x,5,x,0.5149349000002985,1,48,test1,4,0.5150502999995297,-70.0
7,wby,m,23,r,1,(-121.76378772032348, 121.76378772032349),24,5,2,yes,x,5,x,0.8049931999994442,1,49,test1,4,0.8050969999994777,-40.0
7,wby,m,23,r,1,(1.0544208940658713e-14, 172.20000000000002),23,25,4,yes,x,5,x,0.5158805000000939,1,50,test1,4,0.5159950999995999,-20.0
7,wby,m,23,r,1,(-121.76378772032348, 121.76378772032349),24,3,1,yes,x,5,x,0.8456500000002052,1,51,test1,4,0.8465533999997206,-42.0
7,wby,m,23,r,1,(-121.76378772032352, -121.76378772032348),26,5,2,yes,x,5,x,0.8235242999999173,1,52,test1,4,0.8237312999999631,-40.0
7,wby,m,23,r,1,(172.20000000000002, 0.0),21,7,3,yes,x,5,x,0.704129799999464,1,53,test1,4,0.7043633000002956,-38.0
7,wby,m,23,r,1,(-121.76378772032352, -121.76378772032348),26,-25,14,yes,x,5,x,0.5215483000001768,1,54,test1,4,0.5216774000000441,-70.0
7,wby,m,23,r,1,(-3.163262682197613e-14, -172.20000000000002),27,25,4,yes,x,5,x,0.5226988000003985,1,55,test1,4,0.5230713000000833,-20.0
7,wby,m,23,r,1,(121.76378772032349, 121.76378772032349),22,7,3,yes,x,5,x,0.536582300000191,1,56,test1,4,0.5370676000002277,-38.0
7,wby,m,23,r,1,(-172.20000000000002, 2.1088417881317425e-14),25,25,4,no,m,6,m,0.8286781000006158,1,57,test1,4,0.8288689000000886,-38.0
7,wby,m,23,r,1,(121.76378772032349, 121.76378772032349),22,25,4,yes,x,5,x,0.4684486000005563,1,58,test1,4,0.46875050000016927,-20.0
7,wby,m,23,r,1,(-3.163262682197613e-14, -172.20000000000002),27,-25,14,no,m,6,m,0.8341932000002998,1,59,test1,4,0.8343269999995755,-20.0
7,wby,m,23,r,1,(172.20000000000002, 0.0),21,-5,12,yes,x,5,x,0.6505533999998079,1,60,test1,4,0.650673199999801,-50.0
7,wby,m,23,r,1,(1.0544208940658713e-14, 172.20000000000002),23,7,3,no,m,6,m,0.7258362000002307,1,61,test1,4,0.7262150000005931,-50.0
7,wby,m,23,r,1,(-121.76378772032348, 121.76378772032349),24,7,3,yes,x,5,x,0.655703800000083,1,62,test1,4,0.6558510000004389,-38.0
7,wby,m,23,r,1,(-3.163262682197613e-14, -172.20000000000002),27,25,4,yes,x,5,x,0.5389899000001606,1,63,test1,4,0.5391787999997177,-20.0
7,wby,m,23,r,1,(1.0544208940658713e-14, 172.20000000000002),23,25,4,yes,x,5,x,0.4690002999996068,1,64,test1,4,0.46923080000033224,-20.0
7,wby,m,23,r,1,(121.76378772032349, 121.76378772032349),22,5,2,no,m,6,m,0.797067600000446,1,65,test1,4,0.7972779000001537,-20.0
7,wby,m,23,r,1,(172.20000000000002, 0.0),21,3,1,no,m,6,m,0.6320642999999109,1,66,test1,4,0.6324408999998923,-20.0
7,wby,m,23,r,1,(1.0544208940658713e-14, 172.20000000000002),23,-5,12,no,m,6,m,0.5823297999995702,1,67,test1,4,0.5827698000002783,-20.0
7,wby,m,23,r,1,(121.76378772032349, 121.76378772032349),22,5,2,yes,x,5,x,0.5774585999997726,1,68,test1,4,0.5776868000002651,-40.0
7,wby,m,23,r,1,(172.20000000000002, 0.0),21,-7,13,yes,x,5,x,0.6848587000004045,1,69,test1,4,0.6849577999992107,-52.0
7,wby,m,23,r,1,(-3.163262682197613e-14, -172.20000000000002),27,-5,12,yes,x,5,x,0.6234580999998798,1,70,test1,4,0.6237535999998727,-50.0
7,wby,m,23,r,1,(172.20000000000002, 0.0),21,-3,11,yes,x,5,m,1.432090899999821,0,71,test1,4,1.4326553999999305,-48.0
7,wby,m,23,r,1,(121.76378772032346, -121.76378772032352),28,-5,12,yes,x,5,x,1.0056883000006565,1,72,test1,4,1.0057858000000124,-50.0
7,wby,m,23,r,1,(-121.76378772032352, -121.76378772032348),26,3,1,yes,x,5,m,0.6557034999996176,0,73,test1,4,0.6558014000002004,-42.0
7,wby,m,23,r,1,(121.76378772032346, -121.76378772032352),28,-5,12,yes,x,5,x,0.685716500000126,1,74,test1,4,0.686072200000126,-50.0
7,wby,m,23,r,1,(-3.163262682197613e-14, -172.20000000000002),27,-5,12,yes,x,5,x,0.6353253999996014,1,75,test1,4,0.635547900000347,-50.0
7,wby,m,23,r,1,(-121.76378772032348, 121.76378772032349),24,-25,14,yes,x,5,x,0.4216243000000759,1,76,test1,4,0.42203950000020996,-70.0
7,wby,m,23,r,1,(121.76378772032346, -121.76378772032352),28,-25,14,yes,x,5,x,0.6194237999998222,1,77,test1,4,0.6196718999999575,-70.0
7,wby,m,23,r,1,(172.20000000000002, 0.0),21,7,3,no,m,6,m,0.5997173999994629,1,78,test1,4,0.5998209999997925,-70.0
7,wby,m,23,r,1,(-3.163262682197613e-14, -172.20000000000002),27,7,3,no,m,6,m,0.7425873000001957,1,79,test1,4,0.7426889000007577,-70.0
7,wby,m,23,r,1,(121.76378772032346, -121.76378772032352),28,25,4,yes,x,5,x,0.5238823999998203,1,80,test1,4,0.5240527000005386,-20.0
7,wby,m,23,r,1,(-121.76378772032348, 121.76378772032349),24,-5,12,yes,x,5,m,0.7724647000004552,0,81,test1,4,0.7727016999997431,-50.0
7,wby,m,23,r,1,(1.0544208940658713e-14, 172.20000000000002),23,-3,11,yes,x,5,m,0.6533558999999514,0,82,test1,4,0.6536151999998765,-48.0
7,wby,m,23,r,1,(121.76378772032346, -121.76378772032352),28,-3,11,yes,x,5,x,0.7303904999998849,1,83,test1,4,0.7305372999999236,-48.0
7,wby,m,23,r,1,(-172.20000000000002, 2.1088417881317425e-14),25,-3,11,no,m,6,m,0.7078654999995706,1,84,test1,4,0.708029099999294,-48.0
7,wby,m,23,r,1,(-172.20000000000002, 2.1088417881317425e-14),25,-5,12,yes,x,5,m,0.6882575999998153,0,85,test1,4,0.6885207000004812,-50.0
7,wby,m,23,r,1,(-121.76378772032348, 121.76378772032349),24,7,3,no,m,6,m,0.661459100000684,1,86,test1,4,0.6621925999997984,-50.0
7,wby,m,23,r,1,(121.76378772032349, 121.76378772032349),22,-3,11,yes,x,5,m,0.7296723999997994,0,87,test1,4,0.7299773999993704,-48.0
7,wby,m,23,r,1,(121.76378772032349, 121.76378772032349),22,-7,13,no,m,6,m,0.71179630000006,1,88,test1,4,0.7119158000004973,-48.0
7,wby,m,23,r,1,(-3.163262682197613e-14, -172.20000000000002),27,-7,13,no,m,6,m,0.6938190999999279,1,89,test1,4,0.6943526999993992,-48.0
7,wby,m,23,r,1,(1.0544208940658713e-14, 172.20000000000002),23,-3,11,no,m,6,m,1.0156696000003649,1,90,test1,4,1.0159591000001456,-48.0
7,wby,m,23,r,1,(-121.76378772032352, -121.76378772032348),26,25,4,yes,x,5,x,0.5734688000002279,1,91,test1,4,0.5735882999997557,-20.0
7,wby,m,23,r,1,(-172.20000000000002, 2.1088417881317425e-14),25,-5,12,yes,x,5,x,0.6873408000001291,1,92,test1,4,0.6877263000005769,-50.0
7,wby,m,23,r,1,(-172.20000000000002, 2.1088417881317425e-14),25,-25,14,yes,x,5,x,0.5509475999997449,1,93,test1,4,0.5510707000003094,-70.0
7,wby,m,23,r,1,(172.20000000000002, 0.0),21,-5,12,yes,x,5,x,0.8043269999998302,1,94,test1,4,0.8050088999998479,-50.0
7,wby,m,23,r,1,(-3.163262682197613e-14, -172.20000000000002),27,-7,13,yes,x,5,x,1.0288932000003115,1,95,test1,4,1.0290475000001607,-52.0
7,wby,m,23,r,1,(-3.163262682197613e-14, -172.20000000000002),27,5,2,no,m,6,m,0.7049133000000438,1,96,test1,4,0.7050282000000152,-52.0
7,wby,m,23,r,1,(-172.20000000000002, 2.1088417881317425e-14),25,7,3,yes,x,5,x,0.5723987999999736,1,1,test2,4,0.5725074000001769,-38.0
7,wby,m,23,r,1,(121.76378772032349, 121.76378772032349),22,3,1,yes,x,5,m,0.8352819000001546,0,2,test2,4,0.8359200000004421,-42.0
7,wby,m,23,r,1,(-3.163262682197613e-14, -172.20000000000002),27,-5,12,no,m,6,m,0.7686700000003839,1,3,test2,4,0.7687705999996979,-42.0
7,wby,m,23,r,1,(-3.163262682197613e-14, -172.20000000000002),27,5,2,yes,x,5,x,0.5596939999995811,1,4,test2,4,0.5598075999996581,-40.0
7,wby,m,23,r,1,(-3.163262682197613e-14, -172.20000000000002),27,-3,11,yes,x,5,m,0.6867410000004384,0,5,test2,4,0.6869789000002129,-48.0
7,wby,m,23,r,1,(172.20000000000002, 0.0),21,-3,11,yes,x,5,m,0.7676850999996532,0,6,test2,4,0.7680690999995932,-48.0
7,wby,m,23,r,1,(172.20000000000002, 0.0),21,3,1,yes,x,5,x,0.6933224000003975,1,7,test2,4,0.6935447999994722,-42.0
7,wby,m,23,r,1,(121.76378772032349, 121.76378772032349),22,7,3,yes,x,5,x,0.6906945000000633,1,8,test2,4,0.6908144999997603,-38.0
7,wby,m,23,r,1,(121.76378772032346, -121.76378772032352),28,5,2,yes,x,5,x,0.6671158999997715,1,9,test2,4,0.6672409000002517,-40.0
7,wby,m,23,r,1,(-121.76378772032348, 121.76378772032349),24,5,2,yes,x,5,x,0.556893900000432,1,10,test2,4,0.5570356999996875,-40.0
7,wby,m,23,r,1,(-121.76378772032348, 121.76378772032349),24,-3,11,yes,x,5,x,0.6303564999998343,1,11,test2,4,0.6308048999999301,-48.0
7,wby,m,23,r,1,(121.76378772032349, 121.76378772032349),22,-25,14,yes,x,5,x,0.49951059999966674,1,12,test2,4,0.49960570000075677,-70.0
7,wby,m,23,r,1,(172.20000000000002, 0.0),21,25,4,yes,x,5,x,0.4399358000000575,1,13,test2,4,0.4400322999999844,-20.0
7,wby,m,23,r,1,(-3.163262682197613e-14, -172.20000000000002),27,25,4,no,m,6,m,0.9698084999999992,1,14,test2,4,0.9699921000001268,-20.0
7,wby,m,23,r,1,(121.76378772032349, 121.76378772032349),22,-3,11,yes,x,5,m,0.814322600000196,0,15,test2,4,0.8145693999995274,-48.0
7,wby,m,23,r,1,(1.0544208940658713e-14, 172.20000000000002),23,-7,13,yes,x,5,x,0.43763639999997395,1,16,test2,4,0.4377641000000949,-52.0
7,wby,m,23,r,1,(172.20000000000002, 0.0),21,-7,13,yes,x,5,x,0.42686290000074223,1,17,test2,4,0.42696520000026794,-52.0
7,wby,m,23,r,1,(-3.163262682197613e-14, -172.20000000000002),27,3,1,yes,x,5,x,0.5358323999998902,1,18,test2,4,0.5359649999991234,-42.0
7,wby,m,23,r,1,(-121.76378772032352, -121.76378772032348),26,5,2,yes,x,5,m,0.6204304000002594,0,19,test2,4,0.6205583000000843,-40.0
7,wby,m,23,r,1,(121.76378772032349, 121.76378772032349),22,-7,13,yes,x,5,x,0.8137421000001268,1,20,test2,4,0.8138429000000542,-52.0
7,wby,m,23,r,1,(1.0544208940658713e-14, 172.20000000000002),23,7,3,yes,x,5,x,0.48528389999955834,1,21,test2,4,0.48543939999944996,-38.0
7,wby,m,23,r,1,(-121.76378772032352, -121.76378772032348),26,5,2,no,m,6,m,0.9183880000000499,1,22,test2,4,0.9187990000000354,-38.0
7,wby,m,23,r,1,(-121.76378772032352, -121.76378772032348),26,-7,13,no,m,6,m,0.7639823999998043,1,23,test2,4,0.7646170999996684,-38.0
7,wby,m,23,r,1,(121.76378772032346, -121.76378772032352),28,-25,14,yes,x,5,x,0.5078244000005725,1,24,test2,4,0.5084191000005376,-70.0
7,wby,m,23,r,1,(172.20000000000002, 0.0),21,3,1,yes,x,5,x,1.0269275999999081,1,25,test2,4,1.027246099999502,-42.0
7,wby,m,23,r,1,(-3.163262682197613e-14, -172.20000000000002),27,5,2,yes,x,5,x,0.5787067999999636,1,26,test2,4,0.5789158999996289,-40.0
7,wby,m,23,r,1,(172.20000000000002, 0.0),21,5,2,yes,x,5,x,0.750881599999957,1,27,test2,4,0.7511420000000726,-40.0
7,wby,m,23,r,1,(121.76378772032346, -121.76378772032352),28,3,1,yes,x,5,x,0.7210490999996182,1,28,test2,4,0.7217104999999719,-42.0
7,wby,m,23,r,1,(-121.76378772032352, -121.76378772032348),26,-3,11,yes,x,5,m,0.7767314000002443,0,29,test2,4,0.776835900000151,-48.0
7,wby,m,23,r,1,(121.76378772032349, 121.76378772032349),22,-25,14,no,m,6,m,0.8075133000002097,1,30,test2,4,0.807628499999737,-48.0
7,wby,m,23,r,1,(-172.20000000000002, 2.1088417881317425e-14),25,-3,11,yes,x,5,m,0.9311267000002772,0,31,test2,4,0.9312877000002118,-48.0
7,wby,m,23,r,1,(1.0544208940658713e-14, 172.20000000000002),23,25,4,no,m,6,m,0.961343100000704,1,32,test2,4,0.9616226999996798,-48.0
7,wby,m,23,r,1,(-172.20000000000002, 2.1088417881317425e-14),25,-7,13,yes,x,5,x,0.5214998999999807,1,33,test2,4,0.5216219000003548,-52.0
7,wby,m,23,r,1,(172.20000000000002, 0.0),21,-3,11,no,m,6,m,1.3480061999998725,1,34,test2,4,1.3483095000001413,-52.0
7,wby,m,23,r,1,(-121.76378772032352, -121.76378772032348),26,-3,11,yes,x,5,m,0.8045578000001115,0,35,test2,4,0.8046910999992178,-48.0
7,wby,m,23,r,1,(-121.76378772032348, 121.76378772032349),24,25,4,yes,x,5,x,0.49577010000029986,1,36,test2,4,0.49587160000010044,-20.0
7,wby,m,23,r,1,(121.76378772032349, 121.76378772032349),22,-5,12,yes,x,5,x,0.7231518999997206,1,37,test2,4,0.72338260000015,-50.0
7,wby,m,23,r,1,(-121.76378772032348, 121.76378772032349),24,25,4,yes,x,5,x,0.5014099999998507,1,38,test2,4,0.501618000000235,-20.0
7,wby,m,23,r,1,(-121.76378772032352, -121.76378772032348),26,7,3,no,m,6,m,1.0076809000001958,1,39,test2,4,1.0078024999993431,-20.0
7,wby,m,23,r,1,(-121.76378772032352, -121.76378772032348),26,-5,12,yes,x,5,x,0.7728938000000198,1,40,test2,4,0.7730496999993193,-50.0
7,wby,m,23,r,1,(-121.76378772032348, 121.76378772032349),24,3,1,no,m,6,m,0.7366657000002306,1,41,test2,4,0.736907099999371,-50.0
7,wby,m,23,r,1,(-3.163262682197613e-14, -172.20000000000002),27,3,1,no,m,6,m,0.5430905000002895,1,42,test2,4,0.543190900000809,-50.0
7,wby,m,23,r,1,(121.76378772032349, 121.76378772032349),22,-25,14,yes,x,5,x,0.5735563999996884,1,43,test2,4,0.5741585999994641,-70.0
7,wby,m,23,r,1,(-121.76378772032352, -121.76378772032348),26,-7,13,yes,x,5,x,0.772652300000118,1,44,test2,4,0.7731800000001385,-52.0
7,wby,m,23,r,1,(-121.76378772032348, 121.76378772032349),24,7,3,yes,x,5,x,0.6066502999992736,1,45,test2,4,0.6068205000001399,-38.0
7,wby,m,23,r,1,(121.76378772032346, -121.76378772032352),28,3,1,yes,x,5,m,0.789881200000309,0,46,test2,4,0.7900332999997772,-42.0
7,wby,m,23,r,1,(-3.163262682197613e-14, -172.20000000000002),27,3,1,yes,x,5,m,0.8281757999993715,0,47,test2,4,0.8284366999996564,-42.0
7,wby,m,23,r,1,(-121.76378772032352, -121.76378772032348),26,-5,12,no,m,6,m,1.050857399999586,1,48,test2,4,1.0511186000003363,-42.0
7,wby,m,23,r,1,(-121.76378772032352, -121.76378772032348),26,-25,14,yes,x,5,x,0.3997898999996323,1,49,test2,4,0.3999068000002808,-70.0
7,wby,m,23,r,1,(-172.20000000000002, 2.1088417881317425e-14),25,5,2,yes,x,5,x,0.6256695000001855,1,50,test2,4,0.6259312000001955,-40.0
7,wby,m,23,r,1,(-172.20000000000002, 2.1088417881317425e-14),25,-25,14,yes,x,5,x,0.4580090999997992,1,51,test2,4,0.458292899999833,-70.0
7,wby,m,23,r,1,(1.0544208940658713e-14, 172.20000000000002),23,5,2,no,m,6,m,0.7229074000006221,1,52,test2,4,0.7230066000001898,-70.0
7,wby,m,23,r,1,(121.76378772032349, 121.76378772032349),22,-7,13,yes,x,5,x,0.6054246999992756,1,53,test2,4,0.6057783000005657,-52.0
7,wby,m,23,r,1,(121.76378772032349, 121.76378772032349),22,25,4,no,m,6,m,1.5861093000003166,1,54,test2,4,1.5865591000001587,-52.0
7,wby,m,23,r,1,(121.76378772032349, 121.76378772032349),22,25,4,yes,x,5,x,0.5540901999993366,1,55,test2,4,0.5541892000001098,-20.0
7,wby,m,23,r,1,(-121.76378772032348, 121.76378772032349),24,5,2,no,m,6,m,0.6597903000001679,1,56,test2,4,0.6603269999995973,-20.0
7,wby,m,23,r,1,(-121.76378772032348, 121.76378772032349),24,-7,13,no,m,6,m,0.6317748999999822,1,57,test2,4,0.6325574000002234,-20.0
7,wby,m,23,r,1,(-121.76378772032352, -121.76378772032348),26,25,4,no,m,6,m,0.5893448999995599,1,58,test2,4,0.5895883000002868,-20.0
7,wby,m,23,r,1,(-172.20000000000002, 2.1088417881317425e-14),25,7,3,yes,x,5,x,0.6475592000006145,1,59,test2,4,0.6476603999999497,-38.0
7,wby,m,23,r,1,(121.76378772032349, 121.76378772032349),22,-3,11,no,m,6,m,0.6082243999999264,1,60,test2,4,0.6086658000003808,-38.0
7,wby,m,23,r,1,(1.0544208940658713e-14, 172.20000000000002),23,-3,11,yes,x,5,m,0.7468941000006453,0,61,test2,4,0.7470094999998764,-48.0
7,wby,m,23,r,1,(172.20000000000002, 0.0),21,7,3,yes,x,5,x,0.7162595999998302,1,62,test2,4,0.7163731000000553,-38.0
7,wby,m,23,r,1,(1.0544208940658713e-14, 172.20000000000002),23,-25,14,yes,x,5,x,0.5146619000006467,1,63,test2,4,0.5147874999993292,-70.0
7,wby,m,23,r,1,(121.76378772032346, -121.76378772032352),28,-5,12,no,m,6,m,0.8546550000000934,1,64,test2,4,0.855069000000185,-70.0
