subj_id,subj_name,subj_gender ,subj_age,subj_handedness,subj_runNum,tar_l_x,tar_l_y,loc_code,tar_ori,tar_code,tar_pre ,cor_response,pre_code,subj_response,RT,correct,trial_num,type,bloc_num,dur, real_tar
7,wby,m,23,r,2,(-172.20000000000002, 2.1088417881317425e-14),25,-25,14,yes,x,5,x,0.8666297000017948,1,1,test1,1,0.866729999994277,-70.0
7,wby,m,23,r,2,(-3.163262682197613e-14, -172.20000000000002),27,-3,11,no,m,6,m,0.5801179999980377,1,2,test1,1,0.5804009999992559,-70.0
7,wby,m,23,r,2,(121.76378772032349, 121.76378772032349),22,7,3,no,m,6,m,0.5260099000006448,1,3,test1,1,0.526138200002606,-70.0
7,wby,m,23,r,2,(1.0544208940658713e-14, 172.20000000000002),23,-7,13,yes,x,5,x,0.606823499998427,1,4,test1,1,0.6072127999941586,-52.0
7,wby,m,23,r,2,(-172.20000000000002, 2.1088417881317425e-14),25,7,3,yes,x,5,m,0.6322156000096584,0,5,test1,1,0.6324282999994466,-38.0
7,wby,m,23,r,2,(172.20000000000002, 0.0),21,3,1,yes,x,5,m,0.8318776999949478,0,6,test1,1,0.8319869000115432,-42.0
7,wby,m,23,r,2,(172.20000000000002, 0.0),21,-25,14,yes,x,5,x,0.4646904999972321,1,7,test1,1,0.46482239999750163,-70.0
7,wby,m,23,r,2,(121.76378772032346, -121.76378772032352),28,7,3,yes,x,5,x,0.7352026000007754,1,8,test1,1,0.7354298999998719,-38.0
7,wby,m,23,r,2,(121.76378772032346, -121.76378772032352),28,7,3,no,m,6,m,0.6990460999950301,1,9,test1,1,0.6991474000096787,-38.0
7,wby,m,23,r,2,(121.76378772032346, -121.76378772032352),28,3,1,yes,x,5,m,0.8001581999997143,0,10,test1,1,0.8002595999860205,-42.0
7,wby,m,23,r,2,(172.20000000000002, 0.0),21,5,2,no,m,6,m,1.231809400007478,1,11,test1,1,1.232143700006418,-42.0
7,wby,m,23,r,2,(-121.76378772032348, 121.76378772032349),24,25,4,yes,x,5,x,0.5331110999977682,1,12,test1,1,0.5333170000085374,-20.0
7,wby,m,23,r,2,(1.0544208940658713e-14, 172.20000000000002),23,5,2,yes,x,5,x,0.6854967000108445,1,13,test1,1,0.6861135000071954,-40.0
7,wby,m,23,r,2,(-172.20000000000002, 2.1088417881317425e-14),25,3,1,yes,x,5,m,0.7731297999998787,0,14,test1,1,0.7732229000102961,-42.0
7,wby,m,23,r,2,(-121.76378772032348, 121.76378772032349),24,-3,11,no,m,6,m,0.9150853999890387,1,15,test1,1,0.9152007999946363,-42.0
7,wby,m,23,r,2,(-3.163262682197613e-14, -172.20000000000002),27,5,2,yes,x,5,m,0.7913021000131266,0,16,test1,1,0.7914175999903819,-40.0
7,wby,m,23,r,2,(-121.76378772032352, -121.76378772032348),26,-3,11,yes,x,5,m,0.7494027999928221,0,17,test1,1,0.7495195999945281,-48.0
7,wby,m,23,r,2,(-172.20000000000002, 2.1088417881317425e-14),25,-25,14,no,m,6,x,0.7908119000057923,0,18,test1,1,0.7910955000115791,-48.0
7,wby,m,23,r,2,(121.76378772032349, 121.76378772032349),22,-25,14,no,m,6,m,0.659640700003365,1,19,test1,1,0.6597371000098065,-48.0
7,wby,m,23,r,2,(121.76378772032346, -121.76378772032352),28,5,2,no,m,6,m,0.5974070000083884,1,20,test1,1,0.597624400004861,-48.0
7,wby,m,23,r,2,(172.20000000000002, 0.0),21,-7,13,yes,x,5,x,0.6549589000060223,1,21,test1,1,0.6553906000044663,-52.0
7,wby,m,23,r,2,(-121.76378772032348, 121.76378772032349),24,7,3,no,m,6,x,0.9173129999981029,0,22,test1,1,0.9174280000006547,-52.0
7,wby,m,23,r,2,(121.76378772032349, 121.76378772032349),22,-5,12,yes,x,5,m,0.8985435999929905,0,23,test1,1,0.8989072999975178,-50.0
7,wby,m,23,r,2,(121.76378772032346, -121.76378772032352),28,-5,12,yes,x,5,x,1.1029064000031212,1,24,test1,1,1.1031283000047551,-50.0
7,wby,m,23,r,2,(-172.20000000000002, 2.1088417881317425e-14),25,5,2,yes,x,5,x,0.6154106000030879,1,25,test1,1,0.615716699991026,-40.0
7,wby,m,23,r,2,(-121.76378772032348, 121.76378772032349),24,5,2,no,m,6,m,1.0978901000053156,1,26,test1,1,1.0979902999970363,-40.0
7,wby,m,23,r,2,(1.0544208940658713e-14, 172.20000000000002),23,-3,11,no,m,6,m,0.7615995000087423,1,27,test1,1,0.7617011000111233,-40.0
7,wby,m,23,r,2,(121.76378772032346, -121.76378772032352),28,-3,11,no,m,6,m,0.7255751000047894,1,28,test1,1,0.7258116000011796,-40.0
7,wby,m,23,r,2,(-172.20000000000002, 2.1088417881317425e-14),25,5,2,no,m,6,m,0.8363223000051221,1,29,test1,1,0.8364224999968428,-40.0
7,wby,m,23,r,2,(172.20000000000002, 0.0),21,-5,12,yes,x,5,m,0.8023778000060702,0,30,test1,1,0.8025430000125198,-50.0
7,wby,m,23,r,2,(-172.20000000000002, 2.1088417881317425e-14),25,7,3,no,m,6,m,1.2267428000050131,1,31,test1,1,1.226983200001996,-50.0
7,wby,m,23,r,2,(172.20000000000002, 0.0),21,7,3,no,m,6,m,0.8893833000038285,1,32,test1,1,0.8896387999993749,-50.0
7,wby,m,23,r,2,(121.76378772032349, 121.76378772032349),22,25,4,no,m,6,x,0.876334799992037,0,33,test1,1,0.8769527999975253,-50.0
7,wby,m,23,r,2,(-121.76378772032352, -121.76378772032348),26,25,4,yes,x,5,x,0.5924831000011181,1,34,test1,1,0.592706100011128,-20.0
7,wby,m,23,r,2,(121.76378772032349, 121.76378772032349),22,3,1,yes,x,5,m,1.1221476000064285,0,35,test1,1,1.1223059000039939,-42.0
7,wby,m,23,r,2,(-121.76378772032352, -121.76378772032348),26,-25,14,yes,x,5,x,0.5533891999948537,1,36,test1,1,0.5537840000033611,-70.0
7,wby,m,23,r,2,(-121.76378772032352, -121.76378772032348),26,7,3,yes,x,5,x,0.5689450000063516,1,37,test1,1,0.5690956999897026,-38.0
7,wby,m,23,r,2,(1.0544208940658713e-14, 172.20000000000002),23,-25,14,yes,x,5,x,0.47686009999597445,1,38,test1,1,0.4769579999992857,-70.0
7,wby,m,23,r,2,(172.20000000000002, 0.0),21,7,3,yes,x,5,x,0.5459958999999799,1,39,test1,1,0.5463004000048386,-38.0
7,wby,m,23,r,2,(-121.76378772032348, 121.76378772032349),24,7,3,yes,x,5,x,0.5322096000018064,1,40,test1,1,0.5324107000051299,-38.0
7,wby,m,23,r,2,(-121.76378772032352, -121.76378772032348),26,-5,12,yes,x,5,x,0.5728225999919232,1,41,test1,1,0.5733010999974795,-50.0
7,wby,m,23,r,2,(-172.20000000000002, 2.1088417881317425e-14),25,-5,12,yes,x,5,x,0.5575355000037234,1,42,test1,1,0.557775400011451,-50.0
7,wby,m,23,r,2,(1.0544208940658713e-14, 172.20000000000002),23,7,3,yes,x,5,x,0.47051300000748597,1,43,test1,1,0.470614799996838,-38.0
7,wby,m,23,r,2,(121.76378772032346, -121.76378772032352),28,-5,12,no,m,6,m,0.7432177000009688,1,44,test1,1,0.743318900000304,-38.0
7,wby,m,23,r,2,(121.76378772032346, -121.76378772032352),28,-25,14,no,m,6,m,0.6798724999971455,1,45,test1,1,0.6802958000043873,-38.0
7,wby,m,23,r,2,(172.20000000000002, 0.0),21,5,2,yes,x,5,x,0.6092705000046408,1,46,test1,1,0.6093863999994937,-40.0
7,wby,m,23,r,2,(121.76378772032349, 121.76378772032349),22,-3,11,yes,x,5,x,1.0722251999977743,1,47,test1,1,1.0724519999930635,-48.0
7,wby,m,23,r,2,(-3.163262682197613e-14, -172.20000000000002),27,-25,14,no,m,6,m,0.9828553999977885,1,48,test1,1,0.9834116999991238,-48.0
7,wby,m,23,r,2,(-3.163262682197613e-14, -172.20000000000002),27,-5,12,no,m,6,m,0.9291474000056041,1,49,test1,1,0.929306899997755,-48.0
7,wby,m,23,r,2,(121.76378772032346, -121.76378772032352),28,-3,11,yes,x,5,m,0.689448999997694,0,50,test1,1,0.6895458000071812,-48.0
7,wby,m,23,r,2,(-121.76378772032348, 121.76378772032349),24,-3,11,yes,x,5,x,1.2509704999974929,1,51,test1,1,1.2513977000053274,-48.0
7,wby,m,23,r,2,(121.76378772032349, 121.76378772032349),22,-3,11,yes,x,5,x,1.2532502000103705,1,52,test1,1,1.2534250000026077,-48.0
7,wby,m,23,r,2,(172.20000000000002, 0.0),21,-25,14,no,m,6,x,0.644470100000035,0,53,test1,1,0.6445657000003848,-48.0
7,wby,m,23,r,2,(172.20000000000002, 0.0),21,-7,13,yes,x,5,x,0.6046394999866607,1,54,test1,1,0.6047627000079956,-52.0
7,wby,m,23,r,2,(172.20000000000002, 0.0),21,25,4,yes,x,5,x,0.5728984000015771,1,55,test1,1,0.5733735999965575,-20.0
7,wby,m,23,r,2,(172.20000000000002, 0.0),21,7,3,yes,x,5,x,0.5364716000040062,1,56,test1,1,0.5366608000040287,-38.0
7,wby,m,23,r,2,(-121.76378772032348, 121.76378772032349),24,-25,14,no,m,6,m,1.1561561999988044,1,57,test1,1,1.1567298000009032,-38.0
7,wby,m,23,r,2,(-121.76378772032348, 121.76378772032349),24,5,2,yes,x,5,x,0.758428000001004,1,58,test1,1,0.758740699995542,-40.0
7,wby,m,23,r,2,(121.76378772032349, 121.76378772032349),22,5,2,yes,x,5,x,1.150626500006183,1,59,test1,1,1.1508552999875974,-40.0
7,wby,m,23,r,2,(121.76378772032346, -121.76378772032352),28,5,2,yes,x,5,x,1.2835906999971485,1,60,test1,1,1.2836893999919994,-40.0
7,wby,m,23,r,2,(-121.76378772032352, -121.76378772032348),26,3,1,yes,x,5,m,1.090182800006005,0,61,test1,1,1.0904453999974066,-42.0
7,wby,m,23,r,2,(121.76378772032346, -121.76378772032352),28,3,1,yes,x,5,x,1.4109493999858387,1,62,test1,1,1.4111727999988943,-42.0
7,wby,m,23,r,2,(-3.163262682197613e-14, -172.20000000000002),27,3,1,yes,x,5,m,0.9767392000067048,0,63,test1,1,0.9771939999918686,-42.0
7,wby,m,23,r,2,(-121.76378772032352, -121.76378772032348),26,-7,13,yes,x,5,x,0.5674060000019381,1,64,test1,1,0.567638699998497,-52.0
7,wby,m,23,r,2,(-172.20000000000002, 2.1088417881317425e-14),25,3,1,no,m,6,m,1.316406600002665,1,65,test1,1,1.3165171000000555,-52.0
7,wby,m,23,r,2,(172.20000000000002, 0.0),21,-5,12,no,m,6,m,0.897298600000795,1,66,test1,1,0.8978568999882555,-52.0
7,wby,m,23,r,2,(-172.20000000000002, 2.1088417881317425e-14),25,-5,12,no,m,6,m,0.911779200003366,1,67,test1,1,0.911999999996624,-52.0
7,wby,m,23,r,2,(1.0544208940658713e-14, 172.20000000000002),23,7,3,no,m,6,x,0.9942700999963563,0,68,test1,1,0.9945351000060327,-52.0
7,wby,m,23,r,2,(-121.76378772032352, -121.76378772032348),26,-7,13,no,m,6,m,0.7450053000065964,1,69,test1,1,0.7453283999930136,-52.0
7,wby,m,23,r,2,(1.0544208940658713e-14, 172.20000000000002),23,-5,12,no,m,6,m,0.567251500004204,1,70,test1,1,0.5673538999981247,-52.0
7,wby,m,23,r,2,(-121.76378772032348, 121.76378772032349),24,25,4,no,m,6,m,1.0280930000008084,1,71,test1,1,1.0282210999866948,-52.0
7,wby,m,23,r,2,(172.20000000000002, 0.0),21,3,1,no,m,6,m,0.4999744000087958,1,72,test1,1,0.5002242000045953,-52.0
7,wby,m,23,r,2,(172.20000000000002, 0.0),21,-25,14,yes,x,5,x,0.4945492999977432,1,73,test1,1,0.49496799999906216,-70.0
7,wby,m,23,r,2,(-172.20000000000002, 2.1088417881317425e-14),25,-3,11,yes,x,5,m,0.5125475999957416,0,74,test1,1,0.5126944999938132,-48.0
7,wby,m,23,r,2,(-121.76378772032352, -121.76378772032348),26,3,1,no,m,6,m,1.0085805999988224,1,75,test1,1,1.008820699993521,-48.0
7,wby,m,23,r,2,(1.0544208940658713e-14, 172.20000000000002),23,-25,14,yes,x,5,x,0.5124451000010595,1,76,test1,1,0.5125752000021748,-70.0
7,wby,m,23,r,2,(1.0544208940658713e-14, 172.20000000000002),23,-25,14,no,m,6,m,0.6383319000015035,1,77,test1,1,0.6390110999927856,-70.0
7,wby,m,23,r,2,(-172.20000000000002, 2.1088417881317425e-14),25,5,2,yes,x,5,x,0.7381404000043403,1,78,test1,1,0.7382677999994485,-40.0
7,wby,m,23,r,2,(-121.76378772032348, 121.76378772032349),24,-3,11,yes,x,5,m,0.6912549999979092,0,79,test1,1,0.6914914999942994,-48.0
7,wby,m,23,r,2,(1.0544208940658713e-14, 172.20000000000002),23,-5,12,yes,x,5,x,0.6235215999913635,1,80,test1,1,0.623785300005693,-50.0
7,wby,m,23,r,2,(-121.76378772032348, 121.76378772032349),24,-7,13,no,m,6,m,0.7337187999946764,1,81,test1,1,0.7340951999940444,-50.0
7,wby,m,23,r,2,(121.76378772032346, -121.76378772032352),28,3,1,no,m,6,m,0.8888482000038493,1,82,test1,1,0.8889801999903284,-50.0
7,wby,m,23,r,2,(-121.76378772032352, -121.76378772032348),26,7,3,no,m,6,m,0.6326217000023462,1,83,test1,1,0.632723899994744,-50.0
7,wby,m,23,r,2,(-121.76378772032352, -121.76378772032348),26,-5,12,yes,x,5,x,0.7237367999914568,1,84,test1,1,0.7238490000017919,-50.0
7,wby,m,23,r,2,(121.76378772032346, -121.76378772032352),28,25,4,yes,x,5,x,0.5259124000003794,1,85,test1,1,0.5261631999892415,-20.0
7,wby,m,23,r,2,(121.76378772032349, 121.76378772032349),22,3,1,no,m,6,m,0.7009799000079511,1,86,test1,1,0.7010742999991635,-20.0
7,wby,m,23,r,2,(1.0544208940658713e-14, 172.20000000000002),23,25,4,no,m,6,m,0.5626730999938445,1,87,test1,1,0.562850599992089,-20.0
7,wby,m,23,r,2,(121.76378772032349, 121.76378772032349),22,-5,12,yes,x,5,x,0.8663630000082776,1,88,test1,1,0.866516900001443,-50.0
7,wby,m,23,r,2,(121.76378772032346, -121.76378772032352),28,-3,11,yes,x,5,m,0.6029049000062514,0,89,test1,1,0.6031030000012834,-48.0
7,wby,m,23,r,2,(-121.76378772032348, 121.76378772032349),24,25,4,yes,x,5,x,0.5339412000030279,1,90,test1,1,0.534181199996965,-20.0
7,wby,m,23,r,2,(-3.163262682197613e-14, -172.20000000000002),27,-7,13,yes,x,5,x,0.6567648999916855,1,91,test1,1,0.6569815999973798,-52.0
7,wby,m,23,r,2,(-3.163262682197613e-14, -172.20000000000002),27,7,3,yes,x,5,x,0.5969677999964915,1,92,test1,1,0.5972786999918753,-38.0
7,wby,m,23,r,2,(-121.76378772032348, 121.76378772032349),24,3,1,yes,x,5,m,0.7070120999997016,0,93,test1,1,0.707461300000432,-42.0
7,wby,m,23,r,2,(121.76378772032346, -121.76378772032352),28,-7,13,no,m,6,m,0.6781381000037072,1,94,test1,1,0.6782385999977123,-42.0
7,wby,m,23,r,2,(121.76378772032349, 121.76378772032349),22,25,4,yes,x,5,x,0.48477480000292417,1,95,test1,1,0.4851386999944225,-20.0
7,wby,m,23,r,2,(-121.76378772032348, 121.76378772032349),24,-7,13,yes,x,5,x,0.683198500002618,1,96,test1,1,0.683341299998574,-52.0
7,wby,m,23,r,2,(121.76378772032349, 121.76378772032349),22,5,2,no,m,6,m,0.7333650000073249,1,1,test2,1,0.7338042000046698,-52.0
7,wby,m,23,r,2,(121.76378772032349, 121.76378772032349),22,-7,13,yes,x,5,x,0.5927904999989551,1,2,test2,1,0.5928914999967674,-52.0
7,wby,m,23,r,2,(172.20000000000002, 0.0),21,-3,11,yes,x,5,x,0.7082200000004377,1,3,test2,1,0.7084371999953873,-48.0
7,wby,m,23,r,2,(-121.76378772032352, -121.76378772032348),26,5,2,yes,x,5,x,1.08986370000639,1,4,test2,1,1.0903066999890143,-40.0
7,wby,m,23,r,2,(-121.76378772032348, 121.76378772032349),24,-7,13,yes,x,5,x,0.6059631999960402,1,5,test2,1,0.6066456999978982,-52.0
7,wby,m,23,r,2,(121.76378772032349, 121.76378772032349),22,-25,14,yes,x,5,x,0.4838047000084771,1,6,test2,1,0.4839211000071373,-70.0
7,wby,m,23,r,2,(121.76378772032349, 121.76378772032349),22,-5,12,no,m,6,m,0.9812868000008166,1,7,test2,1,0.9815293999999994,-70.0
7,wby,m,23,r,2,(121.76378772032349, 121.76378772032349),22,5,2,yes,x,5,x,0.8073250000015832,1,8,test2,1,0.8074675999960164,-40.0
7,wby,m,23,r,2,(121.76378772032349, 121.76378772032349),22,-7,13,yes,x,5,x,0.6651562000042759,1,9,test2,1,0.6654463000013493,-52.0
7,wby,m,23,r,2,(121.76378772032346, -121.76378772032352),28,-7,13,yes,x,5,x,0.9626792000053683,1,10,test2,1,0.9627817000000505,-52.0
7,wby,m,23,r,2,(-121.76378772032352, -121.76378772032348),26,3,1,yes,x,5,x,0.7094486999994842,1,11,test2,1,0.7095498999988195,-42.0
7,wby,m,23,r,2,(-121.76378772032352, -121.76378772032348),26,5,2,yes,x,5,x,0.7677690999989863,1,12,test2,1,0.7678857999999309,-40.0
7,wby,m,23,r,2,(172.20000000000002, 0.0),21,3,1,yes,x,5,m,1.1569837999995798,0,13,test2,1,1.157152399988263,-42.0
7,wby,m,23,r,2,(-121.76378772032348, 121.76378772032349),24,7,3,yes,x,5,x,0.5410564999911003,1,14,test2,1,0.541339200004586,-38.0
7,wby,m,23,r,2,(-121.76378772032348, 121.76378772032349),24,-5,12,yes,x,5,x,0.6151791000011144,1,15,test2,1,0.6153280999860726,-50.0
7,wby,m,23,r,2,(1.0544208940658713e-14, 172.20000000000002),23,-3,11,yes,x,5,m,1.0378343999909703,0,16,test2,1,1.037963899987517,-48.0
7,wby,m,23,r,2,(-3.163262682197613e-14, -172.20000000000002),27,-5,12,yes,x,5,x,0.5822563999972772,1,17,test2,1,0.5824166999955196,-50.0
7,wby,m,23,r,2,(-3.163262682197613e-14, -172.20000000000002),27,-3,11,yes,x,5,m,0.7202889000036521,0,18,test2,1,0.7206875999982003,-48.0
7,wby,m,23,r,2,(121.76378772032346, -121.76378772032352),28,-25,14,yes,x,5,x,0.5508263999945484,1,19,test2,1,0.5509274999931222,-70.0
7,wby,m,23,r,2,(1.0544208940658713e-14, 172.20000000000002),23,-7,13,no,m,6,m,1.0860313000011956,1,20,test2,1,1.0861806999891996,-70.0
7,wby,m,23,r,2,(-3.163262682197613e-14, -172.20000000000002),27,25,4,yes,x,5,x,0.5328873000107706,1,21,test2,1,0.5332500000076834,-20.0
7,wby,m,23,r,2,(-121.76378772032352, -121.76378772032348),26,25,4,no,m,6,m,0.6625511000020197,1,22,test2,1,0.6626523000013549,-20.0
7,wby,m,23,r,2,(-3.163262682197613e-14, -172.20000000000002),27,3,1,yes,x,5,x,0.7459589999925811,1,23,test2,1,0.7463769000023603,-42.0
7,wby,m,23,r,2,(-3.163262682197613e-14, -172.20000000000002),27,-7,13,no,m,6,m,0.8312635000038426,1,24,test2,1,0.8313887999975123,-42.0
7,wby,m,23,r,2,(1.0544208940658713e-14, 172.20000000000002),23,3,1,no,m,6,m,0.7046567999932449,1,25,test2,1,0.7047564999957103,-42.0
7,wby,m,23,r,2,(-121.76378772032352, -121.76378772032348),26,5,2,no,m,6,m,0.7343604999914533,1,26,test2,1,0.7345229999918956,-42.0
7,wby,m,23,r,2,(172.20000000000002, 0.0),21,25,4,yes,x,5,x,0.49119319999590516,1,27,test2,1,0.4914166000089608,-20.0
7,wby,m,23,r,2,(-172.20000000000002, 2.1088417881317425e-14),25,-3,11,no,m,6,m,0.9461708000017097,1,28,test2,1,0.9467947999946773,-20.0
7,wby,m,23,r,2,(-121.76378772032348, 121.76378772032349),24,5,2,yes,x,5,x,1.0239855999971041,1,29,test2,1,1.0241105000022799,-40.0
7,wby,m,23,r,2,(121.76378772032346, -121.76378772032352),28,-5,12,yes,x,5,x,0.7109822999918833,1,30,test2,1,0.711105199996382,-50.0
7,wby,m,23,r,2,(121.76378772032346, -121.76378772032352),28,25,4,yes,x,5,x,0.5477336999902036,1,31,test2,1,0.5478476999996928,-20.0
7,wby,m,23,r,2,(121.76378772032349, 121.76378772032349),22,25,4,yes,x,5,x,0.7378361000010045,1,32,test2,1,0.7382047999999486,-20.0
7,wby,m,23,r,2,(1.0544208940658713e-14, 172.20000000000002),23,5,2,yes,x,5,x,0.7688880000059726,1,33,test2,1,0.7690599999914411,-40.0
7,wby,m,23,r,2,(121.76378772032349, 121.76378772032349),22,7,3,yes,x,5,x,0.5494665000005625,1,34,test2,1,0.5495948999887332,-38.0
7,wby,m,23,r,2,(-121.76378772032352, -121.76378772032348),26,7,3,yes,x,5,x,0.9903574000054505,1,35,test2,1,0.9906802000041353,-38.0
7,wby,m,23,r,2,(172.20000000000002, 0.0),21,5,2,yes,x,5,x,1.0998065999883693,1,36,test2,1,1.1000781999900937,-40.0
7,wby,m,23,r,2,(-172.20000000000002, 2.1088417881317425e-14),25,-5,12,yes,x,5,x,0.7063450999994529,1,37,test2,1,0.7065012999955798,-50.0
7,wby,m,23,r,2,(121.76378772032349, 121.76378772032349),22,-25,14,yes,x,5,x,0.505764800007455,1,38,test2,1,0.5063018000073498,-70.0
7,wby,m,23,r,2,(1.0544208940658713e-14, 172.20000000000002),23,3,1,yes,x,5,m,1.2716090999892913,0,39,test2,1,1.2719440999935614,-42.0
7,wby,m,23,r,2,(-121.76378772032352, -121.76378772032348),26,-5,12,no,m,6,m,0.9267063000006601,1,40,test2,1,0.9268196999910288,-42.0
7,wby,m,23,r,2,(1.0544208940658713e-14, 172.20000000000002),23,-3,11,yes,x,5,x,1.043196300001,1,41,test2,1,1.0434338999912143,-48.0
7,wby,m,23,r,2,(-172.20000000000002, 2.1088417881317425e-14),25,7,3,yes,x,5,x,0.7994550000003073,1,42,test2,1,0.7997390999953495,-38.0
7,wby,m,23,r,2,(172.20000000000002, 0.0),21,-5,12,yes,x,5,x,0.591487199999392,1,43,test2,1,0.5917181000113487,-50.0
7,wby,m,23,r,2,(172.20000000000002, 0.0),21,-7,13,no,m,6,x,1.2489112999901408,0,44,test2,1,1.2498371999972733,-50.0
7,wby,m,23,r,2,(-121.76378772032352, -121.76378772032348),26,25,4,yes,x,5,x,0.5058199999912176,1,45,test2,1,0.5060524000000441,-20.0
7,wby,m,23,r,2,(1.0544208940658713e-14, 172.20000000000002),23,7,3,yes,x,5,x,0.690187899992452,1,46,test2,1,0.6907375000009779,-38.0
7,wby,m,23,r,2,(121.76378772032346, -121.76378772032352),28,25,4,no,m,6,m,0.8078055000078166,1,47,test2,1,0.8081133999949088,-38.0
7,wby,m,23,r,2,(-121.76378772032348, 121.76378772032349),24,3,1,yes,x,5,x,0.8938984999986133,1,48,test2,1,0.8941316999989795,-42.0
7,wby,m,23,r,2,(-172.20000000000002, 2.1088417881317425e-14),25,-3,11,yes,x,5,x,0.9847590999997919,1,49,test2,1,0.9852017999946838,-48.0
7,wby,m,23,r,2,(-121.76378772032352, -121.76378772032348),26,-25,14,yes,x,5,x,0.709594100000686,1,50,test2,1,0.7097523999982513,-70.0
7,wby,m,23,r,2,(-121.76378772032352, -121.76378772032348),26,-25,14,no,m,6,m,1.0607013999979245,1,51,test2,1,1.0610827999917092,-70.0
7,wby,m,23,r,2,(1.0544208940658713e-14, 172.20000000000002),23,-7,13,yes,x,5,x,0.699127599989879,1,52,test2,1,0.69922919999226,-52.0
7,wby,m,23,r,2,(-3.163262682197613e-14, -172.20000000000002),27,7,3,yes,x,5,x,0.49077000000397675,1,53,test2,1,0.490870099994936,-38.0
7,wby,m,23,r,2,(-172.20000000000002, 2.1088417881317425e-14),25,25,4,yes,x,5,x,0.5288247999997111,1,54,test2,1,0.5289214000076754,-20.0
7,wby,m,23,r,2,(-172.20000000000002, 2.1088417881317425e-14),25,-7,13,yes,x,5,x,0.6085729000042193,1,55,test2,1,0.6086904999974649,-52.0
7,wby,m,23,r,2,(121.76378772032349, 121.76378772032349),22,-3,11,no,m,6,m,1.0044548000005307,1,56,test2,1,1.0046158000041032,-52.0
7,wby,m,23,r,2,(-3.163262682197613e-14, -172.20000000000002),27,-7,13,yes,x,5,x,0.5440342000074452,1,57,test2,1,0.5442317999986699,-52.0
7,wby,m,23,r,2,(-121.76378772032348, 121.76378772032349),24,-25,14,yes,x,5,x,0.4736738000065088,1,58,test2,1,0.47403130000748206,-70.0
7,wby,m,23,r,2,(-172.20000000000002, 2.1088417881317425e-14),25,25,4,no,m,6,m,0.5981871999974828,1,59,test2,1,0.5985573000070872,-70.0
7,wby,m,23,r,2,(121.76378772032346, -121.76378772032352),28,5,2,yes,x,5,m,0.7997899999900255,0,60,test2,1,0.7998908000008669,-40.0
7,wby,m,23,r,2,(1.0544208940658713e-14, 172.20000000000002),23,3,1,yes,x,5,x,1.1802338999987114,1,61,test2,1,1.1804705999966245,-42.0
7,wby,m,23,r,2,(-121.76378772032352, -121.76378772032348),26,-7,13,yes,x,5,x,0.8395399000000907,1,62,test2,1,0.8397255000018049,-52.0
7,wby,m,23,r,2,(121.76378772032346, -121.76378772032352),28,7,3,yes,x,5,x,0.6222225999954389,1,63,test2,1,0.6224309999961406,-38.0
7,wby,m,23,r,2,(-121.76378772032348, 121.76378772032349),24,-5,12,yes,x,5,x,0.5505551999958698,1,64,test2,1,0.5506754000089131,-50.0
7,wby,m,23,r,2,(1.0544208940658713e-14, 172.20000000000002),23,5,2,no,m,6,m,0.67992329999106,1,65,test2,1,0.6801475999964168,-50.0
7,wby,m,23,r,2,(1.0544208940658713e-14, 172.20000000000002),23,25,4,yes,x,5,x,0.5469817999983206,1,66,test2,1,0.5471875999937765,-20.0
7,wby,m,23,r,2,(-3.163262682197613e-14, -172.20000000000002),27,3,1,no,m,6,m,0.6750521000067238,1,67,test2,1,0.675167399997008,-20.0
7,wby,m,23,r,2,(-3.163262682197613e-14, -172.20000000000002),27,7,3,no,m,6,m,0.7216341999883298,1,68,test2,1,0.7217360999929952,-20.0
7,wby,m,23,r,2,(-121.76378772032348, 121.76378772032349),24,3,1,no,m,6,m,0.6655170000012731,1,69,test2,1,0.6658158999925945,-20.0
7,wby,m,23,r,2,(121.76378772032346, -121.76378772032352),28,-25,14,yes,x,5,x,0.5512504000071203,1,70,test2,1,0.5514060999994399,-70.0
7,wby,m,23,r,2,(-3.163262682197613e-14, -172.20000000000002),27,-25,14,yes,x,5,x,0.5081632999936119,1,71,test2,1,0.50826689999667,-70.0
7,wby,m,23,r,2,(-172.20000000000002, 2.1088417881317425e-14),25,-7,13,no,m,6,x,1.0585246999980882,0,72,test2,1,1.0586268000042764,-70.0
7,wby,m,23,r,2,(-3.163262682197613e-14, -172.20000000000002),27,5,2,yes,x,5,x,1.102691899999627,1,73,test2,1,1.10302560000855,-40.0
7,wby,m,23,r,2,(121.76378772032349, 121.76378772032349),22,7,3,yes,x,5,x,0.9930864000052679,1,74,test2,1,0.9934600999986287,-38.0
7,wby,m,23,r,2,(121.76378772032346, -121.76378772032352),28,-7,13,yes,x,5,x,1.0434050999901956,1,75,test2,1,1.0438893999962602,-52.0
7,wby,m,23,r,2,(1.0544208940658713e-14, 172.20000000000002),23,-5,12,yes,x,5,x,0.5219204000022728,1,76,test2,1,0.5220187999948394,-50.0
7,wby,m,23,r,2,(-3.163262682197613e-14, -172.20000000000002),27,-25,14,yes,x,5,x,0.5162780000100611,1,77,test2,1,0.5163757999980589,-70.0
7,wby,m,23,r,2,(1.0544208940658713e-14, 172.20000000000002),23,25,4,yes,x,5,x,0.3784765000018524,1,78,test2,1,0.37878359999740496,-20.0
7,wby,m,23,r,2,(-121.76378772032352, -121.76378772032348),26,-3,11,yes,x,5,m,0.5984806000051321,0,79,test2,1,0.5987219999951776,-48.0
7,wby,m,23,r,2,(-172.20000000000002, 2.1088417881317425e-14),25,25,4,yes,x,5,x,0.4986235999967903,1,80,test2,1,0.4988588000123855,-20.0
7,wby,m,23,r,2,(-121.76378772032352, -121.76378772032348),26,-3,11,no,m,6,m,0.6307105000014417,1,81,test2,1,0.6310458999942057,-20.0
7,wby,m,23,r,2,(-3.163262682197613e-14, -172.20000000000002),27,-5,12,yes,x,5,m,1.1838047000055667,0,82,test2,1,1.1841737999930046,-50.0
7,wby,m,23,r,2,(-3.163262682197613e-14, -172.20000000000002),27,5,2,no,m,6,m,0.8604255999962334,1,83,test2,1,0.8606990999978734,-50.0
7,wby,m,23,r,2,(-172.20000000000002, 2.1088417881317425e-14),25,-7,13,yes,x,5,x,0.7173720000137109,1,84,test2,1,0.7174729999969713,-52.0
7,wby,m,23,r,2,(172.20000000000002, 0.0),21,-3,11,no,m,6,m,1.377648900001077,1,85,test2,1,1.3777952999953413,-52.0
7,wby,m,23,r,2,(-3.163262682197613e-14, -172.20000000000002),27,25,4,no,m,6,m,0.5724616999941645,1,86,test2,1,0.5727182999980869,-52.0
7,wby,m,23,r,2,(-3.163262682197613e-14, -172.20000000000002),27,-3,11,yes,x,5,m,0.5977590999973472,0,87,test2,1,0.5979782000067644,-48.0
7,wby,m,23,r,2,(-172.20000000000002, 2.1088417881317425e-14),25,3,1,yes,x,5,m,0.6889437999925576,0,88,test2,1,0.689153700004681,-42.0
7,wby,m,23,r,2,(-121.76378772032348, 121.76378772032349),24,-25,14,yes,x,5,x,0.42578609999327455,1,89,test2,1,0.4258834999927785,-70.0
7,wby,m,23,r,2,(121.76378772032349, 121.76378772032349),22,3,1,yes,x,5,x,0.31562530000519473,1,90,test2,1,0.3160333000123501,-42.0
7,wby,m,23,r,2,(121.76378772032349, 121.76378772032349),22,-7,13,no,m,6,x,0.3252402000071015,0,91,test2,1,0.32540319999679923,-42.0
7,wby,m,23,r,2,(172.20000000000002, 0.0),21,-3,11,yes,x,5,m,0.7091562999994494,0,92,test2,1,0.7093625999987125,-48.0
7,wby,m,23,r,2,(-3.163262682197613e-14, -172.20000000000002),27,25,4,yes,x,5,x,0.47906009999860544,1,93,test2,1,0.4791934999957448,-20.0
7,wby,m,23,r,2,(-121.76378772032348, 121.76378772032349),24,-5,12,no,m,6,x,0.3695612000010442,0,94,test2,1,0.369682799995644,-20.0
7,wby,m,23,r,2,(-172.20000000000002, 2.1088417881317425e-14),25,-25,14,yes,x,5,x,0.6144873999874108,1,95,test2,1,0.614776400005212,-70.0
7,wby,m,23,r,2,(172.20000000000002, 0.0),21,25,4,no,m,6,m,0.8251082000060705,1,96,test2,1,0.825322500008042,-70.0
7,wby,m,23,r,2,(-172.20000000000002, 2.1088417881317425e-14),25,-25,14,yes,x,5,x,0.671010899997782,1,1,test1,2,0.6712110999942524,-70.0
7,wby,m,23,r,2,(-3.163262682197613e-14, -172.20000000000002),27,-3,11,no,m,6,m,1.016325800010236,1,2,test1,2,1.016421199994511,-70.0
7,wby,m,23,r,2,(121.76378772032349, 121.76378772032349),22,7,3,no,m,6,m,0.6880024999991292,1,3,test1,2,0.6882986999989953,-70.0
7,wby,m,23,r,2,(1.0544208940658713e-14, 172.20000000000002),23,-7,13,yes,x,5,x,0.5626315999979852,1,4,test1,2,0.562868900000467,-52.0
7,wby,m,23,r,2,(-172.20000000000002, 2.1088417881317425e-14),25,7,3,yes,x,5,x,0.5913117000018246,1,5,test1,2,0.5914144999987911,-38.0
7,wby,m,23,r,2,(172.20000000000002, 0.0),21,3,1,yes,x,5,m,0.6535529999964638,0,6,test1,2,0.6537000000098487,-42.0
7,wby,m,23,r,2,(172.20000000000002, 0.0),21,-25,14,yes,x,5,x,0.6634462000074564,1,7,test1,2,0.6639600999915274,-70.0
7,wby,m,23,r,2,(121.76378772032346, -121.76378772032352),28,7,3,yes,x,5,x,0.4123308999987785,1,8,test1,2,0.41245689999777824,-38.0
7,wby,m,23,r,2,(121.76378772032346, -121.76378772032352),28,7,3,no,m,6,x,0.3815636000072118,0,9,test1,2,0.38169769999512937,-38.0
7,wby,m,23,r,2,(121.76378772032346, -121.76378772032352),28,3,1,yes,x,5,m,0.42748329999449197,0,10,test1,2,0.42764969999552704,-42.0
7,wby,m,23,r,2,(172.20000000000002, 0.0),21,5,2,no,m,6,x,0.4175348000135273,0,11,test1,2,0.41785909999452997,-42.0
7,wby,m,23,r,2,(-121.76378772032348, 121.76378772032349),24,25,4,yes,x,5,x,0.5725400000083027,1,12,test1,2,0.5726348999887705,-20.0
7,wby,m,23,r,2,(1.0544208940658713e-14, 172.20000000000002),23,5,2,yes,x,5,x,0.8189780999964569,1,13,test1,2,0.819109699994442,-40.0
7,wby,m,23,r,2,(-172.20000000000002, 2.1088417881317425e-14),25,3,1,yes,x,5,m,0.9869185999996262,0,14,test1,2,0.987080099992454,-42.0
7,wby,m,23,r,2,(-121.76378772032348, 121.76378772032349),24,-3,11,no,m,6,x,0.3311314000020502,0,15,test1,2,0.3312876999989385,-42.0
7,wby,m,23,r,2,(-3.163262682197613e-14, -172.20000000000002),27,5,2,yes,x,5,x,0.5448746000038227,1,16,test1,2,0.5451433999987785,-40.0
7,wby,m,23,r,2,(-121.76378772032352, -121.76378772032348),26,-3,11,yes,x,5,x,0.38350480000372045,1,17,test1,2,0.3840243000013288,-48.0
7,wby,m,23,r,2,(-172.20000000000002, 2.1088417881317425e-14),25,-25,14,no,m,6,m,0.5298495000024559,1,18,test1,2,0.5301593000040157,-48.0
7,wby,m,23,r,2,(121.76378772032349, 121.76378772032349),22,-25,14,no,m,6,x,0.3253220000042347,0,19,test1,2,0.3255600999982562,-48.0
7,wby,m,23,r,2,(121.76378772032346, -121.76378772032352),28,5,2,no,m,6,x,0.36081019999983255,0,20,test1,2,0.36093670000263955,-48.0
7,wby,m,23,r,2,(172.20000000000002, 0.0),21,-7,13,yes,x,5,m,0.5376566000049934,0,21,test1,2,0.5378382000053534,-52.0
7,wby,m,23,r,2,(-121.76378772032348, 121.76378772032349),24,7,3,no,m,6,x,0.5914183999993838,0,22,test1,2,0.591628900001524,-52.0
7,wby,m,23,r,2,(121.76378772032349, 121.76378772032349),22,-5,12,yes,x,5,m,0.5831294000090566,0,23,test1,2,0.5837476000015158,-50.0
7,wby,m,23,r,2,(121.76378772032346, -121.76378772032352),28,-5,12,yes,x,5,x,1.2571046000084607,1,24,test1,2,1.2572052999894368,-50.0
7,wby,m,23,r,2,(-172.20000000000002, 2.1088417881317425e-14),25,5,2,yes,x,5,x,1.0467349999962607,1,25,test1,2,1.0470804999931715,-40.0
7,wby,m,23,r,2,(-121.76378772032348, 121.76378772032349),24,5,2,no,m,6,m,0.7362887000053888,1,26,test1,2,0.7368052000092575,-40.0
7,wby,m,23,r,2,(1.0544208940658713e-14, 172.20000000000002),23,-3,11,no,m,6,x,0.3787409999931697,0,27,test1,2,0.3790554000006523,-40.0
7,wby,m,23,r,2,(121.76378772032346, -121.76378772032352),28,-3,11,no,m,6,m,1.1643729000061285,1,28,test1,2,1.1645343999989564,-40.0
7,wby,m,23,r,2,(-172.20000000000002, 2.1088417881317425e-14),25,5,2,no,m,6,x,0.07145350000064354,0,29,test1,2,0.0716476999950828,-40.0
7,wby,m,23,r,2,(172.20000000000002, 0.0),21,-5,12,yes,x,5,x,0.7138310000009369,1,30,test1,2,0.7139298000111012,-50.0
7,wby,m,23,r,2,(-172.20000000000002, 2.1088417881317425e-14),25,7,3,no,m,6,x,0.46891840000171214,0,31,test1,2,0.4692314999992959,-50.0
7,wby,m,23,r,2,(172.20000000000002, 0.0),21,7,3,no,m,6,m,0.7335260999971069,1,32,test1,2,0.7336305000062566,-50.0
7,wby,m,23,r,2,(121.76378772032349, 121.76378772032349),22,25,4,no,m,6,m,0.40556739999738056,1,33,test1,2,0.4056931999948574,-50.0
7,wby,m,23,r,2,(-121.76378772032352, -121.76378772032348),26,25,4,yes,x,5,x,0.6071971000055782,1,34,test1,2,0.607557999988785,-20.0
7,wby,m,23,r,2,(121.76378772032349, 121.76378772032349),22,3,1,yes,x,5,m,0.7792773000110174,0,35,test1,2,0.7796648000075947,-42.0
7,wby,m,23,r,2,(-121.76378772032352, -121.76378772032348),26,-25,14,yes,x,5,x,0.514548899998772,1,36,test1,2,0.5154902000067523,-70.0
7,wby,m,23,r,2,(-121.76378772032352, -121.76378772032348),26,7,3,yes,x,5,m,0.8020108000055188,0,37,test1,2,0.8021869000076549,-38.0
7,wby,m,23,r,2,(1.0544208940658713e-14, 172.20000000000002),23,-25,14,yes,x,5,x,0.5966426000086358,1,38,test1,2,0.5967605000041658,-70.0
7,wby,m,23,r,2,(172.20000000000002, 0.0),21,7,3,yes,x,5,x,0.3533203999977559,1,39,test1,2,0.3535369000019273,-38.0
7,wby,m,23,r,2,(-121.76378772032348, 121.76378772032349),24,7,3,yes,x,5,x,0.5116104000044288,1,40,test1,2,0.5117055000009714,-38.0
7,wby,m,23,r,2,(-121.76378772032352, -121.76378772032348),26,-5,12,yes,x,5,x,0.647128700002213,1,41,test1,2,0.6473460999986855,-50.0
7,wby,m,23,r,2,(-172.20000000000002, 2.1088417881317425e-14),25,-5,12,yes,x,5,x,0.8910686000017449,1,42,test1,2,0.8911670000088634,-50.0
7,wby,m,23,r,2,(1.0544208940658713e-14, 172.20000000000002),23,7,3,yes,x,5,x,0.5977832999924431,1,43,test1,2,0.5981415000132984,-38.0
7,wby,m,23,r,2,(121.76378772032346, -121.76378772032352),28,-5,12,no,m,6,m,1.3168803000007756,1,44,test1,2,1.3172220999986166,-38.0
7,wby,m,23,r,2,(121.76378772032346, -121.76378772032352),28,-25,14,no,m,6,m,0.7087685000005877,1,45,test1,2,0.7088685999915469,-38.0
7,wby,m,23,r,2,(172.20000000000002, 0.0),21,5,2,yes,x,5,x,0.820781899994472,1,46,test1,2,0.8209555000066757,-40.0
7,wby,m,23,r,2,(121.76378772032349, 121.76378772032349),22,-3,11,yes,x,5,m,0.7383577000000514,0,47,test1,2,0.7385966000001645,-48.0
7,wby,m,23,r,2,(-3.163262682197613e-14, -172.20000000000002),27,-25,14,no,m,6,x,1.2587596999946982,0,48,test1,2,1.2591374999901745,-48.0
7,wby,m,23,r,2,(-3.163262682197613e-14, -172.20000000000002),27,-5,12,no,m,6,m,0.7267488999932539,1,49,test1,2,0.7269883999979356,-48.0
7,wby,m,23,r,2,(121.76378772032346, -121.76378772032352),28,-3,11,yes,x,5,m,0.45430719999421854,0,50,test1,2,0.45452850000583567,-48.0
7,wby,m,23,r,2,(-121.76378772032348, 121.76378772032349),24,-3,11,yes,x,5,x,0.3993252000072971,1,51,test1,2,0.3994539999985136,-48.0
7,wby,m,23,r,2,(121.76378772032349, 121.76378772032349),22,-3,11,yes,x,5,x,0.8710644999955548,1,52,test1,2,0.8712317000026815,-48.0
7,wby,m,23,r,2,(172.20000000000002, 0.0),21,-25,14,no,m,6,x,0.4119311000104062,0,53,test1,2,0.4120641000044998,-48.0
7,wby,m,23,r,2,(172.20000000000002, 0.0),21,-7,13,yes,x,5,x,0.5135347000032198,1,54,test1,2,0.5136350000102539,-52.0
7,wby,m,23,r,2,(172.20000000000002, 0.0),21,25,4,yes,x,5,x,0.672614800001611,1,55,test1,2,0.6727127999911318,-20.0
7,wby,m,23,r,2,(172.20000000000002, 0.0),21,7,3,yes,x,5,x,1.0911283000023104,1,56,test1,2,1.0912258000025759,-38.0
7,wby,m,23,r,2,(-121.76378772032348, 121.76378772032349),24,-25,14,no,m,6,x,0.9760627999930875,0,57,test1,2,0.9765208000026178,-38.0
7,wby,m,23,r,2,(-121.76378772032348, 121.76378772032349),24,5,2,yes,x,5,x,0.5851129999937257,1,58,test1,2,0.5852751000056742,-40.0
7,wby,m,23,r,2,(121.76378772032349, 121.76378772032349),22,5,2,yes,x,5,x,0.6311092999967514,1,59,test1,2,0.6320403999998234,-40.0
7,wby,m,23,r,2,(121.76378772032346, -121.76378772032352),28,5,2,yes,x,5,x,0.6130956999986665,1,60,test1,2,0.6131984000094235,-40.0
7,wby,m,23,r,2,(-121.76378772032352, -121.76378772032348),26,3,1,yes,x,5,x,1.1725235000048997,1,61,test1,2,1.1727204000053462,-42.0
7,wby,m,23,r,2,(121.76378772032346, -121.76378772032352),28,3,1,yes,x,5,x,0.5468419999961043,1,62,test1,2,0.546971100004157,-42.0
7,wby,m,23,r,2,(-3.163262682197613e-14, -172.20000000000002),27,3,1,yes,x,5,x,0.6727255000005243,1,63,test1,2,0.672850600007223,-42.0
7,wby,m,23,r,2,(-121.76378772032352, -121.76378772032348),26,-7,13,yes,x,5,x,0.5496465000032913,1,64,test1,2,0.5498783999937586,-52.0
7,wby,m,23,r,2,(-172.20000000000002, 2.1088417881317425e-14),25,3,1,no,m,6,x,0.6242095999914454,0,65,test1,2,0.6245431999996072,-52.0
7,wby,m,23,r,2,(172.20000000000002, 0.0),21,-5,12,no,m,6,x,0.4123824999987846,0,66,test1,2,0.41251209999609273,-52.0
7,wby,m,23,r,2,(-172.20000000000002, 2.1088417881317425e-14),25,-5,12,no,m,6,m,0.79596109999693,1,67,test1,2,0.7966298000101233,-52.0
7,wby,m,23,r,2,(1.0544208940658713e-14, 172.20000000000002),23,7,3,no,m,6,m,0.7505710999976145,1,68,test1,2,0.7508704000065336,-52.0
7,wby,m,23,r,2,(-121.76378772032352, -121.76378772032348),26,-7,13,no,m,6,m,0.5885635000013281,1,69,test1,2,0.5886757999978727,-52.0
7,wby,m,23,r,2,(1.0544208940658713e-14, 172.20000000000002),23,-5,12,no,m,6,m,0.8251228000008268,1,70,test1,2,0.8252349000104005,-52.0
7,wby,m,23,r,2,(-121.76378772032348, 121.76378772032349),24,25,4,no,m,6,m,0.5433254000090528,1,71,test1,2,0.5434388000139734,-52.0
7,wby,m,23,r,2,(172.20000000000002, 0.0),21,3,1,no,m,6,m,0.5726112999982433,1,72,test1,2,0.5727791000099387,-52.0
7,wby,m,23,r,2,(172.20000000000002, 0.0),21,-25,14,yes,x,5,x,0.5779341000015847,1,73,test1,2,0.5780346000101417,-70.0
7,wby,m,23,r,2,(-172.20000000000002, 2.1088417881317425e-14),25,-3,11,yes,x,5,x,1.3469249000045238,1,74,test1,2,1.3475303999875905,-48.0
7,wby,m,23,r,2,(-121.76378772032352, -121.76378772032348),26,3,1,no,m,6,m,0.6426289999944856,1,75,test1,2,0.6428486999939196,-48.0
7,wby,m,23,r,2,(1.0544208940658713e-14, 172.20000000000002),23,-25,14,yes,x,5,x,0.6096125000040047,1,76,test1,2,0.6098239999992074,-70.0
7,wby,m,23,r,2,(1.0544208940658713e-14, 172.20000000000002),23,-25,14,no,m,6,m,0.8877542999980506,1,77,test1,2,0.8879796000110218,-70.0
7,wby,m,23,r,2,(-172.20000000000002, 2.1088417881317425e-14),25,5,2,yes,x,5,m,0.5195932000060566,0,78,test1,2,0.5197494000021834,-40.0
7,wby,m,23,r,2,(-121.76378772032348, 121.76378772032349),24,-3,11,yes,x,5,x,0.5802358000073582,1,79,test1,2,0.5805288999981713,-48.0
7,wby,m,23,r,2,(1.0544208940658713e-14, 172.20000000000002),23,-5,12,yes,x,5,x,0.6021242999995593,1,80,test1,2,0.6022862000099849,-50.0
7,wby,m,23,r,2,(-121.76378772032348, 121.76378772032349),24,-7,13,no,m,6,x,0.5494746000040323,0,81,test1,2,0.5498119999974733,-50.0
7,wby,m,23,r,2,(121.76378772032346, -121.76378772032352),28,3,1,no,m,6,m,0.9794173999980558,1,82,test1,2,0.9800276000023587,-50.0
7,wby,m,23,r,2,(-121.76378772032352, -121.76378772032348),26,7,3,no,m,6,m,0.577685800002655,1,83,test1,2,0.5782951000001049,-50.0
7,wby,m,23,r,2,(-121.76378772032352, -121.76378772032348),26,-5,12,yes,x,5,m,0.6681960999994772,0,84,test1,2,0.6685235999902943,-50.0
7,wby,m,23,r,2,(121.76378772032346, -121.76378772032352),28,25,4,yes,x,5,x,0.5000968000094872,1,85,test1,2,0.5002260000037495,-20.0
7,wby,m,23,r,2,(121.76378772032349, 121.76378772032349),22,3,1,no,m,6,m,0.7012803000106942,1,86,test1,2,0.7017281000007642,-20.0
7,wby,m,23,r,2,(1.0544208940658713e-14, 172.20000000000002),23,25,4,no,m,6,m,0.4517165000142995,1,87,test1,2,0.45193640000070445,-20.0
7,wby,m,23,r,2,(121.76378772032349, 121.76378772032349),22,-5,12,yes,x,5,x,0.7382458999927621,1,88,test1,2,0.738477499995497,-50.0
7,wby,m,23,r,2,(121.76378772032346, -121.76378772032352),28,-3,11,yes,x,5,x,0.3596761999942828,1,89,test1,2,0.3598710999940522,-48.0
7,wby,m,23,r,2,(-121.76378772032348, 121.76378772032349),24,25,4,yes,x,5,x,0.40974390000337735,1,90,test1,2,0.4100569000001997,-20.0
7,wby,m,23,r,2,(-3.163262682197613e-14, -172.20000000000002),27,-7,13,yes,x,5,x,0.35022269999899436,1,91,test1,2,0.35053540000808425,-52.0
7,wby,m,23,r,2,(-3.163262682197613e-14, -172.20000000000002),27,7,3,yes,x,5,x,0.5106572000076994,1,92,test1,2,0.5107572999986587,-38.0
7,wby,m,23,r,2,(-121.76378772032348, 121.76378772032349),24,3,1,yes,x,5,x,0.4249048999918159,1,93,test1,2,0.4250066999957198,-42.0
7,wby,m,23,r,2,(121.76378772032346, -121.76378772032352),28,-7,13,no,m,6,x,0.3794530000013765,0,94,test1,2,0.3797617999953218,-42.0
7,wby,m,23,r,2,(121.76378772032349, 121.76378772032349),22,25,4,yes,x,5,x,0.502547299998696,1,95,test1,2,0.5027800999960164,-20.0
7,wby,m,23,r,2,(-121.76378772032348, 121.76378772032349),24,-7,13,yes,x,5,x,0.8747794000082649,1,96,test1,2,0.8751091000012821,-52.0
7,wby,m,23,r,2,(121.76378772032349, 121.76378772032349),22,5,2,no,m,6,m,0.9117140000016661,1,1,test2,2,0.9119279000005918,-52.0
7,wby,m,23,r,2,(121.76378772032349, 121.76378772032349),22,-7,13,yes,x,5,x,0.6313063999987207,1,2,test2,2,0.6314198000036413,-52.0
7,wby,m,23,r,2,(172.20000000000002, 0.0),21,-3,11,yes,x,5,x,0.7226227999926778,1,3,test2,2,0.7229099000105634,-48.0
7,wby,m,23,r,2,(-121.76378772032352, -121.76378772032348),26,5,2,yes,x,5,x,0.6065473000053316,1,4,test2,2,0.6066757000080543,-40.0
7,wby,m,23,r,2,(-121.76378772032348, 121.76378772032349),24,-7,13,yes,x,5,x,0.6448158999992302,1,5,test2,2,0.6451967000029981,-52.0
7,wby,m,23,r,2,(121.76378772032349, 121.76378772032349),22,-25,14,yes,x,5,x,0.6141853000008268,1,6,test2,2,0.6149823000014294,-70.0
7,wby,m,23,r,2,(121.76378772032349, 121.76378772032349),22,-5,12,no,m,6,m,1.0459769000008237,1,7,test2,2,1.0462263000081293,-70.0
7,wby,m,23,r,2,(121.76378772032349, 121.76378772032349),22,5,2,yes,x,5,x,1.9302109999989625,1,8,test2,2,1.9303284000052372,-40.0
7,wby,m,23,r,2,(121.76378772032349, 121.76378772032349),22,-7,13,yes,x,5,x,0.4850555000011809,1,9,test2,2,0.48529330000746995,-52.0
7,wby,m,23,r,2,(121.76378772032346, -121.76378772032352),28,-7,13,yes,x,5,x,0.7157737000088673,1,10,test2,2,0.7161395000002813,-52.0
7,wby,m,23,r,2,(-121.76378772032352, -121.76378772032348),26,3,1,yes,x,5,x,0.6028178999986267,1,11,test2,2,0.6031930999888573,-42.0
7,wby,m,23,r,2,(-121.76378772032352, -121.76378772032348),26,5,2,yes,x,5,x,0.3385520000010729,1,12,test2,2,0.33889559999806806,-40.0
7,wby,m,23,r,2,(172.20000000000002, 0.0),21,3,1,yes,x,5,x,0.33878330000152346,1,13,test2,2,0.3388820999971358,-42.0
7,wby,m,23,r,2,(-121.76378772032348, 121.76378772032349),24,7,3,yes,x,5,x,0.5149071000050753,1,14,test2,2,0.5150662000087323,-38.0
7,wby,m,23,r,2,(-121.76378772032348, 121.76378772032349),24,-5,12,yes,x,5,x,0.3319162999978289,1,15,test2,2,0.33203510000021197,-50.0
7,wby,m,23,r,2,(1.0544208940658713e-14, 172.20000000000002),23,-3,11,yes,x,5,x,0.4610179000010248,1,16,test2,2,0.4611216999910539,-48.0
7,wby,m,23,r,2,(-3.163262682197613e-14, -172.20000000000002),27,-5,12,yes,x,5,x,0.4710536999918986,1,17,test2,2,0.4711544000019785,-50.0
7,wby,m,23,r,2,(-3.163262682197613e-14, -172.20000000000002),27,-3,11,yes,x,5,x,0.9189800000021933,1,18,test2,2,0.9195201999973506,-48.0
7,wby,m,23,r,2,(121.76378772032346, -121.76378772032352),28,-25,14,yes,x,5,x,1.2538746000063838,1,19,test2,2,1.2539885000005597,-70.0
7,wby,m,23,r,2,(1.0544208940658713e-14, 172.20000000000002),23,-7,13,no,m,6,x,0.4490151999925729,0,20,test2,2,0.4491126999928383,-70.0
7,wby,m,23,r,2,(-3.163262682197613e-14, -172.20000000000002),27,25,4,yes,x,5,x,0.6054984999937005,1,21,test2,2,0.6061568000004627,-20.0
7,wby,m,23,r,2,(-121.76378772032352, -121.76378772032348),26,25,4,no,m,6,m,0.9893239999946672,1,22,test2,2,0.989488799998071,-20.0
7,wby,m,23,r,2,(-3.163262682197613e-14, -172.20000000000002),27,3,1,yes,x,5,x,0.936124200001359,1,23,test2,2,0.9364250999933574,-42.0
7,wby,m,23,r,2,(-3.163262682197613e-14, -172.20000000000002),27,-7,13,no,m,6,x,0.7004944999935105,0,24,test2,2,0.7008249999926193,-42.0
7,wby,m,23,r,2,(1.0544208940658713e-14, 172.20000000000002),23,3,1,no,m,6,m,0.5731934000068577,1,25,test2,2,0.5734175999969011,-42.0
7,wby,m,23,r,2,(-121.76378772032352, -121.76378772032348),26,5,2,no,m,6,m,0.6094887000072049,1,26,test2,2,0.6097166999970796,-42.0
7,wby,m,23,r,2,(172.20000000000002, 0.0),21,25,4,yes,x,5,x,0.7058808999863686,1,27,test2,2,0.7059971999988193,-20.0
7,wby,m,23,r,2,(-172.20000000000002, 2.1088417881317425e-14),25,-3,11,no,m,6,m,0.8873262999986764,1,28,test2,2,0.88777050000499,-20.0
7,wby,m,23,r,2,(-121.76378772032348, 121.76378772032349),24,5,2,yes,x,5,x,0.7500063999905251,1,29,test2,2,0.7503036999987671,-40.0
7,wby,m,23,r,2,(121.76378772032346, -121.76378772032352),28,-5,12,yes,x,5,x,0.658079100001487,1,30,test2,2,0.6583149000070989,-50.0
7,wby,m,23,r,2,(121.76378772032346, -121.76378772032352),28,25,4,yes,x,5,x,0.49791589999222197,1,31,test2,2,0.4980409999989206,-20.0
7,wby,m,23,r,2,(121.76378772032349, 121.76378772032349),22,25,4,yes,x,5,x,0.7527254000015091,1,32,test2,2,0.7530052000074647,-20.0
7,wby,m,23,r,2,(1.0544208940658713e-14, 172.20000000000002),23,5,2,yes,x,5,x,0.5787201000057394,1,33,test2,2,0.5789346999954432,-40.0
7,wby,m,23,r,2,(121.76378772032349, 121.76378772032349),22,7,3,yes,x,5,x,0.547050000008312,1,34,test2,2,0.5473327999934554,-38.0
7,wby,m,23,r,2,(-121.76378772032352, -121.76378772032348),26,7,3,yes,x,5,x,0.4959263000055216,1,35,test2,2,0.4960486000054516,-38.0
7,wby,m,23,r,2,(172.20000000000002, 0.0),21,5,2,yes,x,5,x,0.6509086000005482,1,36,test2,2,0.6513043000013568,-40.0
7,wby,m,23,r,2,(-172.20000000000002, 2.1088417881317425e-14),25,-5,12,yes,x,5,x,0.5297068999934709,1,37,test2,2,0.5298638999956893,-50.0
7,wby,m,23,r,2,(121.76378772032349, 121.76378772032349),22,-25,14,yes,x,5,x,0.7335874999989755,1,38,test2,2,0.7340097999986028,-70.0
7,wby,m,23,r,2,(1.0544208940658713e-14, 172.20000000000002),23,3,1,yes,x,5,x,1.1159413999994285,1,39,test2,2,1.1161505000054603,-42.0
7,wby,m,23,r,2,(-121.76378772032352, -121.76378772032348),26,-5,12,no,m,6,x,0.5712712999957148,0,40,test2,2,0.5715087999997195,-42.0
7,wby,m,23,r,2,(1.0544208940658713e-14, 172.20000000000002),23,-3,11,yes,x,5,x,0.5991367000096943,1,41,test2,2,0.5992300999932922,-48.0
7,wby,m,23,r,2,(-172.20000000000002, 2.1088417881317425e-14),25,7,3,yes,x,5,x,0.6773834000050556,1,42,test2,2,0.6778118000074755,-38.0
7,wby,m,23,r,2,(172.20000000000002, 0.0),21,-5,12,yes,x,5,x,0.7448556000017561,1,43,test2,2,0.7449558999942383,-50.0
7,wby,m,23,r,2,(172.20000000000002, 0.0),21,-7,13,no,m,6,m,0.7199039999977686,1,44,test2,2,0.7201908999995794,-50.0
7,wby,m,23,r,2,(-121.76378772032352, -121.76378772032348),26,25,4,yes,x,5,x,0.6269604999979492,1,45,test2,2,0.6272658999951091,-20.0
7,wby,m,23,r,2,(1.0544208940658713e-14, 172.20000000000002),23,7,3,yes,x,5,x,0.5652524000033736,1,46,test2,2,0.5654211000073701,-38.0
7,wby,m,23,r,2,(121.76378772032346, -121.76378772032352),28,25,4,no,m,6,m,0.9651315000082832,1,47,test2,2,0.9652579000103287,-38.0
7,wby,m,23,r,2,(-121.76378772032348, 121.76378772032349),24,3,1,yes,x,5,x,0.9755710000026738,1,48,test2,2,0.9762420000042766,-42.0
7,wby,m,23,r,2,(-172.20000000000002, 2.1088417881317425e-14),25,-3,11,yes,x,5,m,0.7410873000044376,0,49,test2,2,0.7413748999970267,-48.0
7,wby,m,23,r,2,(-121.76378772032352, -121.76378772032348),26,-25,14,yes,x,5,x,0.4767742999974871,1,50,test2,2,0.4769933000061428,-70.0
7,wby,m,23,r,2,(-121.76378772032352, -121.76378772032348),26,-25,14,no,m,6,m,1.1269613000040408,1,51,test2,2,1.1276180999993812,-70.0
7,wby,m,23,r,2,(1.0544208940658713e-14, 172.20000000000002),23,-7,13,yes,x,5,x,0.5863110999925993,1,52,test2,2,0.5864474999980303,-52.0
7,wby,m,23,r,2,(-3.163262682197613e-14, -172.20000000000002),27,7,3,yes,x,5,x,0.44874479999998584,1,53,test2,2,0.4489235000073677,-38.0
7,wby,m,23,r,2,(-172.20000000000002, 2.1088417881317425e-14),25,25,4,yes,x,5,x,0.4156057999935001,1,54,test2,2,0.41570759999740403,-20.0
7,wby,m,23,r,2,(-172.20000000000002, 2.1088417881317425e-14),25,-7,13,yes,x,5,x,0.49540410000190604,1,55,test2,2,0.49553060000471305,-52.0
7,wby,m,23,r,2,(121.76378772032349, 121.76378772032349),22,-3,11,no,m,6,m,0.8806214000069303,1,56,test2,2,0.8809739999996964,-52.0
7,wby,m,23,r,2,(-3.163262682197613e-14, -172.20000000000002),27,-7,13,yes,x,5,x,0.5827091999963159,1,57,test2,2,0.5828222999989521,-52.0
7,wby,m,23,r,2,(-121.76378772032348, 121.76378772032349),24,-25,14,yes,x,5,x,0.4545573999930639,1,58,test2,2,0.4548401000065496,-70.0
7,wby,m,23,r,2,(-172.20000000000002, 2.1088417881317425e-14),25,25,4,no,m,6,m,0.7373523999995086,1,59,test2,2,0.737647099987953,-70.0
7,wby,m,23,r,2,(121.76378772032346, -121.76378772032352),28,5,2,yes,x,5,x,1.0145178999955533,1,60,test2,2,1.0148514000029536,-40.0
7,wby,m,23,r,2,(1.0544208940658713e-14, 172.20000000000002),23,3,1,yes,x,5,x,1.7761828000075184,1,61,test2,2,1.776472500001546,-42.0
7,wby,m,23,r,2,(-121.76378772032352, -121.76378772032348),26,-7,13,yes,x,5,x,0.7635227999999188,1,62,test2,2,0.7636547000001883,-52.0
7,wby,m,23,r,2,(121.76378772032346, -121.76378772032352),28,7,3,yes,x,5,x,0.7835186000011163,1,63,test2,2,0.7836236000002827,-38.0
7,wby,m,23,r,2,(-121.76378772032348, 121.76378772032349),24,-5,12,yes,x,5,x,0.6218442999961553,1,64,test2,2,0.6219606999948155,-50.0
7,wby,m,23,r,2,(1.0544208940658713e-14, 172.20000000000002),23,5,2,no,m,6,m,0.7795795999991242,1,65,test2,2,0.7797074999980396,-50.0
7,wby,m,23,r,2,(1.0544208940658713e-14, 172.20000000000002),23,25,4,yes,x,5,x,0.47369650000473484,1,66,test2,2,0.4740227000002051,-20.0
7,wby,m,23,r,2,(-3.163262682197613e-14, -172.20000000000002),27,3,1,no,m,6,m,0.7741062999994028,1,67,test2,2,0.7743099999934202,-20.0
7,wby,m,23,r,2,(-3.163262682197613e-14, -172.20000000000002),27,7,3,no,m,6,m,0.4363995000021532,1,68,test2,2,0.43704319999960717,-20.0
7,wby,m,23,r,2,(-121.76378772032348, 121.76378772032349),24,3,1,no,m,6,m,0.5384516999911284,1,69,test2,2,0.5386594000010518,-20.0
7,wby,m,23,r,2,(121.76378772032346, -121.76378772032352),28,-25,14,yes,x,5,x,0.49277450000226963,1,70,test2,2,0.49330010000267066,-70.0
7,wby,m,23,r,2,(-3.163262682197613e-14, -172.20000000000002),27,-25,14,yes,x,5,x,0.7132870999921579,1,71,test2,2,0.7135207999963313,-70.0
7,wby,m,23,r,2,(-172.20000000000002, 2.1088417881317425e-14),25,-7,13,no,m,6,x,0.5625398999982281,0,72,test2,2,0.5626334999979008,-70.0
7,wby,m,23,r,2,(-3.163262682197613e-14, -172.20000000000002),27,5,2,yes,x,5,x,0.5326844000082929,1,73,test2,2,0.5327852000045823,-40.0
7,wby,m,23,r,2,(121.76378772032349, 121.76378772032349),22,7,3,yes,x,5,x,0.6067618999950355,1,74,test2,2,0.6071175999968546,-38.0
7,wby,m,23,r,2,(121.76378772032346, -121.76378772032352),28,-7,13,yes,x,5,None,None,0,75,test2,2,1.9800873000058345,-52.0
7,wby,m,23,r,2,(1.0544208940658713e-14, 172.20000000000002),23,-5,12,yes,x,5,x,0.5827647999976762,1,76,test2,2,0.5835089000029257,-50.0
7,wby,m,23,r,2,(-3.163262682197613e-14, -172.20000000000002),27,-25,14,yes,x,5,x,0.5497832000110066,1,77,test2,2,0.5499607999954605,-70.0
7,wby,m,23,r,2,(1.0544208940658713e-14, 172.20000000000002),23,25,4,yes,x,5,x,0.6224347999959718,1,78,test2,2,0.6226635999919381,-20.0
7,wby,m,23,r,2,(-121.76378772032352, -121.76378772032348),26,-3,11,yes,x,5,m,0.8022543999977643,0,79,test2,2,0.8029333000013139,-48.0
7,wby,m,23,r,2,(-172.20000000000002, 2.1088417881317425e-14),25,25,4,yes,x,5,x,0.4264134999975795,1,80,test2,2,0.4265506999945501,-20.0
7,wby,m,23,r,2,(-121.76378772032352, -121.76378772032348),26,-3,11,no,m,6,m,0.7215178000042215,1,81,test2,2,0.721809900001972,-20.0
7,wby,m,23,r,2,(-3.163262682197613e-14, -172.20000000000002),27,-5,12,yes,x,5,m,0.5186226000078022,0,82,test2,2,0.5187221999949543,-50.0
7,wby,m,23,r,2,(-3.163262682197613e-14, -172.20000000000002),27,5,2,no,m,6,x,0.782245199996396,0,83,test2,2,0.7825440000015078,-50.0
7,wby,m,23,r,2,(-172.20000000000002, 2.1088417881317425e-14),25,-7,13,yes,x,5,x,0.5758821999916108,1,84,test2,2,0.5759820999955991,-52.0
7,wby,m,23,r,2,(172.20000000000002, 0.0),21,-3,11,no,m,6,m,0.7199682000064058,1,85,test2,2,0.7200900000025285,-52.0
7,wby,m,23,r,2,(-3.163262682197613e-14, -172.20000000000002),27,25,4,no,m,6,m,0.5685073000058765,1,86,test2,2,0.5688387999980478,-52.0
7,wby,m,23,r,2,(-3.163262682197613e-14, -172.20000000000002),27,-3,11,yes,x,5,m,0.5602221000008285,0,87,test2,2,0.5605956000072183,-48.0
7,wby,m,23,r,2,(-172.20000000000002, 2.1088417881317425e-14),25,3,1,yes,x,5,x,0.8655223000096157,1,88,test2,2,0.8656251000065822,-42.0
7,wby,m,23,r,2,(-121.76378772032348, 121.76378772032349),24,-25,14,yes,x,5,x,0.5166180000087479,1,89,test2,2,0.5167349999974249,-70.0
7,wby,m,23,r,2,(121.76378772032349, 121.76378772032349),22,3,1,yes,x,5,m,1.313289599987911,0,90,test2,2,1.3136017000069842,-42.0
7,wby,m,23,r,2,(121.76378772032349, 121.76378772032349),22,-7,13,no,m,6,m,0.7000912999938009,1,91,test2,2,0.7004000000015367,-42.0
7,wby,m,23,r,2,(172.20000000000002, 0.0),21,-3,11,yes,x,5,x,0.7640214999992168,1,92,test2,2,0.7643173999967985,-48.0
7,wby,m,23,r,2,(-3.163262682197613e-14, -172.20000000000002),27,25,4,yes,x,5,x,0.6680407999956515,1,93,test2,2,0.6683512000017799,-20.0
7,wby,m,23,r,2,(-121.76378772032348, 121.76378772032349),24,-5,12,no,m,6,m,1.4948790000053123,1,94,test2,2,1.4950007000006735,-20.0
7,wby,m,23,r,2,(-172.20000000000002, 2.1088417881317425e-14),25,-25,14,yes,x,5,x,0.5403619999997318,1,95,test2,2,0.5405175000050804,-70.0
7,wby,m,23,r,2,(172.20000000000002, 0.0),21,25,4,no,m,6,m,0.664645599987125,1,96,test2,2,0.6647458999941591,-70.0
7,wby,m,23,r,2,(-172.20000000000002, 2.1088417881317425e-14),25,-25,14,yes,x,5,x,0.6254463000077521,1,1,test1,3,0.6255419999943115,-70.0
7,wby,m,23,r,2,(-3.163262682197613e-14, -172.20000000000002),27,-3,11,no,m,6,m,0.6800809999986086,1,2,test1,3,0.6807502000010572,-70.0
7,wby,m,23,r,2,(121.76378772032349, 121.76378772032349),22,7,3,no,m,6,m,0.762570599996252,1,3,test1,3,0.7627669000066817,-70.0
7,wby,m,23,r,2,(1.0544208940658713e-14, 172.20000000000002),23,-7,13,yes,x,5,x,0.8507891000044765,1,4,test1,3,0.851010900005349,-52.0
7,wby,m,23,r,2,(-172.20000000000002, 2.1088417881317425e-14),25,7,3,yes,x,5,x,0.5569768999994267,1,5,test1,3,0.5572059000114677,-38.0
7,wby,m,23,r,2,(172.20000000000002, 0.0),21,3,1,yes,x,5,m,0.7196035000088159,0,6,test1,3,0.7198167000024114,-42.0
7,wby,m,23,r,2,(172.20000000000002, 0.0),21,-25,14,yes,x,5,x,0.5514885000011418,1,7,test1,3,0.5518147999973735,-70.0
7,wby,m,23,r,2,(121.76378772032346, -121.76378772032352),28,7,3,yes,x,5,x,0.6880237999866949,1,8,test1,3,0.688157600001432,-38.0
7,wby,m,23,r,2,(121.76378772032346, -121.76378772032352),28,7,3,no,m,6,m,0.6320841999986442,1,9,test1,3,0.6321876000001794,-38.0
7,wby,m,23,r,2,(121.76378772032346, -121.76378772032352),28,3,1,yes,x,5,x,0.7345191000058549,1,10,test1,3,0.7346172999968985,-42.0
7,wby,m,23,r,2,(172.20000000000002, 0.0),21,5,2,no,m,6,m,0.9003891000029398,1,11,test1,3,0.9005669000034686,-42.0
7,wby,m,23,r,2,(-121.76378772032348, 121.76378772032349),24,25,4,yes,x,5,x,0.41404279999551363,1,12,test1,3,0.4143098999920767,-20.0
7,wby,m,23,r,2,(1.0544208940658713e-14, 172.20000000000002),23,5,2,yes,x,5,x,0.7308871999994153,1,13,test1,3,0.7310224999964703,-40.0
7,wby,m,23,r,2,(-172.20000000000002, 2.1088417881317425e-14),25,3,1,yes,x,5,m,0.7462301999912597,0,14,test1,3,0.7463472999952501,-42.0
7,wby,m,23,r,2,(-121.76378772032348, 121.76378772032349),24,-3,11,no,m,6,x,1.0577988000004552,0,15,test1,3,1.0579390000057174,-42.0
7,wby,m,23,r,2,(-3.163262682197613e-14, -172.20000000000002),27,5,2,yes,x,5,x,0.8400704999949085,1,16,test1,3,0.840552800000296,-40.0
7,wby,m,23,r,2,(-121.76378772032352, -121.76378772032348),26,-3,11,yes,x,5,x,0.7166265999985626,1,17,test1,3,0.7168345999962185,-48.0
7,wby,m,23,r,2,(-172.20000000000002, 2.1088417881317425e-14),25,-25,14,no,m,6,x,0.5111852999980329,0,18,test1,3,0.5116447000036715,-48.0
7,wby,m,23,r,2,(121.76378772032349, 121.76378772032349),22,-25,14,no,m,6,m,0.7769949000066845,1,19,test1,3,0.7772205000073882,-48.0
7,wby,m,23,r,2,(121.76378772032346, -121.76378772032352),28,5,2,no,m,6,m,0.4556250000023283,1,20,test1,3,0.4557448999985354,-48.0
7,wby,m,23,r,2,(172.20000000000002, 0.0),21,-7,13,yes,x,5,x,0.628400599991437,1,21,test1,3,0.6285002999939024,-52.0
7,wby,m,23,r,2,(-121.76378772032348, 121.76378772032349),24,7,3,no,m,6,m,0.790639500002726,1,22,test1,3,0.7909454000036931,-52.0
7,wby,m,23,r,2,(121.76378772032349, 121.76378772032349),22,-5,12,yes,x,5,x,0.6651669999992009,1,23,test1,3,0.6654019999987213,-50.0
7,wby,m,23,r,2,(121.76378772032346, -121.76378772032352),28,-5,12,yes,x,5,x,0.704072599997744,1,24,test1,3,0.7047470999968937,-50.0
7,wby,m,23,r,2,(-172.20000000000002, 2.1088417881317425e-14),25,5,2,yes,x,5,x,0.5024988999939524,1,25,test1,3,0.502641200000653,-40.0
7,wby,m,23,r,2,(-121.76378772032348, 121.76378772032349),24,5,2,no,m,6,m,0.9142732000036631,1,26,test1,3,0.9146081000071717,-40.0
7,wby,m,23,r,2,(1.0544208940658713e-14, 172.20000000000002),23,-3,11,no,m,6,m,1.1132840999925975,1,27,test1,3,1.1134319999982836,-40.0
7,wby,m,23,r,2,(121.76378772032346, -121.76378772032352),28,-3,11,no,m,6,m,0.6420919000083813,1,28,test1,3,0.6423103999986779,-40.0
7,wby,m,23,r,2,(-172.20000000000002, 2.1088417881317425e-14),25,5,2,no,m,6,m,0.7149780000036117,1,29,test1,3,0.7151371999934781,-40.0
7,wby,m,23,r,2,(172.20000000000002, 0.0),21,-5,12,yes,x,5,x,0.5747841999982484,1,30,test1,3,0.5749673999962397,-50.0
7,wby,m,23,r,2,(-172.20000000000002, 2.1088417881317425e-14),25,7,3,no,m,6,m,0.8829901999997674,1,31,test1,3,0.8833065999933751,-50.0
7,wby,m,23,r,2,(172.20000000000002, 0.0),21,7,3,no,m,6,m,0.5757851999951527,1,32,test1,3,0.5758847000106471,-50.0
7,wby,m,23,r,2,(121.76378772032349, 121.76378772032349),22,25,4,no,m,6,m,0.5852802000008523,1,33,test1,3,0.5855701999971643,-50.0
7,wby,m,23,r,2,(-121.76378772032352, -121.76378772032348),26,25,4,yes,x,5,x,1.9315005999960704,1,34,test1,3,1.9317792000074405,-20.0
7,wby,m,23,r,2,(121.76378772032349, 121.76378772032349),22,3,1,yes,x,5,m,0.6624102999921888,0,35,test1,3,0.6627073999989079,-42.0
7,wby,m,23,r,2,(-121.76378772032352, -121.76378772032348),26,-25,14,yes,x,5,x,0.5384674999950221,1,36,test1,3,0.5390760000009323,-70.0
7,wby,m,23,r,2,(-121.76378772032352, -121.76378772032348),26,7,3,yes,x,5,x,0.6062166000047,1,37,test1,3,0.6063947000075132,-38.0
7,wby,m,23,r,2,(1.0544208940658713e-14, 172.20000000000002),23,-25,14,yes,x,5,x,0.5829615999973612,1,38,test1,3,0.5831978999922285,-70.0
7,wby,m,23,r,2,(172.20000000000002, 0.0),21,7,3,yes,x,5,x,0.7727973999863025,1,39,test1,3,0.7730671000026632,-38.0
7,wby,m,23,r,2,(-121.76378772032348, 121.76378772032349),24,7,3,yes,x,5,x,0.633201899996493,1,40,test1,3,0.6335450999904424,-38.0
7,wby,m,23,r,2,(-121.76378772032352, -121.76378772032348),26,-5,12,yes,x,5,x,0.5716178000002401,1,41,test1,3,0.5719068000034895,-50.0
7,wby,m,23,r,2,(-172.20000000000002, 2.1088417881317425e-14),25,-5,12,yes,x,5,x,0.38365229999180883,1,42,test1,3,0.38388080000004265,-50.0
7,wby,m,23,r,2,(1.0544208940658713e-14, 172.20000000000002),23,7,3,yes,x,5,x,0.8770480999955907,1,43,test1,3,0.8773930000024848,-38.0
7,wby,m,23,r,2,(121.76378772032346, -121.76378772032352),28,-5,12,no,m,6,m,0.8771554000122705,1,44,test1,3,0.877391300004092,-38.0
7,wby,m,23,r,2,(121.76378772032346, -121.76378772032352),28,-25,14,no,m,6,m,0.4869758999993792,1,45,test1,3,0.48714149999432266,-38.0
7,wby,m,23,r,2,(172.20000000000002, 0.0),21,5,2,yes,x,5,x,0.9191792999918107,1,46,test1,3,0.9193276000005426,-40.0
7,wby,m,23,r,2,(121.76378772032349, 121.76378772032349),22,-3,11,yes,x,5,m,0.7006703999941237,0,47,test1,3,0.7009662999917055,-48.0
7,wby,m,23,r,2,(-3.163262682197613e-14, -172.20000000000002),27,-25,14,no,m,6,x,0.563097199992626,0,48,test1,3,0.5632312000088859,-48.0
7,wby,m,23,r,2,(-3.163262682197613e-14, -172.20000000000002),27,-5,12,no,m,6,m,0.4995794999995269,1,49,test1,3,0.5000959000026342,-48.0
7,wby,m,23,r,2,(121.76378772032346, -121.76378772032352),28,-3,11,yes,x,5,m,0.41958830000658054,0,50,test1,3,0.4197010999923805,-48.0
7,wby,m,23,r,2,(-121.76378772032348, 121.76378772032349),24,-3,11,yes,x,5,x,0.8271719000040321,1,51,test1,3,0.8274066000012681,-48.0
7,wby,m,23,r,2,(121.76378772032349, 121.76378772032349),22,-3,11,yes,x,5,x,0.6465297999966424,1,52,test1,3,0.6466614000091795,-48.0
7,wby,m,23,r,2,(172.20000000000002, 0.0),21,-25,14,no,m,6,x,0.9772185999900103,0,53,test1,3,0.9773446999897715,-48.0
7,wby,m,23,r,2,(172.20000000000002, 0.0),21,-7,13,yes,x,5,x,0.7204645000019809,1,54,test1,3,0.7206636999908369,-52.0
7,wby,m,23,r,2,(172.20000000000002, 0.0),21,25,4,yes,x,5,x,0.5252517999906559,1,55,test1,3,0.5253711999976076,-20.0
7,wby,m,23,r,2,(172.20000000000002, 0.0),21,7,3,yes,x,5,x,0.5523153000103775,1,56,test1,3,0.5524760000116657,-38.0
7,wby,m,23,r,2,(-121.76378772032348, 121.76378772032349),24,-25,14,no,m,6,m,0.7562570000009146,1,57,test1,3,0.7569231999950716,-38.0
7,wby,m,23,r,2,(-121.76378772032348, 121.76378772032349),24,5,2,yes,x,5,x,0.7475104000041028,1,58,test1,3,0.7476822000026004,-40.0
7,wby,m,23,r,2,(121.76378772032349, 121.76378772032349),22,5,2,yes,x,5,x,0.6561547000019345,1,59,test1,3,0.656259700001101,-40.0
7,wby,m,23,r,2,(121.76378772032346, -121.76378772032352),28,5,2,yes,x,5,x,0.8001343999931123,1,60,test1,3,0.8002619000035338,-40.0
7,wby,m,23,r,2,(-121.76378772032352, -121.76378772032348),26,3,1,yes,x,5,x,1.5436945999972522,1,61,test1,3,1.5438537000009092,-42.0
7,wby,m,23,r,2,(121.76378772032346, -121.76378772032352),28,3,1,yes,x,5,x,0.5308934999920893,1,62,test1,3,0.5311299999884795,-42.0
7,wby,m,23,r,2,(-3.163262682197613e-14, -172.20000000000002),27,3,1,yes,x,5,x,0.5008441999962088,1,63,test1,3,0.5011949000036111,-42.0
7,wby,m,23,r,2,(-121.76378772032352, -121.76378772032348),26,-7,13,yes,x,5,x,0.4168696999986423,1,64,test1,3,0.416990400000941,-52.0
7,wby,m,23,r,2,(-172.20000000000002, 2.1088417881317425e-14),25,3,1,no,m,6,x,0.6335799000080442,0,65,test1,3,0.6337616999953752,-52.0
7,wby,m,23,r,2,(172.20000000000002, 0.0),21,-5,12,no,m,6,m,0.7551170000078855,1,66,test1,3,0.7553984999976819,-52.0
7,wby,m,23,r,2,(-172.20000000000002, 2.1088417881317425e-14),25,-5,12,no,m,6,m,0.45898000001034234,1,67,test1,3,0.4591519999958109,-52.0
7,wby,m,23,r,2,(1.0544208940658713e-14, 172.20000000000002),23,7,3,no,m,6,m,0.6094890999956988,1,68,test1,3,0.6096065000019735,-52.0
7,wby,m,23,r,2,(-121.76378772032352, -121.76378772032348),26,-7,13,no,m,6,m,0.5009926999919116,1,69,test1,3,0.501099000000977,-52.0
7,wby,m,23,r,2,(1.0544208940658713e-14, 172.20000000000002),23,-5,12,no,m,6,m,0.44570199999725446,1,70,test1,3,0.4459948000003351,-52.0
7,wby,m,23,r,2,(-121.76378772032348, 121.76378772032349),24,25,4,no,m,6,m,0.4397751999931643,1,71,test1,3,0.43994320000638254,-52.0
7,wby,m,23,r,2,(172.20000000000002, 0.0),21,3,1,no,m,6,m,0.49702770001022145,1,72,test1,3,0.49753800001053605,-52.0
7,wby,m,23,r,2,(172.20000000000002, 0.0),21,-25,14,yes,x,5,x,0.5497910999984015,1,73,test1,3,0.549951199995121,-70.0
7,wby,m,23,r,2,(-172.20000000000002, 2.1088417881317425e-14),25,-3,11,yes,x,5,m,0.6124548000079812,0,74,test1,3,0.6125520000059623,-48.0
7,wby,m,23,r,2,(-121.76378772032352, -121.76378772032348),26,3,1,no,m,6,m,0.7433690999896498,1,75,test1,3,0.7435796999925515,-48.0
7,wby,m,23,r,2,(1.0544208940658713e-14, 172.20000000000002),23,-25,14,yes,x,5,x,0.3887760000070557,1,76,test1,3,0.390027800007374,-70.0
7,wby,m,23,r,2,(1.0544208940658713e-14, 172.20000000000002),23,-25,14,no,m,6,m,0.6263960000069346,1,77,test1,3,0.6267712999979267,-70.0
7,wby,m,23,r,2,(-172.20000000000002, 2.1088417881317425e-14),25,5,2,yes,x,5,x,0.6633147999964422,1,78,test1,3,0.6634810999967158,-40.0
7,wby,m,23,r,2,(-121.76378772032348, 121.76378772032349),24,-3,11,yes,x,5,x,0.9896025999914855,1,79,test1,3,0.9898386999993818,-48.0
7,wby,m,23,r,2,(1.0544208940658713e-14, 172.20000000000002),23,-5,12,yes,x,5,x,0.6279083999979775,1,80,test1,3,0.6283814000053098,-50.0
7,wby,m,23,r,2,(-121.76378772032348, 121.76378772032349),24,-7,13,no,m,6,m,0.8824095000018133,1,81,test1,3,0.8826964000036241,-50.0
7,wby,m,23,r,2,(121.76378772032346, -121.76378772032352),28,3,1,no,m,6,m,0.5001007999962894,1,82,test1,3,0.5007882000063546,-50.0
7,wby,m,23,r,2,(-121.76378772032352, -121.76378772032348),26,7,3,no,m,6,m,0.5494295000098646,1,83,test1,3,0.5496626000094693,-50.0
7,wby,m,23,r,2,(-121.76378772032352, -121.76378772032348),26,-5,12,yes,x,5,x,0.5566889999900013,1,84,test1,3,0.556865899998229,-50.0
7,wby,m,23,r,2,(121.76378772032346, -121.76378772032352),28,25,4,yes,x,5,x,0.48977930001274217,1,85,test1,3,0.48989530000835657,-20.0
7,wby,m,23,r,2,(121.76378772032349, 121.76378772032349),22,3,1,no,m,6,m,1.2265380000026198,1,86,test1,3,1.2266414999903645,-20.0
7,wby,m,23,r,2,(1.0544208940658713e-14, 172.20000000000002),23,25,4,no,m,6,m,0.48668099999486003,1,87,test1,3,0.48698139999760315,-20.0
7,wby,m,23,r,2,(121.76378772032349, 121.76378772032349),22,-5,12,yes,x,5,m,0.44440699998813216,0,88,test1,3,0.4446530999994138,-50.0
7,wby,m,23,r,2,(121.76378772032346, -121.76378772032352),28,-3,11,yes,x,5,m,0.6104498999920906,0,89,test1,3,0.6105616999993799,-48.0
7,wby,m,23,r,2,(-121.76378772032348, 121.76378772032349),24,25,4,yes,x,5,x,0.40808470000047237,1,90,test1,3,0.40825769999355543,-20.0
7,wby,m,23,r,2,(-3.163262682197613e-14, -172.20000000000002),27,-7,13,yes,x,5,x,0.3762784999998985,1,91,test1,3,0.37638100000913255,-52.0
7,wby,m,23,r,2,(-3.163262682197613e-14, -172.20000000000002),27,7,3,yes,x,5,x,0.39452739999978803,1,92,test1,3,0.3948065000004135,-38.0
7,wby,m,23,r,2,(-121.76378772032348, 121.76378772032349),24,3,1,yes,x,5,x,0.35864890000084415,1,93,test1,3,0.3588408000068739,-42.0
7,wby,m,23,r,2,(121.76378772032346, -121.76378772032352),28,-7,13,no,m,6,m,0.6249433999910252,1,94,test1,3,0.6250712000037311,-42.0
7,wby,m,23,r,2,(121.76378772032349, 121.76378772032349),22,25,4,yes,x,5,x,0.5212707000027876,1,95,test1,3,0.5213862000091467,-20.0
7,wby,m,23,r,2,(-121.76378772032348, 121.76378772032349),24,-7,13,yes,x,5,x,0.6089745000062976,1,96,test1,3,0.6090879999974277,-52.0
7,wby,m,23,r,2,(121.76378772032349, 121.76378772032349),22,5,2,no,m,6,m,0.5806308000028366,1,1,test2,3,0.5808419000095455,-52.0
7,wby,m,23,r,2,(121.76378772032349, 121.76378772032349),22,-7,13,yes,x,5,x,0.8418014999915613,1,2,test2,3,0.8424416000052588,-52.0
7,wby,m,23,r,2,(172.20000000000002, 0.0),21,-3,11,yes,x,5,m,0.7194089999975404,0,3,test2,3,0.7195553999918047,-48.0
7,wby,m,23,r,2,(-121.76378772032352, -121.76378772032348),26,5,2,yes,x,5,x,1.017050599999493,1,4,test2,3,1.0171869000041625,-40.0
7,wby,m,23,r,2,(-121.76378772032348, 121.76378772032349),24,-7,13,yes,x,5,x,0.6104638000106206,1,5,test2,3,0.6107632999919588,-52.0
7,wby,m,23,r,2,(121.76378772032349, 121.76378772032349),22,-25,14,yes,x,5,x,0.5505448999902001,1,6,test2,3,0.5507189000054495,-70.0
7,wby,m,23,r,2,(121.76378772032349, 121.76378772032349),22,-5,12,no,m,6,m,0.6544705999986036,1,7,test2,3,0.6547732000035467,-70.0
7,wby,m,23,r,2,(121.76378772032349, 121.76378772032349),22,5,2,yes,x,5,m,0.4642776000109734,0,8,test2,3,0.46446870001091156,-40.0
7,wby,m,23,r,2,(121.76378772032349, 121.76378772032349),22,-7,13,yes,x,5,x,0.5444466000044486,1,9,test2,3,0.5446042999974452,-52.0
7,wby,m,23,r,2,(121.76378772032346, -121.76378772032352),28,-7,13,yes,x,5,m,0.6483202999952482,0,10,test2,3,0.6484219999983907,-52.0
7,wby,m,23,r,2,(-121.76378772032352, -121.76378772032348),26,3,1,yes,x,5,m,1.0225536999932956,0,11,test2,3,1.0227645999984816,-42.0
7,wby,m,23,r,2,(-121.76378772032352, -121.76378772032348),26,5,2,yes,x,5,x,0.9749348000041209,1,12,test2,3,0.9751176999998279,-40.0
7,wby,m,23,r,2,(172.20000000000002, 0.0),21,3,1,yes,x,5,x,0.8259878000098979,1,13,test2,3,0.8260881999885896,-42.0
7,wby,m,23,r,2,(-121.76378772032348, 121.76378772032349),24,7,3,yes,x,5,x,0.5401303999969969,1,14,test2,3,0.5406203000020469,-38.0
7,wby,m,23,r,2,(-121.76378772032348, 121.76378772032349),24,-5,12,yes,x,5,x,0.726239000010537,1,15,test2,3,0.726780900004087,-50.0
7,wby,m,23,r,2,(1.0544208940658713e-14, 172.20000000000002),23,-3,11,yes,x,5,m,1.238907000006293,0,16,test2,3,1.239030199998524,-48.0
7,wby,m,23,r,2,(-3.163262682197613e-14, -172.20000000000002),27,-5,12,yes,x,5,x,0.681574800008093,1,17,test2,3,0.6816967000049772,-50.0
7,wby,m,23,r,2,(-3.163262682197613e-14, -172.20000000000002),27,-3,11,yes,x,5,x,1.3519114000082482,1,18,test2,3,1.3520379999972647,-48.0
7,wby,m,23,r,2,(121.76378772032346, -121.76378772032352),28,-25,14,yes,x,5,x,0.5206397000001743,1,19,test2,3,0.520736799997394,-70.0
7,wby,m,23,r,2,(1.0544208940658713e-14, 172.20000000000002),23,-7,13,no,m,6,m,1.0487184999947203,1,20,test2,3,1.0490430000063498,-70.0
7,wby,m,23,r,2,(-3.163262682197613e-14, -172.20000000000002),27,25,4,yes,x,5,x,1.3361058000009507,1,21,test2,3,1.3362454000016442,-20.0
7,wby,m,23,r,2,(-121.76378772032352, -121.76378772032348),26,25,4,no,m,6,m,0.8127700000040932,1,22,test2,3,0.8130865999992238,-20.0
7,wby,m,23,r,2,(-3.163262682197613e-14, -172.20000000000002),27,3,1,yes,x,5,x,1.0345302000059746,1,23,test2,3,1.0346752999903401,-42.0
7,wby,m,23,r,2,(-3.163262682197613e-14, -172.20000000000002),27,-7,13,no,m,6,m,0.6984862999961479,1,24,test2,3,0.6986306999897351,-42.0
7,wby,m,23,r,2,(1.0544208940658713e-14, 172.20000000000002),23,3,1,no,m,6,m,0.6228498999989824,1,25,test2,3,0.6230647000047611,-42.0
7,wby,m,23,r,2,(-121.76378772032352, -121.76378772032348),26,5,2,no,m,6,m,0.44648690000758506,1,26,test2,3,0.4471082999953069,-42.0
7,wby,m,23,r,2,(172.20000000000002, 0.0),21,25,4,yes,x,5,x,0.7446801999903983,1,27,test2,3,0.7450196999998298,-20.0
7,wby,m,23,r,2,(-172.20000000000002, 2.1088417881317425e-14),25,-3,11,no,m,6,m,0.6924310000031255,1,28,test2,3,0.6927126999944448,-20.0
7,wby,m,23,r,2,(-121.76378772032348, 121.76378772032349),24,5,2,yes,x,5,x,0.6924099999887403,1,29,test2,3,0.6925931000005221,-40.0
7,wby,m,23,r,2,(121.76378772032346, -121.76378772032352),28,-5,12,yes,x,5,m,0.7673682000022382,0,30,test2,3,0.7676656999974512,-50.0
7,wby,m,23,r,2,(121.76378772032346, -121.76378772032352),28,25,4,yes,x,5,x,0.4583020999998553,1,31,test2,3,0.4587631999893347,-20.0
7,wby,m,23,r,2,(121.76378772032349, 121.76378772032349),22,25,4,yes,x,5,x,0.5651868999993894,1,32,test2,3,0.5653643000114243,-20.0
7,wby,m,23,r,2,(1.0544208940658713e-14, 172.20000000000002),23,5,2,yes,x,5,x,1.0161069000023417,1,33,test2,3,1.0163759999995818,-40.0
7,wby,m,23,r,2,(121.76378772032349, 121.76378772032349),22,7,3,yes,x,5,x,0.5612385000131326,1,34,test2,3,0.5615645000070799,-38.0
7,wby,m,23,r,2,(-121.76378772032352, -121.76378772032348),26,7,3,yes,x,5,x,0.803074800001923,1,35,test2,3,0.803312600008212,-38.0
7,wby,m,23,r,2,(172.20000000000002, 0.0),21,5,2,yes,x,5,x,0.8994113000080688,1,36,test2,3,0.8995145000080811,-40.0
7,wby,m,23,r,2,(-172.20000000000002, 2.1088417881317425e-14),25,-5,12,yes,x,5,x,0.5819795999996131,1,37,test2,3,0.5822690000059083,-50.0
7,wby,m,23,r,2,(121.76378772032349, 121.76378772032349),22,-25,14,yes,x,5,x,0.6025380000064615,1,38,test2,3,0.6026370000035968,-70.0
7,wby,m,23,r,2,(1.0544208940658713e-14, 172.20000000000002),23,3,1,yes,x,5,x,0.3853008000005502,1,39,test2,3,0.38569349999306723,-42.0
7,wby,m,23,r,2,(-121.76378772032352, -121.76378772032348),26,-5,12,no,m,6,x,0.772294199996395,0,40,test2,3,0.7724144999956479,-42.0
7,wby,m,23,r,2,(1.0544208940658713e-14, 172.20000000000002),23,-3,11,yes,x,5,m,0.650113900002907,0,41,test2,3,0.6506522000127006,-48.0
7,wby,m,23,r,2,(-172.20000000000002, 2.1088417881317425e-14),25,7,3,yes,x,5,m,0.6539711000077659,0,42,test2,3,0.654131100003724,-38.0
7,wby,m,23,r,2,(172.20000000000002, 0.0),21,-5,12,yes,x,5,x,0.567831100008334,1,43,test2,3,0.5680100999888964,-50.0
7,wby,m,23,r,2,(172.20000000000002, 0.0),21,-7,13,no,m,6,x,1.83959020000475,0,44,test2,3,1.839922099999967,-50.0
7,wby,m,23,r,2,(-121.76378772032352, -121.76378772032348),26,25,4,yes,x,5,m,0.34103589999722317,0,45,test2,3,0.3412631999963196,-20.0
7,wby,m,23,r,2,(1.0544208940658713e-14, 172.20000000000002),23,7,3,yes,x,5,x,0.5546784999896772,1,46,test2,3,0.5549753999948734,-38.0
7,wby,m,23,r,2,(121.76378772032346, -121.76378772032352),28,25,4,no,m,6,m,0.8309364000015194,1,47,test2,3,0.8310360000032233,-38.0
7,wby,m,23,r,2,(-121.76378772032348, 121.76378772032349),24,3,1,yes,x,5,x,0.7501179999962915,1,48,test2,3,0.7505416999920271,-42.0
7,wby,m,23,r,2,(-172.20000000000002, 2.1088417881317425e-14),25,-3,11,yes,x,5,x,0.6375428000028478,1,49,test2,3,0.6377807999961078,-48.0
7,wby,m,23,r,2,(-121.76378772032352, -121.76378772032348),26,-25,14,yes,x,5,x,0.40857020000112243,1,50,test2,3,0.40868399999453686,-70.0
7,wby,m,23,r,2,(-121.76378772032352, -121.76378772032348),26,-25,14,no,m,6,x,0.335829300005571,0,51,test2,3,0.33602740000060294,-70.0
7,wby,m,23,r,2,(1.0544208940658713e-14, 172.20000000000002),23,-7,13,yes,x,5,m,0.6906674000056228,0,52,test2,3,0.6907633000082569,-52.0
7,wby,m,23,r,2,(-3.163262682197613e-14, -172.20000000000002),27,7,3,yes,x,5,x,0.662143500012462,1,53,test2,3,0.6622543000121368,-38.0
7,wby,m,23,r,2,(-172.20000000000002, 2.1088417881317425e-14),25,25,4,yes,x,5,x,0.4934817000030307,1,54,test2,3,0.49358049999864306,-20.0
7,wby,m,23,r,2,(-172.20000000000002, 2.1088417881317425e-14),25,-7,13,yes,x,5,m,0.6640133999899263,0,55,test2,3,0.6643195999931777,-52.0
7,wby,m,23,r,2,(121.76378772032349, 121.76378772032349),22,-3,11,no,m,6,m,0.917109400004847,1,56,test2,3,0.9174572000047192,-52.0
7,wby,m,23,r,2,(-3.163262682197613e-14, -172.20000000000002),27,-7,13,yes,x,5,x,0.8587278000049992,1,57,test2,3,0.8589563999994425,-52.0
7,wby,m,23,r,2,(-121.76378772032348, 121.76378772032349),24,-25,14,yes,x,5,x,0.49351970000134315,1,58,test2,3,0.4939496000006329,-70.0
7,wby,m,23,r,2,(-172.20000000000002, 2.1088417881317425e-14),25,25,4,no,m,6,m,0.6199302000022726,1,59,test2,3,0.6200436999934027,-70.0
7,wby,m,23,r,2,(121.76378772032346, -121.76378772032352),28,5,2,yes,x,5,x,0.740822499996284,1,60,test2,3,0.7415194000059273,-40.0
7,wby,m,23,r,2,(1.0544208940658713e-14, 172.20000000000002),23,3,1,yes,x,5,m,0.8725650999986101,0,61,test2,3,0.8726888999954099,-42.0
7,wby,m,23,r,2,(-121.76378772032352, -121.76378772032348),26,-7,13,yes,x,5,x,0.6009543000109261,1,62,test2,3,0.6010599000001093,-52.0
7,wby,m,23,r,2,(121.76378772032346, -121.76378772032352),28,7,3,yes,x,5,x,0.8914659000001848,1,63,test2,3,0.891701299988199,-38.0
7,wby,m,23,r,2,(-121.76378772032348, 121.76378772032349),24,-5,12,yes,x,5,x,0.47865720000118017,1,64,test2,3,0.47875520000525285,-50.0
7,wby,m,23,r,2,(1.0544208940658713e-14, 172.20000000000002),23,5,2,no,m,6,x,0.5372714999975869,0,65,test2,3,0.5375843999936478,-50.0
7,wby,m,23,r,2,(1.0544208940658713e-14, 172.20000000000002),23,25,4,yes,x,5,x,0.44954329999745823,1,66,test2,3,0.4497823999990942,-20.0
7,wby,m,23,r,2,(-3.163262682197613e-14, -172.20000000000002),27,3,1,no,m,6,m,0.6027425000065705,1,67,test2,3,0.602880099992035,-20.0
7,wby,m,23,r,2,(-3.163262682197613e-14, -172.20000000000002),27,7,3,no,m,6,m,0.48422820000268985,1,68,test2,3,0.48461569999926724,-20.0
7,wby,m,23,r,2,(-121.76378772032348, 121.76378772032349),24,3,1,no,m,6,m,0.6794945000001462,1,69,test2,3,0.6796346000046469,-20.0
7,wby,m,23,r,2,(121.76378772032346, -121.76378772032352),28,-25,14,yes,x,5,x,0.7395082000002731,1,70,test2,3,0.7397931000014069,-70.0
7,wby,m,23,r,2,(-3.163262682197613e-14, -172.20000000000002),27,-25,14,yes,x,5,x,0.5308242000028258,1,71,test2,3,0.5309915999969235,-70.0
7,wby,m,23,r,2,(-172.20000000000002, 2.1088417881317425e-14),25,-7,13,no,m,6,m,0.7827771000011126,1,72,test2,3,0.7830686999950558,-70.0
7,wby,m,23,r,2,(-3.163262682197613e-14, -172.20000000000002),27,5,2,yes,x,5,m,0.601929000011296,0,73,test2,3,0.6022213999967789,-40.0
7,wby,m,23,r,2,(121.76378772032349, 121.76378772032349),22,7,3,yes,x,5,x,0.577070500003174,1,74,test2,3,0.5772902000026079,-38.0
7,wby,m,23,r,2,(121.76378772032346, -121.76378772032352),28,-7,13,yes,x,5,x,0.6166689000092447,1,75,test2,3,0.6169577000109712,-52.0
7,wby,m,23,r,2,(1.0544208940658713e-14, 172.20000000000002),23,-5,12,yes,x,5,x,0.4730366000003414,1,76,test2,3,0.47325439999985974,-50.0
7,wby,m,23,r,2,(-3.163262682197613e-14, -172.20000000000002),27,-25,14,yes,x,5,x,0.4515508000040427,1,77,test2,3,0.45177469999180175,-70.0
7,wby,m,23,r,2,(1.0544208940658713e-14, 172.20000000000002),23,25,4,yes,x,5,x,0.3850874999916414,1,78,test2,3,0.3852160999958869,-20.0
7,wby,m,23,r,2,(-121.76378772032352, -121.76378772032348),26,-3,11,yes,x,5,m,0.9333425000077114,0,79,test2,3,0.9334453000046778,-48.0
7,wby,m,23,r,2,(-172.20000000000002, 2.1088417881317425e-14),25,25,4,yes,x,5,x,0.5022716999956174,1,80,test2,3,0.5024176000006264,-20.0
7,wby,m,23,r,2,(-121.76378772032352, -121.76378772032348),26,-3,11,no,m,6,m,0.6395862999925157,1,81,test2,3,0.6396868000010727,-20.0
7,wby,m,23,r,2,(-3.163262682197613e-14, -172.20000000000002),27,-5,12,yes,x,5,m,0.47871560000930913,0,82,test2,3,0.4788148999941768,-50.0
7,wby,m,23,r,2,(-3.163262682197613e-14, -172.20000000000002),27,5,2,no,m,6,m,0.9121569000126328,1,83,test2,3,0.9122534999914933,-50.0
7,wby,m,23,r,2,(-172.20000000000002, 2.1088417881317425e-14),25,-7,13,yes,x,5,x,0.7046259000053396,1,84,test2,3,0.7047492999990936,-52.0
7,wby,m,23,r,2,(172.20000000000002, 0.0),21,-3,11,no,m,6,m,0.9048451999988174,1,85,test2,3,0.9051680999982636,-52.0
7,wby,m,23,r,2,(-3.163262682197613e-14, -172.20000000000002),27,25,4,no,m,6,m,0.5242848999914713,1,86,test2,3,0.5246694999950705,-52.0
7,wby,m,23,r,2,(-3.163262682197613e-14, -172.20000000000002),27,-3,11,yes,x,5,m,0.8840112000034424,0,87,test2,3,0.8845793000073172,-48.0
7,wby,m,23,r,2,(-172.20000000000002, 2.1088417881317425e-14),25,3,1,yes,x,5,m,1.0573249000008218,0,88,test2,3,1.0574942999955965,-42.0
7,wby,m,23,r,2,(-121.76378772032348, 121.76378772032349),24,-25,14,yes,x,5,x,0.5446189000067534,1,89,test2,3,0.5453273000021,-70.0
7,wby,m,23,r,2,(121.76378772032349, 121.76378772032349),22,3,1,yes,x,5,m,0.7985972000024049,0,90,test2,3,0.7989961999992374,-42.0
7,wby,m,23,r,2,(121.76378772032349, 121.76378772032349),22,-7,13,no,m,6,m,0.7216895000019576,1,91,test2,3,0.7218979000026593,-42.0
7,wby,m,23,r,2,(172.20000000000002, 0.0),21,-3,11,yes,x,5,m,0.6070871999982046,0,92,test2,3,0.6074105000006966,-48.0
7,wby,m,23,r,2,(-3.163262682197613e-14, -172.20000000000002),27,25,4,yes,x,5,x,0.5618701000057627,1,93,test2,3,0.5620335999992676,-20.0
7,wby,m,23,r,2,(-121.76378772032348, 121.76378772032349),24,-5,12,no,m,6,m,0.983728000006522,1,94,test2,3,0.9841172000014922,-20.0
7,wby,m,23,r,2,(-172.20000000000002, 2.1088417881317425e-14),25,-25,14,yes,x,5,x,0.515833700002986,1,95,test2,3,0.5159370000037597,-70.0
7,wby,m,23,r,2,(172.20000000000002, 0.0),21,25,4,no,m,6,m,0.8421892000042135,1,96,test2,3,0.8425604000076419,-70.0
7,wby,m,23,r,2,(-172.20000000000002, 2.1088417881317425e-14),25,-25,14,yes,x,5,x,0.6228052999940701,1,1,test1,4,0.6229976000031456,-70.0
7,wby,m,23,r,2,(-3.163262682197613e-14, -172.20000000000002),27,-3,11,no,m,6,m,0.6794194999965839,1,2,test1,4,0.6795268999994732,-70.0
7,wby,m,23,r,2,(121.76378772032349, 121.76378772032349),22,7,3,no,m,6,m,0.6655520000058459,1,3,test1,4,0.6656499000091571,-70.0
7,wby,m,23,r,2,(1.0544208940658713e-14, 172.20000000000002),23,-7,13,yes,x,5,m,0.5197504999960074,0,4,test1,4,0.5200461000058567,-52.0
7,wby,m,23,r,2,(-172.20000000000002, 2.1088417881317425e-14),25,7,3,yes,x,5,x,0.5173556999943685,1,5,test1,4,0.5174784999981057,-38.0
7,wby,m,23,r,2,(172.20000000000002, 0.0),21,3,1,yes,x,5,m,0.37441479999688454,0,6,test1,4,0.37453780000214465,-42.0
7,wby,m,23,r,2,(172.20000000000002, 0.0),21,-25,14,yes,x,5,x,0.5581243999913568,1,7,test1,4,0.5583267999900272,-70.0
7,wby,m,23,r,2,(121.76378772032346, -121.76378772032352),28,7,3,yes,x,5,x,0.41295070000342093,1,8,test1,4,0.4130775999947218,-38.0
7,wby,m,23,r,2,(121.76378772032346, -121.76378772032352),28,7,3,no,m,6,x,0.7535145000001648,0,9,test1,4,0.7537887999933446,-38.0
7,wby,m,23,r,2,(121.76378772032346, -121.76378772032352),28,3,1,yes,x,5,x,0.4764098000014201,1,10,test1,4,0.4766257000010228,-42.0
7,wby,m,23,r,2,(172.20000000000002, 0.0),21,5,2,no,m,6,m,0.6752976999996463,1,11,test1,4,0.6754108000022825,-42.0
7,wby,m,23,r,2,(-121.76378772032348, 121.76378772032349),24,25,4,yes,x,5,x,0.5567296000081114,1,12,test1,4,0.5570405999897048,-20.0
7,wby,m,23,r,2,(1.0544208940658713e-14, 172.20000000000002),23,5,2,yes,x,5,x,0.7168688000092516,1,13,test1,4,0.717160000000149,-40.0
7,wby,m,23,r,2,(-172.20000000000002, 2.1088417881317425e-14),25,3,1,yes,x,5,x,1.0570320000115316,1,14,test1,4,1.0573359000118216,-42.0
7,wby,m,23,r,2,(-121.76378772032348, 121.76378772032349),24,-3,11,no,m,6,x,0.8840229000052204,0,15,test1,4,0.8841419999953359,-42.0
7,wby,m,23,r,2,(-3.163262682197613e-14, -172.20000000000002),27,5,2,yes,x,5,x,0.6650006999989273,1,16,test1,4,0.6652009000099497,-40.0
7,wby,m,23,r,2,(-121.76378772032352, -121.76378772032348),26,-3,11,yes,x,5,m,0.6683886000100756,0,17,test1,4,0.6687154999963241,-48.0
7,wby,m,23,r,2,(-172.20000000000002, 2.1088417881317425e-14),25,-25,14,no,m,6,m,0.699023400011356,1,18,test1,4,0.6992717999964952,-48.0
7,wby,m,23,r,2,(121.76378772032349, 121.76378772032349),22,-25,14,no,m,6,x,0.7684773999935715,0,19,test1,4,0.7687583999941126,-48.0
7,wby,m,23,r,2,(121.76378772032346, -121.76378772032352),28,5,2,no,m,6,m,0.6633456999988994,1,20,test1,4,0.6637800999887986,-48.0
7,wby,m,23,r,2,(172.20000000000002, 0.0),21,-7,13,yes,x,5,x,0.7670189000054961,1,21,test1,4,0.7671797000075458,-52.0
7,wby,m,23,r,2,(-121.76378772032348, 121.76378772032349),24,7,3,no,m,6,m,1.0403808999981266,1,22,test1,4,1.0407053000089945,-52.0
7,wby,m,23,r,2,(121.76378772032349, 121.76378772032349),22,-5,12,yes,x,5,m,1.1271940000005998,0,23,test1,4,1.1275617000064813,-50.0
7,wby,m,23,r,2,(121.76378772032346, -121.76378772032352),28,-5,12,yes,x,5,x,0.6558471999887843,1,24,test1,4,0.6559787000005599,-50.0
7,wby,m,23,r,2,(-172.20000000000002, 2.1088417881317425e-14),25,5,2,yes,x,5,x,0.6262477000127546,1,25,test1,4,0.6267212999955518,-40.0
7,wby,m,23,r,2,(-121.76378772032348, 121.76378772032349),24,5,2,no,m,6,x,0.7507934000022942,0,26,test1,4,0.751083800001652,-40.0
7,wby,m,23,r,2,(1.0544208940658713e-14, 172.20000000000002),23,-3,11,no,m,6,x,0.6307321000058437,0,27,test1,4,0.6308680999936769,-40.0
7,wby,m,23,r,2,(121.76378772032346, -121.76378772032352),28,-3,11,no,m,6,x,0.49773350000032224,0,28,test1,4,0.49786609999137,-40.0
7,wby,m,23,r,2,(-172.20000000000002, 2.1088417881317425e-14),25,5,2,no,m,6,x,0.3275586999952793,0,29,test1,4,0.3280170000070939,-40.0
7,wby,m,23,r,2,(172.20000000000002, 0.0),21,-5,12,yes,x,5,x,0.5983097999996971,1,30,test1,4,0.5988533999916399,-50.0
7,wby,m,23,r,2,(-172.20000000000002, 2.1088417881317425e-14),25,7,3,no,m,6,x,0.2566755000007106,0,31,test1,4,0.25678330000664573,-50.0
7,wby,m,23,r,2,(172.20000000000002, 0.0),21,7,3,no,m,6,x,0.39451819998794235,0,32,test1,4,0.39475429999583866,-50.0
7,wby,m,23,r,2,(121.76378772032349, 121.76378772032349),22,25,4,no,m,6,m,0.7804566999984672,1,33,test1,4,0.780589100002544,-50.0
7,wby,m,23,r,2,(-121.76378772032352, -121.76378772032348),26,25,4,yes,x,5,x,0.5325730999902589,1,34,test1,4,0.5326862999936566,-20.0
7,wby,m,23,r,2,(121.76378772032349, 121.76378772032349),22,3,1,yes,x,5,m,0.6600823000044329,0,35,test1,4,0.6601916999934474,-42.0
7,wby,m,23,r,2,(-121.76378772032352, -121.76378772032348),26,-25,14,yes,x,5,x,0.5125134999980219,1,36,test1,4,0.5131389999878593,-70.0
7,wby,m,23,r,2,(-121.76378772032352, -121.76378772032348),26,7,3,yes,x,5,x,0.5650421000027563,1,37,test1,4,0.5655770000012126,-38.0
7,wby,m,23,r,2,(1.0544208940658713e-14, 172.20000000000002),23,-25,14,yes,x,5,x,0.5215422999899602,1,38,test1,4,0.5226609999954235,-70.0
7,wby,m,23,r,2,(172.20000000000002, 0.0),21,7,3,yes,x,5,x,0.6121203000075184,1,39,test1,4,0.612216499997885,-38.0
7,wby,m,23,r,2,(-121.76378772032348, 121.76378772032349),24,7,3,yes,x,5,x,0.4858313000004273,1,40,test1,4,0.48598780001339037,-38.0
7,wby,m,23,r,2,(-121.76378772032352, -121.76378772032348),26,-5,12,yes,x,5,x,0.4359703000081936,1,41,test1,4,0.43621849999180995,-50.0
7,wby,m,23,r,2,(-172.20000000000002, 2.1088417881317425e-14),25,-5,12,yes,x,5,x,0.613098000001628,1,42,test1,4,0.6132657000125619,-50.0
7,wby,m,23,r,2,(1.0544208940658713e-14, 172.20000000000002),23,7,3,yes,x,5,x,0.5858107999956701,1,43,test1,4,0.5867165999952704,-38.0
7,wby,m,23,r,2,(121.76378772032346, -121.76378772032352),28,-5,12,no,m,6,m,0.7432927000045311,1,44,test1,4,0.7436157000047388,-38.0
7,wby,m,23,r,2,(121.76378772032346, -121.76378772032352),28,-25,14,no,m,6,m,0.5879278999927919,1,45,test1,4,0.588516100004199,-38.0
7,wby,m,23,r,2,(172.20000000000002, 0.0),21,5,2,yes,x,5,m,0.43507320000207983,0,46,test1,4,0.43516779999481514,-40.0
7,wby,m,23,r,2,(121.76378772032349, 121.76378772032349),22,-3,11,yes,x,5,x,0.9067425999965053,1,47,test1,4,0.9068547999922885,-48.0
7,wby,m,23,r,2,(-3.163262682197613e-14, -172.20000000000002),27,-25,14,no,m,6,x,0.9059194000001298,0,48,test1,4,0.9061125999869546,-48.0
7,wby,m,23,r,2,(-3.163262682197613e-14, -172.20000000000002),27,-5,12,no,m,6,m,0.5445015000004787,1,49,test1,4,0.5446029000013368,-48.0
7,wby,m,23,r,2,(121.76378772032346, -121.76378772032352),28,-3,11,yes,x,5,m,0.5479529999865917,0,50,test1,4,0.5480508000036934,-48.0
7,wby,m,23,r,2,(-121.76378772032348, 121.76378772032349),24,-3,11,yes,x,5,x,0.6288334999990184,1,51,test1,4,0.6289818000077503,-48.0
7,wby,m,23,r,2,(121.76378772032349, 121.76378772032349),22,-3,11,yes,x,5,x,0.6896421999990707,1,52,test1,4,0.6900065000081668,-48.0
7,wby,m,23,r,2,(172.20000000000002, 0.0),21,-25,14,no,m,6,m,0.9936514000000898,1,53,test1,4,0.9938311000005342,-48.0
7,wby,m,23,r,2,(172.20000000000002, 0.0),21,-7,13,yes,x,5,x,0.5510248999926262,1,54,test1,4,0.5512730000045849,-52.0
7,wby,m,23,r,2,(172.20000000000002, 0.0),21,25,4,yes,x,5,x,0.46867960000236053,1,55,test1,4,0.4690896999964025,-20.0
7,wby,m,23,r,2,(172.20000000000002, 0.0),21,7,3,yes,x,5,x,0.5845122000027914,1,56,test1,4,0.5846109999984037,-38.0
7,wby,m,23,r,2,(-121.76378772032348, 121.76378772032349),24,-25,14,no,m,6,x,0.5732532999973046,0,57,test1,4,0.5735329999879468,-38.0
7,wby,m,23,r,2,(-121.76378772032348, 121.76378772032349),24,5,2,yes,x,5,x,0.5574419000040507,1,58,test1,4,0.5575750999996671,-40.0
7,wby,m,23,r,2,(121.76378772032349, 121.76378772032349),22,5,2,yes,x,5,x,0.7509045999904629,1,59,test1,4,0.7512653000012506,-40.0
7,wby,m,23,r,2,(121.76378772032346, -121.76378772032352),28,5,2,yes,x,5,x,0.6140271000040229,1,60,test1,4,0.6144089000008535,-40.0
7,wby,m,23,r,2,(-121.76378772032352, -121.76378772032348),26,3,1,yes,x,5,x,0.40407289999711793,1,61,test1,4,0.4043797999911476,-42.0
7,wby,m,23,r,2,(121.76378772032346, -121.76378772032352),28,3,1,yes,x,5,x,0.6251740000006976,1,62,test1,4,0.6257571000023745,-42.0
7,wby,m,23,r,2,(-3.163262682197613e-14, -172.20000000000002),27,3,1,yes,x,5,x,0.40097529999911785,1,63,test1,4,0.4010765999992145,-42.0
7,wby,m,23,r,2,(-121.76378772032352, -121.76378772032348),26,-7,13,yes,x,5,x,0.3149537999997847,1,64,test1,4,0.3151757000014186,-52.0
7,wby,m,23,r,2,(-172.20000000000002, 2.1088417881317425e-14),25,3,1,no,m,6,x,0.42296640000131447,0,65,test1,4,0.4232741000014357,-52.0
7,wby,m,23,r,2,(172.20000000000002, 0.0),21,-5,12,no,m,6,m,0.9570997999981046,1,66,test1,4,0.9572354999982053,-52.0
7,wby,m,23,r,2,(-172.20000000000002, 2.1088417881317425e-14),25,-5,12,no,m,6,m,0.8516189999936614,1,67,test1,4,0.8517185999953654,-52.0
7,wby,m,23,r,2,(1.0544208940658713e-14, 172.20000000000002),23,7,3,no,m,6,m,0.6083495999919251,1,68,test1,4,0.6086894000036409,-52.0
7,wby,m,23,r,2,(-121.76378772032352, -121.76378772032348),26,-7,13,no,m,6,m,0.463314900000114,1,69,test1,4,0.4634137999964878,-52.0
7,wby,m,23,r,2,(1.0544208940658713e-14, 172.20000000000002),23,-5,12,no,m,6,m,0.6752374999923632,1,70,test1,4,0.6754524999996647,-52.0
7,wby,m,23,r,2,(-121.76378772032348, 121.76378772032349),24,25,4,no,m,6,m,0.7458279999991646,1,71,test1,4,0.7461566999991192,-52.0
7,wby,m,23,r,2,(172.20000000000002, 0.0),21,3,1,no,m,6,m,0.33425159999751486,1,72,test1,4,0.33445429999846965,-52.0
7,wby,m,23,r,2,(172.20000000000002, 0.0),21,-25,14,yes,x,5,x,0.5565579000103753,1,73,test1,4,0.5568459000060102,-70.0
7,wby,m,23,r,2,(-172.20000000000002, 2.1088417881317425e-14),25,-3,11,yes,x,5,m,0.566932400004589,0,74,test1,4,0.5671660999942105,-48.0
7,wby,m,23,r,2,(-121.76378772032352, -121.76378772032348),26,3,1,no,m,6,m,0.7887254999950528,1,75,test1,4,0.7890114000038011,-48.0
7,wby,m,23,r,2,(1.0544208940658713e-14, 172.20000000000002),23,-25,14,yes,x,5,x,0.5372222999867518,1,76,test1,4,0.5374611000006553,-70.0
7,wby,m,23,r,2,(1.0544208940658713e-14, 172.20000000000002),23,-25,14,no,m,6,m,0.4988434000115376,1,77,test1,4,0.49900859998888336,-70.0
7,wby,m,23,r,2,(-172.20000000000002, 2.1088417881317425e-14),25,5,2,yes,x,5,x,0.6017563999921549,1,78,test1,4,0.6019873000041116,-40.0
7,wby,m,23,r,2,(-121.76378772032348, 121.76378772032349),24,-3,11,yes,x,5,m,0.6321897999878274,0,79,test1,4,0.632380800001556,-48.0
7,wby,m,23,r,2,(1.0544208940658713e-14, 172.20000000000002),23,-5,12,yes,x,5,x,0.558632200001739,1,80,test1,4,0.559018499989179,-50.0
7,wby,m,23,r,2,(-121.76378772032348, 121.76378772032349),24,-7,13,no,m,6,m,0.5749112000048626,1,81,test1,4,0.5750242999929469,-50.0
7,wby,m,23,r,2,(121.76378772032346, -121.76378772032352),28,3,1,no,m,6,m,0.5967163000022992,1,82,test1,4,0.5975937000039266,-50.0
7,wby,m,23,r,2,(-121.76378772032352, -121.76378772032348),26,7,3,no,m,6,m,0.6889939999964554,1,83,test1,4,0.6891544000100112,-50.0
7,wby,m,23,r,2,(-121.76378772032352, -121.76378772032348),26,-5,12,yes,x,5,m,0.5108042000065325,0,84,test1,4,0.5113609999971231,-50.0
7,wby,m,23,r,2,(121.76378772032346, -121.76378772032352),28,25,4,yes,x,5,m,0.7766856000089319,0,85,test1,4,0.7768731000105618,-20.0
7,wby,m,23,r,2,(121.76378772032349, 121.76378772032349),22,3,1,no,m,6,m,0.2106635000091046,1,86,test1,4,0.21075710000877734,-20.0
7,wby,m,23,r,2,(1.0544208940658713e-14, 172.20000000000002),23,25,4,no,m,6,m,0.35367939999559894,1,87,test1,4,0.3539580000069691,-20.0
7,wby,m,23,r,2,(121.76378772032349, 121.76378772032349),22,-5,12,yes,x,5,m,0.46142069999768864,0,88,test1,4,0.4616273999999976,-50.0
7,wby,m,23,r,2,(121.76378772032346, -121.76378772032352),28,-3,11,yes,x,5,x,0.3065271999948891,1,89,test1,4,0.3068130000028759,-48.0
7,wby,m,23,r,2,(-121.76378772032348, 121.76378772032349),24,25,4,yes,x,5,x,0.42886729999736417,1,90,test1,4,0.4295899999997346,-20.0
7,wby,m,23,r,2,(-3.163262682197613e-14, -172.20000000000002),27,-7,13,yes,x,5,m,0.8858870999974897,0,91,test1,4,0.8864215000066906,-52.0
7,wby,m,23,r,2,(-3.163262682197613e-14, -172.20000000000002),27,7,3,yes,x,5,x,0.7526221000007354,1,92,test1,4,0.7528412999963621,-38.0
7,wby,m,23,r,2,(-121.76378772032348, 121.76378772032349),24,3,1,yes,x,5,x,0.5130636999965645,1,93,test1,4,0.5131685999949696,-42.0
7,wby,m,23,r,2,(121.76378772032346, -121.76378772032352),28,-7,13,no,m,6,m,0.8866508000064641,1,94,test1,4,0.8870921000052476,-42.0
7,wby,m,23,r,2,(121.76378772032349, 121.76378772032349),22,25,4,yes,x,5,x,0.5949683999933768,1,95,test1,4,0.5951808999961941,-20.0
7,wby,m,23,r,2,(-121.76378772032348, 121.76378772032349),24,-7,13,yes,x,5,x,0.4690056000108598,1,96,test1,4,0.4692156000091927,-52.0
7,wby,m,23,r,2,(121.76378772032349, 121.76378772032349),22,5,2,no,m,6,m,0.611927599995397,1,1,test2,4,0.6124146999936784,-52.0
7,wby,m,23,r,2,(121.76378772032349, 121.76378772032349),22,-7,13,yes,x,5,m,0.536401699995622,0,2,test2,4,0.5368156999902567,-52.0
7,wby,m,23,r,2,(172.20000000000002, 0.0),21,-3,11,yes,x,5,x,0.5467555000068387,1,3,test2,4,0.5469901000033133,-48.0
7,wby,m,23,r,2,(-121.76378772032352, -121.76378772032348),26,5,2,yes,x,5,x,0.5692854999942938,1,4,test2,4,0.5694564000004902,-40.0
7,wby,m,23,r,2,(-121.76378772032348, 121.76378772032349),24,-7,13,yes,x,5,x,0.44759730000805575,1,5,test2,4,0.44790340001054574,-52.0
7,wby,m,23,r,2,(121.76378772032349, 121.76378772032349),22,-25,14,yes,x,5,x,0.4598456000094302,1,6,test2,4,0.45995470001071226,-70.0
7,wby,m,23,r,2,(121.76378772032349, 121.76378772032349),22,-5,12,no,m,6,x,0.5522962999966694,0,7,test2,4,0.5524471000098856,-70.0
7,wby,m,23,r,2,(121.76378772032349, 121.76378772032349),22,5,2,yes,x,5,x,0.6328309000091394,1,8,test2,4,0.63293039999553,-40.0
7,wby,m,23,r,2,(121.76378772032349, 121.76378772032349),22,-7,13,yes,x,5,x,0.5216388000117149,1,9,test2,4,0.5217497999983607,-52.0
7,wby,m,23,r,2,(121.76378772032346, -121.76378772032352),28,-7,13,yes,x,5,x,0.4818682000041008,1,10,test2,4,0.4821288000093773,-52.0
7,wby,m,23,r,2,(-121.76378772032352, -121.76378772032348),26,3,1,yes,x,5,m,0.6795235999888973,0,11,test2,4,0.6796876000007614,-42.0
7,wby,m,23,r,2,(-121.76378772032352, -121.76378772032348),26,5,2,yes,x,5,m,0.7587453000014648,0,12,test2,4,0.7590300000010757,-40.0
7,wby,m,23,r,2,(172.20000000000002, 0.0),21,3,1,yes,x,5,x,0.43789939999987837,1,13,test2,4,0.43803559998923447,-42.0
7,wby,m,23,r,2,(-121.76378772032348, 121.76378772032349),24,7,3,yes,x,5,m,0.5608196999965003,0,14,test2,4,0.5612693000002764,-38.0
7,wby,m,23,r,2,(-121.76378772032348, 121.76378772032349),24,-5,12,yes,x,5,m,0.7928708999970695,0,15,test2,4,0.7931440999964252,-50.0
7,wby,m,23,r,2,(1.0544208940658713e-14, 172.20000000000002),23,-3,11,yes,x,5,x,0.5835131000058027,1,16,test2,4,0.5836797000083607,-48.0
7,wby,m,23,r,2,(-3.163262682197613e-14, -172.20000000000002),27,-5,12,yes,x,5,x,0.5059450000117067,1,17,test2,4,0.5061730999877909,-50.0
7,wby,m,23,r,2,(-3.163262682197613e-14, -172.20000000000002),27,-3,11,yes,x,5,x,0.0614276999986032,1,18,test2,4,0.06158500000310596,-48.0
7,wby,m,23,r,2,(121.76378772032346, -121.76378772032352),28,-25,14,yes,x,5,x,0.14869980000366922,1,19,test2,4,0.14898730001004878,-70.0
7,wby,m,23,r,2,(1.0544208940658713e-14, 172.20000000000002),23,-7,13,no,m,6,x,0.27367740000772756,0,20,test2,4,0.2739086000074167,-70.0
7,wby,m,23,r,2,(-3.163262682197613e-14, -172.20000000000002),27,25,4,yes,x,5,m,0.0018840999982785434,0,21,test2,4,0.0021440999989863485,-20.0
7,wby,m,23,r,2,(-121.76378772032352, -121.76378772032348),26,25,4,no,m,6,x,0.42448960000183433,0,22,test2,4,0.4247090999997454,-20.0
7,wby,m,23,r,2,(-3.163262682197613e-14, -172.20000000000002),27,3,1,yes,x,5,x,0.821199500001967,1,23,test2,4,0.8213211000111187,-42.0
7,wby,m,23,r,2,(-3.163262682197613e-14, -172.20000000000002),27,-7,13,no,m,6,x,0.43587240000488237,0,24,test2,4,0.4359984000038821,-42.0
7,wby,m,23,r,2,(1.0544208940658713e-14, 172.20000000000002),23,3,1,no,m,6,x,0.6907661000004737,0,25,test2,4,0.6909339999983786,-42.0
7,wby,m,23,r,2,(-121.76378772032352, -121.76378772032348),26,5,2,no,m,6,m,0.6342751000047429,1,26,test2,4,0.634945500001777,-42.0
7,wby,m,23,r,2,(172.20000000000002, 0.0),21,25,4,yes,x,5,x,0.6152071000105934,1,27,test2,4,0.6154134999960661,-20.0
7,wby,m,23,r,2,(-172.20000000000002, 2.1088417881317425e-14),25,-3,11,no,m,6,x,0.6892214999970747,0,28,test2,4,0.6893415999948047,-20.0
7,wby,m,23,r,2,(-121.76378772032348, 121.76378772032349),24,5,2,yes,x,5,m,0.5083114000008209,0,29,test2,4,0.508590199999162,-40.0
7,wby,m,23,r,2,(121.76378772032346, -121.76378772032352),28,-5,12,yes,x,5,x,1.130392999999458,1,30,test2,4,1.1305074999982025,-50.0
7,wby,m,23,r,2,(121.76378772032346, -121.76378772032352),28,25,4,yes,x,5,x,0.540763999990304,1,31,test2,4,0.5412085999996634,-20.0
7,wby,m,23,r,2,(121.76378772032349, 121.76378772032349),22,25,4,yes,x,5,x,0.5408617000066442,1,32,test2,4,0.5410204000072554,-20.0
7,wby,m,23,r,2,(1.0544208940658713e-14, 172.20000000000002),23,5,2,yes,x,5,x,0.5435766000009608,1,33,test2,4,0.5440896000072826,-40.0
7,wby,m,23,r,2,(121.76378772032349, 121.76378772032349),22,7,3,yes,x,5,x,0.5612393999908818,1,34,test2,4,0.5615970999933779,-38.0
7,wby,m,23,r,2,(-121.76378772032352, -121.76378772032348),26,7,3,yes,x,5,x,0.36770000000251457,1,35,test2,4,0.3679885000019567,-38.0
7,wby,m,23,r,2,(172.20000000000002, 0.0),21,5,2,yes,x,5,x,0.37241560000984464,1,36,test2,4,0.3729590000002645,-40.0
7,wby,m,23,r,2,(-172.20000000000002, 2.1088417881317425e-14),25,-5,12,yes,x,5,x,0.4331287999957567,1,37,test2,4,0.4338043000025209,-50.0
7,wby,m,23,r,2,(121.76378772032349, 121.76378772032349),22,-25,14,yes,x,5,x,0.5643576000002213,1,38,test2,4,0.564859999998589,-70.0
7,wby,m,23,r,2,(1.0544208940658713e-14, 172.20000000000002),23,3,1,yes,x,5,x,0.666726600000402,1,39,test2,4,0.6668477000057464,-42.0
7,wby,m,23,r,2,(-121.76378772032352, -121.76378772032348),26,-5,12,no,m,6,x,0.501537099989946,0,40,test2,4,0.5017661000019871,-42.0
7,wby,m,23,r,2,(1.0544208940658713e-14, 172.20000000000002),23,-3,11,yes,x,5,m,0.8781298999965657,0,41,test2,4,0.8782302999898093,-48.0
7,wby,m,23,r,2,(-172.20000000000002, 2.1088417881317425e-14),25,7,3,yes,x,5,x,0.5460064000071725,1,42,test2,4,0.5462127999926452,-38.0
7,wby,m,23,r,2,(172.20000000000002, 0.0),21,-5,12,yes,x,5,x,0.5106631999951787,1,43,test2,4,0.5109142000001157,-50.0
7,wby,m,23,r,2,(172.20000000000002, 0.0),21,-7,13,no,m,6,x,0.5730709999916144,0,44,test2,4,0.5733832999976585,-50.0
7,wby,m,23,r,2,(-121.76378772032352, -121.76378772032348),26,25,4,yes,x,5,x,0.5245507999934489,1,45,test2,4,0.5248401999997441,-20.0
7,wby,m,23,r,2,(1.0544208940658713e-14, 172.20000000000002),23,7,3,yes,x,5,x,0.3919517999893287,1,46,test2,4,0.39215970000077505,-38.0
7,wby,m,23,r,2,(121.76378772032346, -121.76378772032352),28,25,4,no,m,6,m,0.6975114999950165,1,47,test2,4,0.6981401999946684,-38.0
7,wby,m,23,r,2,(-121.76378772032348, 121.76378772032349),24,3,1,yes,x,5,m,0.59940039999492,0,48,test2,4,0.5996996000030776,-42.0
7,wby,m,23,r,2,(-172.20000000000002, 2.1088417881317425e-14),25,-3,11,yes,x,5,x,0.6065494999929797,1,49,test2,4,0.6066811999917263,-48.0
7,wby,m,23,r,2,(-121.76378772032352, -121.76378772032348),26,-25,14,yes,x,5,x,0.5866963000007672,1,50,test2,4,0.5869145000033313,-70.0
7,wby,m,23,r,2,(-121.76378772032352, -121.76378772032348),26,-25,14,no,m,6,x,0.42285240000637714,0,51,test2,4,0.42348240000137594,-70.0
7,wby,m,23,r,2,(1.0544208940658713e-14, 172.20000000000002),23,-7,13,yes,x,5,x,0.5010182999976678,1,52,test2,4,0.5011433999898145,-52.0
7,wby,m,23,r,2,(-3.163262682197613e-14, -172.20000000000002),27,7,3,yes,x,5,x,0.5695256000035442,1,53,test2,4,0.5697566000017105,-38.0
7,wby,m,23,r,2,(-172.20000000000002, 2.1088417881317425e-14),25,25,4,yes,x,5,x,0.35606280001229607,1,54,test2,4,0.3562944000004791,-20.0
7,wby,m,23,r,2,(-172.20000000000002, 2.1088417881317425e-14),25,-7,13,yes,x,5,x,0.4303293999982998,1,55,test2,4,0.43044839998765383,-52.0
7,wby,m,23,r,2,(121.76378772032349, 121.76378772032349),22,-3,11,no,m,6,x,0.3341173999942839,0,56,test2,4,0.334745500003919,-52.0
7,wby,m,23,r,2,(-3.163262682197613e-14, -172.20000000000002),27,-7,13,yes,x,5,x,0.4918090999999549,1,57,test2,4,0.4919318000029307,-52.0
7,wby,m,23,r,2,(-121.76378772032348, 121.76378772032349),24,-25,14,yes,x,5,x,0.40149959998962004,1,58,test2,4,0.4016018999973312,-70.0
7,wby,m,23,r,2,(-172.20000000000002, 2.1088417881317425e-14),25,25,4,no,m,6,x,0.5753554999973858,0,59,test2,4,0.5760336999956053,-70.0
7,wby,m,23,r,2,(121.76378772032346, -121.76378772032352),28,5,2,yes,x,5,x,0.401153400001931,1,60,test2,4,0.40159809999749996,-40.0
7,wby,m,23,r,2,(1.0544208940658713e-14, 172.20000000000002),23,3,1,yes,x,5,x,0.4408401000109734,1,61,test2,4,0.4412137999897823,-42.0
7,wby,m,23,r,2,(-121.76378772032352, -121.76378772032348),26,-7,13,yes,x,5,x,0.35477770000579767,1,62,test2,4,0.3551067999942461,-52.0
7,wby,m,23,r,2,(121.76378772032346, -121.76378772032352),28,7,3,yes,x,5,x,0.5306554999988293,1,63,test2,4,0.530923400001484,-38.0
7,wby,m,23,r,2,(-121.76378772032348, 121.76378772032349),24,-5,12,yes,x,5,x,0.5065887999953702,1,64,test2,4,0.5066870000009658,-50.0
7,wby,m,23,r,2,(1.0544208940658713e-14, 172.20000000000002),23,5,2,no,m,6,x,0.4409343000006629,0,65,test2,4,0.44108740000228863,-50.0
7,wby,m,23,r,2,(1.0544208940658713e-14, 172.20000000000002),23,25,4,yes,x,5,x,0.6239494000037666,1,66,test2,4,0.6241826000041328,-20.0
7,wby,m,23,r,2,(-3.163262682197613e-14, -172.20000000000002),27,3,1,no,m,6,x,0.5938984999957029,0,67,test2,4,0.5943359999946551,-20.0
7,wby,m,23,r,2,(-3.163262682197613e-14, -172.20000000000002),27,7,3,no,m,6,m,0.5766542000055779,1,68,test2,4,0.5767562000110047,-20.0
7,wby,m,23,r,2,(-121.76378772032348, 121.76378772032349),24,3,1,no,m,6,m,0.425855200010119,1,69,test2,4,0.4260224999889033,-20.0
7,wby,m,23,r,2,(121.76378772032346, -121.76378772032352),28,-25,14,yes,x,5,m,0.4725773999962257,0,70,test2,4,0.4727741000097012,-70.0
7,wby,m,23,r,2,(-3.163262682197613e-14, -172.20000000000002),27,-25,14,yes,x,5,x,0.5064318000077037,1,71,test2,4,0.5065442000050098,-70.0
7,wby,m,23,r,2,(-172.20000000000002, 2.1088417881317425e-14),25,-7,13,no,m,6,x,0.6131210999883479,0,72,test2,4,0.6132317000010516,-70.0
7,wby,m,23,r,2,(-3.163262682197613e-14, -172.20000000000002),27,5,2,yes,x,5,x,0.6784443999931682,1,73,test2,4,0.6786615000019083,-40.0
7,wby,m,23,r,2,(121.76378772032349, 121.76378772032349),22,7,3,yes,x,5,x,0.5805285999958869,1,74,test2,4,0.5806529000110459,-38.0
7,wby,m,23,r,2,(121.76378772032346, -121.76378772032352),28,-7,13,yes,x,5,x,0.5809735000075307,1,75,test2,4,0.5814241000043694,-52.0
7,wby,m,23,r,2,(1.0544208940658713e-14, 172.20000000000002),23,-5,12,yes,x,5,x,0.4736093000101391,1,76,test2,4,0.4740309999906458,-50.0
7,wby,m,23,r,2,(-3.163262682197613e-14, -172.20000000000002),27,-25,14,yes,x,5,x,0.5543213999917498,1,77,test2,4,0.5544326999952318,-70.0
7,wby,m,23,r,2,(1.0544208940658713e-14, 172.20000000000002),23,25,4,yes,x,5,x,0.3807465999998385,1,78,test2,4,0.3808439999993425,-20.0
7,wby,m,23,r,2,(-121.76378772032352, -121.76378772032348),26,-3,11,yes,x,5,x,0.39210119999188464,1,79,test2,4,0.39230559999123216,-48.0
7,wby,m,23,r,2,(-172.20000000000002, 2.1088417881317425e-14),25,25,4,yes,x,5,x,0.5289369999954943,1,80,test2,4,0.5292220000119414,-20.0
7,wby,m,23,r,2,(-121.76378772032352, -121.76378772032348),26,-3,11,no,m,6,x,0.46762300000409596,0,81,test2,4,0.46772369999962393,-20.0
7,wby,m,23,r,2,(-3.163262682197613e-14, -172.20000000000002),27,-5,12,yes,x,5,m,0.5555983999947784,0,82,test2,4,0.555723700003,-50.0
7,wby,m,23,r,2,(-3.163262682197613e-14, -172.20000000000002),27,5,2,no,m,6,m,0.752849900003639,1,83,test2,4,0.7534426000056555,-50.0
