subj_id,subj_name,subj_gender ,subj_age,subj_handedness,subj_runNum,tar_l_x,tar_l_y,loc_code,tar_ori,tar_code,tar_pre ,cor_response,pre_code,subj_response,RT,correct,trial_num,type,bloc_num,dur, real_tar
8,hdl,m,23,r,1,(1.0544208940658713e-14, 172.20000000000002),23,-3,11,yes,x,5,m,1.6426305999993929,0,1,prac,0,1.6428673999980674,-48.0
8,hdl,m,23,r,1,(1.0544208940658713e-14, 172.20000000000002),23,-7,13,yes,x,5,x,1.2403338000003714,1,2,prac,0,1.2404500000047847,-52.0
8,hdl,m,23,r,1,(-121.76378772032348, 121.76378772032349),24,-5,12,yes,x,5,x,1.2345389000038267,1,3,prac,0,1.2346580000012182,-50.0
8,hdl,m,23,r,1,(172.20000000000002, 0.0),21,-25,14,yes,x,5,x,0.8450655999986338,1,4,prac,0,0.8456398999987869,-70.0
8,hdl,m,23,r,1,(121.76378772032346, -121.76378772032352),28,-5,12,yes,x,5,x,1.0210344000006444,1,5,prac,0,1.0216141000055359,-50.0
8,hdl,m,23,r,1,(-3.163262682197613e-14, -172.20000000000002),27,-25,14,yes,x,5,x,0.6574612999975216,1,6,prac,0,0.6576185999947484,-70.0
8,hdl,m,23,r,1,(172.20000000000002, 0.0),21,3,1,yes,x,5,m,0.8849680999992415,0,7,prac,0,0.8850669999956153,-42.0
8,hdl,m,23,r,1,(1.0544208940658713e-14, 172.20000000000002),23,-25,14,yes,x,5,x,0.6643605999997817,1,8,prac,0,0.6645796999946469,-70.0
8,hdl,m,23,r,1,(-172.20000000000002, 2.1088417881317425e-14),25,3,1,yes,x,5,m,1.610037899998133,0,9,prac,0,1.6101759999946808,-42.0
8,hdl,m,23,r,1,(1.0544208940658713e-14, 172.20000000000002),23,25,4,yes,x,5,x,0.5214047999979812,1,10,prac,0,0.5217097999993712,-20.0
8,hdl,m,23,r,1,(-172.20000000000002, 2.1088417881317425e-14),25,-3,11,yes,x,5,x,1.1863647999998648,1,11,prac,0,1.1866620000000694,-48.0
8,hdl,m,23,r,1,(1.0544208940658713e-14, 172.20000000000002),23,-3,11,yes,x,5,x,0.8431041999938316,1,12,prac,0,0.8432934000011301,-48.0
8,hdl,m,23,r,1,(-121.76378772032352, -121.76378772032348),26,-7,13,yes,x,5,x,1.086762799997814,1,13,prac,0,1.0869759000052,-52.0
8,hdl,m,23,r,1,(121.76378772032346, -121.76378772032352),28,5,2,yes,x,5,x,1.4874787000007927,1,14,prac,0,1.4877158000017516,-40.0
8,hdl,m,23,r,1,(-121.76378772032352, -121.76378772032348),26,5,2,yes,x,5,x,1.5916241000013542,1,15,prac,0,1.5918901999975787,-40.0
8,hdl,m,23,r,1,(-121.76378772032348, 121.76378772032349),24,-3,11,yes,x,5,x,0.8217125000010128,1,16,prac,0,0.8219545999963884,-48.0
8,hdl,m,23,r,1,(1.0544208940658713e-14, 172.20000000000002),23,5,2,yes,x,5,x,0.6626415999999153,1,17,prac,0,0.6628821000049356,-40.0
8,hdl,m,23,r,1,(-3.163262682197613e-14, -172.20000000000002),27,-7,13,no,m,6,None,None,0,18,prac,0,1.9800966999973753,-40.0
8,hdl,m,23,r,1,(121.76378772032346, -121.76378772032352),28,-7,13,yes,x,5,x,1.0302780000056373,1,19,prac,0,1.0306606000012835,-52.0
8,hdl,m,23,r,1,(-121.76378772032348, 121.76378772032349),24,-7,13,no,m,6,x,1.2971770000003744,0,20,prac,0,1.297351900000649,-52.0
8,hdl,m,23,r,1,(1.0544208940658713e-14, 172.20000000000002),23,-3,11,yes,x,5,x,0.8176303000000189,1,1,test1,1,0.8180326000001514,-48.0
8,hdl,m,23,r,1,(172.20000000000002, 0.0),21,5,2,yes,x,5,x,1.1934981000013067,1,2,test1,1,1.1935994000014034,-40.0
8,hdl,m,23,r,1,(-121.76378772032348, 121.76378772032349),24,25,4,yes,x,5,x,0.5870550999970874,1,3,test1,1,0.5873500000016065,-20.0
8,hdl,m,23,r,1,(-172.20000000000002, 2.1088417881317425e-14),25,-3,11,yes,x,5,x,1.0851024000003235,1,4,test1,1,1.085577199999534,-48.0
8,hdl,m,23,r,1,(-3.163262682197613e-14, -172.20000000000002),27,25,4,no,m,6,m,1.5697160000054282,1,5,test1,1,1.5699072999996133,-48.0
8,hdl,m,23,r,1,(121.76378772032346, -121.76378772032352),28,5,2,no,m,6,m,1.551442899995891,1,6,test1,1,1.551544100002502,-48.0
8,hdl,m,23,r,1,(172.20000000000002, 0.0),21,-25,14,no,m,6,m,1.632699199995841,1,7,test1,1,1.6329403999989154,-48.0
8,hdl,m,23,r,1,(-172.20000000000002, 2.1088417881317425e-14),25,-3,11,yes,x,5,m,1.4287516999975196,0,8,test1,1,1.4290595999991638,-48.0
8,hdl,m,23,r,1,(-172.20000000000002, 2.1088417881317425e-14),25,7,3,no,m,6,m,1.6548374999983935,1,9,test1,1,1.654936999999336,-48.0
8,hdl,m,23,r,1,(121.76378772032346, -121.76378772032352),28,-3,11,yes,x,5,x,1.2498525999981211,1,10,test1,1,1.2500657999989926,-48.0
8,hdl,m,23,r,1,(172.20000000000002, 0.0),21,5,2,yes,x,5,x,0.9842153999998118,1,11,test1,1,0.9844521999984863,-40.0
8,hdl,m,23,r,1,(-3.163262682197613e-14, -172.20000000000002),27,-7,13,yes,x,5,x,0.8046420000027865,1,12,test1,1,0.8047440000009374,-52.0
8,hdl,m,23,r,1,(121.76378772032346, -121.76378772032352),28,-5,12,no,m,6,m,1.5806393000020762,1,13,test1,1,1.5807691000009072,-52.0
8,hdl,m,23,r,1,(-121.76378772032352, -121.76378772032348),26,-3,11,yes,x,5,x,1.46908540000004,1,14,test1,1,1.4692509999949834,-48.0
8,hdl,m,23,r,1,(-3.163262682197613e-14, -172.20000000000002),27,3,1,yes,x,5,x,1.1384325999970315,1,15,test1,1,1.1386621999990894,-42.0
8,hdl,m,23,r,1,(-121.76378772032352, -121.76378772032348),26,7,3,yes,x,5,x,0.6494027000007918,1,16,test1,1,0.6499435999940033,-38.0
8,hdl,m,23,r,1,(1.0544208940658713e-14, 172.20000000000002),23,-7,13,yes,x,5,x,0.5551749000005657,1,17,test1,1,0.5554424000001745,-52.0
8,hdl,m,23,r,1,(-172.20000000000002, 2.1088417881317425e-14),25,7,3,yes,x,5,x,0.8497953999976744,1,18,test1,1,0.8499444000044605,-38.0
8,hdl,m,23,r,1,(172.20000000000002, 0.0),21,25,4,yes,x,5,x,0.5474994000032893,1,19,test1,1,0.5476076999984798,-20.0
8,hdl,m,23,r,1,(-3.163262682197613e-14, -172.20000000000002),27,-5,12,yes,x,5,x,0.8581037999974797,1,20,test1,1,0.8583513000048697,-50.0
8,hdl,m,23,r,1,(172.20000000000002, 0.0),21,3,1,no,m,6,m,1.538471899999422,1,21,test1,1,1.5385845999990124,-50.0
8,hdl,m,23,r,1,(1.0544208940658713e-14, 172.20000000000002),23,3,1,yes,x,5,x,0.8585485000003246,1,22,test1,1,0.8586746000000858,-42.0
8,hdl,m,23,r,1,(172.20000000000002, 0.0),21,-5,12,yes,x,5,x,0.7084784000035143,1,23,test1,1,0.7091542000052868,-50.0
8,hdl,m,23,r,1,(-121.76378772032348, 121.76378772032349),24,-3,11,yes,x,5,x,0.924437300003774,1,24,test1,1,0.9245956000013393,-48.0
8,hdl,m,23,r,1,(-121.76378772032348, 121.76378772032349),24,25,4,no,m,6,m,1.3035816000046907,1,25,test1,1,1.3037194999997155,-48.0
8,hdl,m,23,r,1,(121.76378772032346, -121.76378772032352),28,3,1,yes,x,5,x,0.8535655000014231,1,26,test1,1,0.8538575999991735,-42.0
8,hdl,m,23,r,1,(-172.20000000000002, 2.1088417881317425e-14),25,-25,14,yes,x,5,x,0.4473214999961783,1,27,test1,1,0.4475626999992528,-70.0
8,hdl,m,23,r,1,(121.76378772032346, -121.76378772032352),28,3,1,no,m,6,m,1.298381699998572,1,28,test1,1,1.298869600002945,-70.0
8,hdl,m,23,r,1,(-3.163262682197613e-14, -172.20000000000002),27,7,3,yes,x,5,x,0.5699566999974195,1,29,test1,1,0.5700527999943006,-38.0
8,hdl,m,23,r,1,(-121.76378772032348, 121.76378772032349),24,-7,13,yes,x,5,x,0.6324937000026694,1,30,test1,1,0.6326138000003994,-52.0
8,hdl,m,23,r,1,(-121.76378772032348, 121.76378772032349),24,25,4,yes,x,5,x,0.4429750999988755,1,31,test1,1,0.44307830000616377,-20.0
8,hdl,m,23,r,1,(-121.76378772032352, -121.76378772032348),26,5,2,yes,x,5,x,1.1215085000003455,1,32,test1,1,1.1216691000008723,-40.0
8,hdl,m,23,r,1,(-121.76378772032348, 121.76378772032349),24,5,2,yes,x,5,x,0.5727399999959744,1,33,test1,1,0.5728498000025866,-40.0
8,hdl,m,23,r,1,(1.0544208940658713e-14, 172.20000000000002),23,-25,14,yes,x,5,x,0.37115020000055665,1,34,test1,1,0.3712785999960033,-70.0
8,hdl,m,23,r,1,(121.76378772032349, 121.76378772032349),22,-7,13,yes,x,5,x,0.43702309999935096,1,35,test1,1,0.43716300000232877,-52.0
8,hdl,m,23,r,1,(-172.20000000000002, 2.1088417881317425e-14),25,-5,12,yes,x,5,x,0.7872805000006338,1,36,test1,1,0.787776400000439,-50.0
8,hdl,m,23,r,1,(121.76378772032346, -121.76378772032352),28,7,3,no,m,6,m,1.110882799999672,1,37,test1,1,1.1111564000020735,-50.0
8,hdl,m,23,r,1,(121.76378772032349, 121.76378772032349),22,-25,14,yes,x,5,x,0.4990391000028467,1,38,test1,1,0.49913560000277357,-70.0
8,hdl,m,23,r,1,(121.76378772032346, -121.76378772032352),28,25,4,yes,x,5,x,0.4751324000026216,1,39,test1,1,0.47525429999950575,-20.0
8,hdl,m,23,r,1,(1.0544208940658713e-14, 172.20000000000002),23,-25,14,yes,x,5,x,0.36809809999977006,1,40,test1,1,0.36873129999730736,-70.0
8,hdl,m,23,r,1,(121.76378772032346, -121.76378772032352),28,-7,13,no,m,6,m,1.0013480999987223,1,41,test1,1,1.0019845999995596,-70.0
8,hdl,m,23,r,1,(121.76378772032346, -121.76378772032352),28,-3,11,no,m,6,m,0.9023253999985172,1,42,test1,1,0.9025236000015866,-70.0
8,hdl,m,23,r,1,(-3.163262682197613e-14, -172.20000000000002),27,3,1,yes,x,5,m,1.096927600003255,0,43,test1,1,1.0970712999987882,-42.0
8,hdl,m,23,r,1,(172.20000000000002, 0.0),21,-25,14,yes,x,5,x,0.48761219999869354,1,44,test1,1,0.48818119999486953,-70.0
8,hdl,m,23,r,1,(1.0544208940658713e-14, 172.20000000000002),23,25,4,yes,x,5,x,0.3372783000013442,1,45,test1,1,0.33744819999992615,-20.0
8,hdl,m,23,r,1,(121.76378772032346, -121.76378772032352),28,-5,12,yes,x,5,x,0.744268499998725,1,46,test1,1,0.7444576999987476,-50.0
8,hdl,m,23,r,1,(172.20000000000002, 0.0),21,3,1,yes,x,5,x,0.8882855999981984,1,47,test1,1,0.8885164999956032,-42.0
8,hdl,m,23,r,1,(-3.163262682197613e-14, -172.20000000000002),27,-25,14,yes,x,5,x,0.4084233000030508,1,48,test1,1,0.4085488999990048,-70.0
8,hdl,m,23,r,1,(1.0544208940658713e-14, 172.20000000000002),23,7,3,yes,x,5,x,0.38728130000527017,1,49,test1,1,0.38779539999814006,-38.0
8,hdl,m,23,r,1,(121.76378772032346, -121.76378772032352),28,-25,14,yes,x,5,x,0.38766120000218507,1,50,test1,1,0.3878586999999243,-70.0
8,hdl,m,23,r,1,(1.0544208940658713e-14, 172.20000000000002),23,7,3,yes,x,5,x,0.4382194999998319,1,51,test1,1,0.43831759999739006,-38.0
8,hdl,m,23,r,1,(121.76378772032346, -121.76378772032352),28,5,2,yes,x,5,x,0.7961442000014358,1,52,test1,1,0.7962484000017866,-40.0
8,hdl,m,23,r,1,(-121.76378772032348, 121.76378772032349),24,5,2,no,m,6,m,1.1079231999974581,1,53,test1,1,1.1080514999994193,-40.0
8,hdl,m,23,r,1,(1.0544208940658713e-14, 172.20000000000002),23,-7,13,yes,x,5,x,0.3788325999994413,1,54,test1,1,0.37892870000359835,-52.0
8,hdl,m,23,r,1,(-121.76378772032352, -121.76378772032348),26,-25,14,yes,x,5,x,0.43584479999844916,1,55,test1,1,0.43601289999787696,-70.0
8,hdl,m,23,r,1,(-121.76378772032352, -121.76378772032348),26,-5,12,yes,x,5,x,1.0880795999983093,1,56,test1,1,1.0883138999997755,-50.0
8,hdl,m,23,r,1,(-172.20000000000002, 2.1088417881317425e-14),25,-7,13,no,m,6,m,1.1374544999998761,1,57,test1,1,1.137652799996431,-50.0
8,hdl,m,23,r,1,(121.76378772032346, -121.76378772032352),28,5,2,yes,x,5,x,0.857443199995032,1,58,test1,1,0.857542800004012,-40.0
8,hdl,m,23,r,1,(-121.76378772032348, 121.76378772032349),24,-5,12,yes,x,5,x,0.4704850999987684,1,59,test1,1,0.4706177999978536,-50.0
8,hdl,m,23,r,1,(1.0544208940658713e-14, 172.20000000000002),23,5,2,yes,x,5,x,0.5971522999971057,1,60,test1,1,0.5978058000036981,-40.0
8,hdl,m,23,r,1,(-172.20000000000002, 2.1088417881317425e-14),25,-7,13,yes,x,5,x,0.4866974999968079,1,61,test1,1,0.48694460000115214,-52.0
8,hdl,m,23,r,1,(-121.76378772032352, -121.76378772032348),26,7,3,yes,x,5,x,0.496530199998233,1,62,test1,1,0.4966290000011213,-38.0
8,hdl,m,23,r,1,(121.76378772032349, 121.76378772032349),22,7,3,yes,x,5,x,0.6696099000037066,1,63,test1,1,0.6698949999990873,-38.0
8,hdl,m,23,r,1,(121.76378772032346, -121.76378772032352),28,-5,12,yes,x,5,x,0.9036347000001115,1,64,test1,1,0.9037491999988561,-50.0
8,hdl,m,23,r,1,(-121.76378772032352, -121.76378772032348),26,-25,14,yes,x,5,x,0.39592500000435393,1,65,test1,1,0.39602629999717465,-70.0
8,hdl,m,23,r,1,(172.20000000000002, 0.0),21,-3,11,yes,x,5,m,0.9633182999968994,0,66,test1,1,0.9635601000045426,-48.0
8,hdl,m,23,r,1,(-121.76378772032348, 121.76378772032349),24,-25,14,no,m,6,m,1.1769767000005231,1,67,test1,1,1.1772165000002133,-48.0
8,hdl,m,23,r,1,(172.20000000000002, 0.0),21,-5,12,no,m,6,x,1.3011792000033893,0,68,test1,1,1.3012965000016266,-48.0
8,hdl,m,23,r,1,(121.76378772032346, -121.76378772032352),28,25,4,yes,x,5,x,0.4474439999976312,1,69,test1,1,0.4485781000039424,-20.0
8,hdl,m,23,r,1,(121.76378772032349, 121.76378772032349),22,-3,11,yes,x,5,x,1.3046369000003324,1,70,test1,1,1.3048370000033174,-48.0
8,hdl,m,23,r,1,(-172.20000000000002, 2.1088417881317425e-14),25,-5,12,no,m,6,m,1.0616213999965112,1,71,test1,1,1.0617533000040567,-48.0
8,hdl,m,23,r,1,(-121.76378772032352, -121.76378772032348),26,25,4,yes,x,5,x,0.4353581000032136,1,72,test1,1,0.43557370000053197,-20.0
8,hdl,m,23,r,1,(-172.20000000000002, 2.1088417881317425e-14),25,5,2,no,m,6,m,1.2740984999982174,1,73,test1,1,1.2742339000033098,-20.0
8,hdl,m,23,r,1,(-121.76378772032352, -121.76378772032348),26,-3,11,yes,x,5,x,0.9637277000001632,1,74,test1,1,0.9640756000007968,-48.0
8,hdl,m,23,r,1,(172.20000000000002, 0.0),21,-7,13,no,m,6,m,0.9182471999956761,1,75,test1,1,0.9186963000029209,-48.0
8,hdl,m,23,r,1,(-3.163262682197613e-14, -172.20000000000002),27,5,2,yes,x,5,x,0.6945618000027025,1,76,test1,1,0.6947211000006064,-40.0
8,hdl,m,23,r,1,(121.76378772032349, 121.76378772032349),22,25,4,yes,x,5,x,0.42255300000397256,1,77,test1,1,0.4229680000062217,-20.0
8,hdl,m,23,r,1,(1.0544208940658713e-14, 172.20000000000002),23,-3,11,no,m,6,m,0.8827797999983886,1,78,test1,1,0.8831598999968264,-20.0
8,hdl,m,23,r,1,(121.76378772032349, 121.76378772032349),22,-25,14,yes,x,5,x,0.3838882999989437,1,79,test1,1,0.38398610000149347,-70.0
8,hdl,m,23,r,1,(172.20000000000002, 0.0),21,7,3,yes,x,5,x,0.613289299995813,1,80,test1,1,0.6136565999986487,-38.0
8,hdl,m,23,r,1,(-121.76378772032352, -121.76378772032348),26,-7,13,yes,x,5,x,0.4988249999951222,1,81,test1,1,0.4989253000021563,-52.0
8,hdl,m,23,r,1,(121.76378772032349, 121.76378772032349),22,25,4,no,m,6,m,0.9395076000000699,1,82,test1,1,0.9400141000005533,-52.0
8,hdl,m,23,r,1,(-3.163262682197613e-14, -172.20000000000002),27,25,4,yes,x,5,x,0.5494065000020782,1,83,test1,1,0.5498778999972274,-20.0
8,hdl,m,23,r,1,(-121.76378772032348, 121.76378772032349),24,3,1,yes,x,5,x,0.7583908000015072,1,84,test1,1,0.7587630999987596,-42.0
8,hdl,m,23,r,1,(1.0544208940658713e-14, 172.20000000000002),23,3,1,yes,x,5,x,0.8124527999971178,1,85,test1,1,0.8125775000007707,-42.0
8,hdl,m,23,r,1,(-121.76378772032352, -121.76378772032348),26,7,3,no,m,6,m,0.9046154000025126,1,86,test1,1,0.9047721000024467,-42.0
8,hdl,m,23,r,1,(121.76378772032349, 121.76378772032349),22,-7,13,no,m,6,x,0.8875680000055581,0,87,test1,1,0.8879823000024771,-42.0
8,hdl,m,23,r,1,(-121.76378772032348, 121.76378772032349),24,-7,13,no,m,6,m,0.9092757000034908,1,88,test1,1,0.9093763000055333,-42.0
8,hdl,m,23,r,1,(-121.76378772032352, -121.76378772032348),26,5,2,no,m,6,m,1.1214171000028728,1,89,test1,1,1.1217678999964846,-42.0
8,hdl,m,23,r,1,(121.76378772032346, -121.76378772032352),28,-25,14,yes,x,5,x,0.49022740000509657,1,90,test1,1,0.4904670000032638,-70.0
8,hdl,m,23,r,1,(121.76378772032349, 121.76378772032349),22,-7,13,yes,x,5,x,0.7333545000001322,1,91,test1,1,0.7334522999954061,-52.0
8,hdl,m,23,r,1,(-121.76378772032352, -121.76378772032348),26,-5,12,yes,x,5,x,0.8092915000015637,1,92,test1,1,0.8096131999991485,-50.0
8,hdl,m,23,r,1,(1.0544208940658713e-14, 172.20000000000002),23,-25,14,no,m,6,m,0.6958108999970136,1,93,test1,1,0.6959147999950801,-50.0
8,hdl,m,23,r,1,(-3.163262682197613e-14, -172.20000000000002),27,-7,13,yes,x,5,x,0.6326244000010774,1,94,test1,1,0.6327204999979585,-52.0
8,hdl,m,23,r,1,(-121.76378772032348, 121.76378772032349),24,3,1,no,m,6,m,0.8049716000023182,1,95,test1,1,0.8051780000023427,-52.0
8,hdl,m,23,r,1,(-172.20000000000002, 2.1088417881317425e-14),25,-25,14,yes,x,5,x,0.42277520000061486,1,96,test1,1,0.4231029000002309,-70.0
8,hdl,m,23,r,1,(172.20000000000002, 0.0),21,-7,13,yes,x,5,x,0.7161601999978302,1,1,test2,1,0.7162795000040205,-52.0
8,hdl,m,23,r,1,(172.20000000000002, 0.0),21,-3,11,no,m,6,m,0.6469595999951707,1,2,test2,1,0.6472489000007045,-52.0
8,hdl,m,23,r,1,(121.76378772032346, -121.76378772032352),28,3,1,yes,x,5,x,0.6390492999998969,1,3,test2,1,0.6391769999972894,-42.0
8,hdl,m,23,r,1,(1.0544208940658713e-14, 172.20000000000002),23,3,1,no,m,6,m,0.9073515999989468,1,4,test2,1,0.9074823999981163,-42.0
8,hdl,m,23,r,1,(121.76378772032346, -121.76378772032352),28,25,4,no,m,6,m,0.6875947000007727,1,5,test2,1,0.6879115999981877,-42.0
8,hdl,m,23,r,1,(-121.76378772032352, -121.76378772032348),26,-3,11,no,m,6,m,0.7269435999987763,1,6,test2,1,0.7270419999986188,-42.0
8,hdl,m,23,r,1,(-121.76378772032348, 121.76378772032349),24,5,2,yes,x,5,x,0.5602930000022752,1,7,test2,1,0.5605179000049247,-40.0
8,hdl,m,23,r,1,(-121.76378772032348, 121.76378772032349),24,7,3,yes,x,5,x,0.40535190000082366,1,8,test2,1,0.4056529000008595,-38.0
8,hdl,m,23,r,1,(-121.76378772032352, -121.76378772032348),26,25,4,no,m,6,m,0.8944426999951247,1,9,test2,1,0.8946679000000586,-38.0
8,hdl,m,23,r,1,(-3.163262682197613e-14, -172.20000000000002),27,-5,12,no,m,6,m,1.1018377000000328,1,10,test2,1,1.1025187999985064,-38.0
8,hdl,m,23,r,1,(-3.163262682197613e-14, -172.20000000000002),27,-3,11,yes,x,5,m,1.0812019000004511,0,11,test2,1,1.08143900000141,-48.0
8,hdl,m,23,r,1,(121.76378772032349, 121.76378772032349),22,5,2,yes,x,5,x,0.7207720000005793,1,12,test2,1,0.7209375000020373,-40.0
8,hdl,m,23,r,1,(-172.20000000000002, 2.1088417881317425e-14),25,3,1,yes,x,5,x,0.9228961999979219,1,13,test2,1,0.9231817999971099,-42.0
8,hdl,m,23,r,1,(-3.163262682197613e-14, -172.20000000000002),27,-3,11,no,m,6,m,1.0903137999994215,1,14,test2,1,1.0905987000005553,-42.0
8,hdl,m,23,r,1,(121.76378772032349, 121.76378772032349),22,-5,12,yes,x,5,x,0.6407323999956134,1,15,test2,1,0.6412909999999101,-50.0
8,hdl,m,23,r,1,(121.76378772032346, -121.76378772032352),28,-7,13,yes,x,5,x,0.8397170999960508,1,16,test2,1,0.839881100000639,-52.0
8,hdl,m,23,r,1,(1.0544208940658713e-14, 172.20000000000002),23,-7,13,no,m,6,m,0.9973844999985886,1,17,test2,1,0.9975019000048633,-52.0
8,hdl,m,23,r,1,(-172.20000000000002, 2.1088417881317425e-14),25,5,2,yes,x,5,x,0.72774699999718,1,18,test2,1,0.7278686999998172,-40.0
8,hdl,m,23,r,1,(172.20000000000002, 0.0),21,7,3,no,m,6,m,1.1673429000002216,1,19,test2,1,1.167457600000489,-40.0
8,hdl,m,23,r,1,(-121.76378772032348, 121.76378772032349),24,7,3,yes,x,5,x,0.43998719999945024,1,20,test2,1,0.4401140000045416,-38.0
8,hdl,m,23,r,1,(1.0544208940658713e-14, 172.20000000000002),23,25,4,yes,x,5,x,0.43620880000526085,1,21,test2,1,0.4363080999974045,-20.0
8,hdl,m,23,r,1,(-172.20000000000002, 2.1088417881317425e-14),25,3,1,no,m,6,m,1.0918932000058703,1,22,test2,1,1.0920199999964098,-20.0
8,hdl,m,23,r,1,(-172.20000000000002, 2.1088417881317425e-14),25,7,3,yes,x,5,x,0.4526268000045093,1,23,test2,1,0.4528638999981922,-38.0
8,hdl,m,23,r,1,(121.76378772032349, 121.76378772032349),22,-3,11,no,m,6,m,0.9711811000015587,1,24,test2,1,0.9714189000005717,-38.0
8,hdl,m,23,r,1,(172.20000000000002, 0.0),21,-7,13,yes,x,5,x,0.6601278000016464,1,25,test2,1,0.6602686999976868,-52.0
8,hdl,m,23,r,1,(121.76378772032349, 121.76378772032349),22,7,3,yes,x,5,m,0.5730428000024403,0,26,test2,1,0.5731821000008495,-38.0
8,hdl,m,23,r,1,(-172.20000000000002, 2.1088417881317425e-14),25,-5,12,yes,x,5,x,0.7406489000059082,1,27,test2,1,0.7407747000033851,-50.0
8,hdl,m,23,r,1,(1.0544208940658713e-14, 172.20000000000002),23,-5,12,yes,x,5,x,0.41938369999843417,1,28,test2,1,0.4196263999983785,-50.0
8,hdl,m,23,r,1,(1.0544208940658713e-14, 172.20000000000002),23,5,2,yes,x,5,x,0.49125179999828106,1,29,test2,1,0.49192179999954533,-40.0
8,hdl,m,23,r,1,(172.20000000000002, 0.0),21,25,4,no,m,6,m,1.1933865999963018,1,30,test2,1,1.1936583999995491,-40.0
8,hdl,m,23,r,1,(121.76378772032349, 121.76378772032349),22,25,4,yes,x,5,x,0.4158263999997871,1,31,test2,1,0.41595070000039414,-20.0
8,hdl,m,23,r,1,(121.76378772032349, 121.76378772032349),22,3,1,yes,x,5,m,1.1500506000011228,0,32,test2,1,1.1507171999983257,-42.0
8,hdl,m,23,r,1,(-3.163262682197613e-14, -172.20000000000002),27,-7,13,no,m,6,m,1.0188964000044507,1,33,test2,1,1.0194326999990153,-42.0
8,hdl,m,23,r,1,(-3.163262682197613e-14, -172.20000000000002),27,7,3,no,m,6,m,1.209019800000533,1,34,test2,1,1.20969260000129,-42.0
8,hdl,m,23,r,1,(121.76378772032346, -121.76378772032352),28,-3,11,yes,x,5,x,1.0111030000043684,1,35,test2,1,1.0114427000007709,-48.0
8,hdl,m,23,r,1,(1.0544208940658713e-14, 172.20000000000002),23,-3,11,yes,x,5,x,0.6486768999966444,1,36,test2,1,0.6487779000017326,-48.0
8,hdl,m,23,r,1,(1.0544208940658713e-14, 172.20000000000002),23,5,2,no,m,6,x,1.0402049999975134,0,37,test2,1,1.0403117000023485,-48.0
8,hdl,m,23,r,1,(-121.76378772032352, -121.76378772032348),26,-5,12,no,m,6,m,1.296461600002658,1,38,test2,1,1.2968561000016052,-48.0
8,hdl,m,23,r,1,(-172.20000000000002, 2.1088417881317425e-14),25,25,4,yes,x,5,x,0.6059715000010328,1,39,test2,1,0.6061814999993658,-20.0
8,hdl,m,23,r,1,(-121.76378772032348, 121.76378772032349),24,-3,11,yes,x,5,x,1.194114099998842,1,40,test2,1,1.1943453999992926,-48.0
8,hdl,m,23,r,1,(-172.20000000000002, 2.1088417881317425e-14),25,-3,11,no,m,6,m,0.8128047999998671,1,41,test2,1,0.8129735000038636,-48.0
8,hdl,m,23,r,1,(-172.20000000000002, 2.1088417881317425e-14),25,25,4,yes,x,5,x,0.5157477000029758,1,42,test2,1,0.5160681999986991,-20.0
8,hdl,m,23,r,1,(121.76378772032346, -121.76378772032352),28,-7,13,yes,x,5,x,0.7118219999974826,1,43,test2,1,0.7119392999957199,-52.0
8,hdl,m,23,r,1,(172.20000000000002, 0.0),21,-25,14,yes,x,5,x,0.5922764999995707,1,44,test2,1,0.5924849000002723,-70.0
8,hdl,m,23,r,1,(121.76378772032349, 121.76378772032349),22,-25,14,no,m,6,m,1.0954981000031694,1,45,test2,1,1.0955974999960745,-70.0
8,hdl,m,23,r,1,(-3.163262682197613e-14, -172.20000000000002),27,-25,14,no,m,6,m,1.0790912000011303,1,46,test2,1,1.0792459000003873,-70.0
8,hdl,m,23,r,1,(121.76378772032349, 121.76378772032349),22,3,1,yes,x,5,x,1.2466392000060296,1,47,test2,1,1.2470631000032881,-42.0
8,hdl,m,23,r,1,(-121.76378772032348, 121.76378772032349),24,-25,14,yes,x,5,x,0.4575414999999339,1,48,test2,1,0.45765250000113156,-70.0
8,hdl,m,23,r,1,(1.0544208940658713e-14, 172.20000000000002),23,-5,12,yes,x,5,x,0.49056080000445945,1,49,test2,1,0.4913195999979507,-50.0
8,hdl,m,23,r,1,(172.20000000000002, 0.0),21,-3,11,yes,x,5,m,0.9987920000057784,0,50,test2,1,0.9990388000005623,-48.0
8,hdl,m,23,r,1,(-121.76378772032352, -121.76378772032348),26,-7,13,yes,x,5,x,0.6329923000012059,1,51,test2,1,0.6337207000033231,-52.0
8,hdl,m,23,r,1,(-121.76378772032348, 121.76378772032349),24,-7,13,yes,x,5,x,0.5113428000040585,1,52,test2,1,0.5114889999968,-52.0
8,hdl,m,23,r,1,(-121.76378772032348, 121.76378772032349),24,-25,14,yes,x,5,x,0.5243875999949523,1,53,test2,1,0.5246091000008164,-70.0
8,hdl,m,23,r,1,(-3.163262682197613e-14, -172.20000000000002),27,-3,11,yes,x,5,x,1.0027031999998144,1,54,test2,1,1.0028224000052433,-48.0
8,hdl,m,23,r,1,(-172.20000000000002, 2.1088417881317425e-14),25,3,1,yes,x,5,x,1.0827405999953044,1,55,test2,1,1.0830858999979682,-42.0
8,hdl,m,23,r,1,(-172.20000000000002, 2.1088417881317425e-14),25,-7,13,yes,x,5,x,0.5650750000058906,1,56,test2,1,0.5652104999971925,-52.0
8,hdl,m,23,r,1,(121.76378772032349, 121.76378772032349),22,-5,12,no,m,6,m,0.933625600002415,1,57,test2,1,0.9337578999984544,-52.0
8,hdl,m,23,r,1,(-121.76378772032352, -121.76378772032348),26,-7,13,no,m,6,m,1.2518781999970088,1,58,test2,1,1.2519796000051429,-52.0
8,hdl,m,23,r,1,(-121.76378772032348, 121.76378772032349),24,-3,11,no,m,6,m,1.1290516999943065,1,59,test2,1,1.12916640000185,-52.0
8,hdl,m,23,r,1,(-121.76378772032352, -121.76378772032348),26,5,2,yes,x,5,x,0.7176044000007096,1,60,test2,1,0.7180506000004243,-40.0
8,hdl,m,23,r,1,(172.20000000000002, 0.0),21,7,3,yes,x,5,x,1.0460727999961819,1,61,test2,1,1.0463738999969792,-38.0
8,hdl,m,23,r,1,(121.76378772032349, 121.76378772032349),22,-5,12,yes,x,5,x,1.1358048000038252,1,62,test2,1,1.1359032999971532,-50.0
8,hdl,m,23,r,1,(1.0544208940658713e-14, 172.20000000000002),23,25,4,no,m,6,m,0.7363769000003231,1,63,test2,1,0.7368581999980961,-50.0
8,hdl,m,23,r,1,(121.76378772032346, -121.76378772032352),28,-25,14,no,m,6,m,0.9549369000014849,1,64,test2,1,0.9551720999952522,-50.0
8,hdl,m,23,r,1,(-121.76378772032352, -121.76378772032348),26,3,1,yes,x,5,x,0.7533597000001464,1,65,test2,1,0.753640799994173,-42.0
8,hdl,m,23,r,1,(172.20000000000002, 0.0),21,3,1,yes,x,5,x,1.0577024000012898,1,66,test2,1,1.0578699999969103,-42.0
8,hdl,m,23,r,1,(-121.76378772032352, -121.76378772032348),26,3,1,no,m,6,m,1.0113163999994867,1,67,test2,1,1.011657800001558,-42.0
8,hdl,m,23,r,1,(121.76378772032349, 121.76378772032349),22,3,1,no,m,6,m,1.9770952999970177,1,68,test2,1,1.9773778000017046,-42.0
8,hdl,m,23,r,1,(-172.20000000000002, 2.1088417881317425e-14),25,-25,14,no,m,6,m,1.382572299997264,1,69,test2,1,1.3826719999997295,-42.0
8,hdl,m,23,r,1,(-121.76378772032352, -121.76378772032348),26,25,4,yes,x,5,x,0.5047579999954905,1,70,test2,1,0.505082499999844,-20.0
8,hdl,m,23,r,1,(-3.163262682197613e-14, -172.20000000000002),27,7,3,yes,x,5,x,0.7085393000015756,1,71,test2,1,0.7090332000007038,-38.0
8,hdl,m,23,r,1,(-121.76378772032348, 121.76378772032349),24,-5,12,no,m,6,m,0.9115145000032499,1,72,test2,1,0.9117483000009088,-38.0
8,hdl,m,23,r,1,(121.76378772032346, -121.76378772032352),28,7,3,yes,x,5,x,0.600021199999901,1,73,test2,1,0.6001767999987351,-38.0
8,hdl,m,23,r,1,(1.0544208940658713e-14, 172.20000000000002),23,7,3,no,m,6,x,0.8655202000009012,0,74,test2,1,0.86581699999806,-38.0
8,hdl,m,23,r,1,(-121.76378772032352, -121.76378772032348),26,-25,14,no,m,6,m,1.157116499998665,1,75,test2,1,1.1573290000014822,-38.0
8,hdl,m,23,r,1,(172.20000000000002, 0.0),21,-5,12,yes,x,5,x,0.7735346000044956,1,76,test2,1,0.7737145000064629,-50.0
8,hdl,m,23,r,1,(-3.163262682197613e-14, -172.20000000000002),27,25,4,yes,x,5,x,0.5832752999995137,1,77,test2,1,0.5835052999973414,-20.0
8,hdl,m,23,r,1,(121.76378772032349, 121.76378772032349),22,7,3,no,m,6,m,1.0759590000016033,1,78,test2,1,1.0760727000015322,-20.0
8,hdl,m,23,r,1,(172.20000000000002, 0.0),21,5,2,no,m,6,m,1.1318969999992987,1,79,test2,1,1.1319969999967725,-20.0
8,hdl,m,23,r,1,(-3.163262682197613e-14, -172.20000000000002),27,-25,14,yes,x,5,x,0.4752693999980693,1,80,test2,1,0.47543949999817414,-70.0
8,hdl,m,23,r,1,(-121.76378772032352, -121.76378772032348),26,3,1,yes,x,5,m,0.8211827999984962,0,81,test2,1,0.8212807999952929,-42.0
8,hdl,m,23,r,1,(-172.20000000000002, 2.1088417881317425e-14),25,25,4,no,m,6,m,0.9428311000010581,1,82,test2,1,0.9429306000020006,-42.0
8,hdl,m,23,r,1,(172.20000000000002, 0.0),21,25,4,yes,x,5,x,0.5183054000008269,1,83,test2,1,0.5185866000028909,-20.0
8,hdl,m,23,r,1,(-121.76378772032348, 121.76378772032349),24,-5,12,yes,x,5,x,0.8290554999985034,1,84,test2,1,0.8293779000014183,-50.0
8,hdl,m,23,r,1,(121.76378772032349, 121.76378772032349),22,-3,11,yes,x,5,m,1.083414199994877,0,85,test2,1,1.0836760999955004,-48.0
8,hdl,m,23,r,1,(1.0544208940658713e-14, 172.20000000000002),23,-5,12,no,m,6,m,1.2426914000025135,1,86,test2,1,1.2429895000022952,-48.0
8,hdl,m,23,r,1,(-121.76378772032348, 121.76378772032349),24,3,1,yes,x,5,x,0.8859625999975833,1,87,test2,1,0.886207600000489,-42.0
8,hdl,m,23,r,1,(-3.163262682197613e-14, -172.20000000000002),27,3,1,no,m,6,m,1.3094502999956603,1,88,test2,1,1.3095431000037934,-42.0
8,hdl,m,23,r,1,(-3.163262682197613e-14, -172.20000000000002),27,5,2,yes,x,5,x,0.5881940000035684,1,89,test2,1,0.5883751000001212,-40.0
8,hdl,m,23,r,1,(-3.163262682197613e-14, -172.20000000000002),27,-5,12,yes,x,5,x,0.5312458999978844,1,90,test2,1,0.5315285999968182,-50.0
8,hdl,m,23,r,1,(-172.20000000000002, 2.1088417881317425e-14),25,5,2,yes,x,5,x,0.9384417999972356,1,91,test2,1,0.9385356999991927,-40.0
8,hdl,m,23,r,1,(-121.76378772032348, 121.76378772032349),24,7,3,no,m,6,m,0.8566541999971378,1,92,test2,1,0.8569969999953173,-40.0
8,hdl,m,23,r,1,(121.76378772032349, 121.76378772032349),22,5,2,no,m,6,m,1.1310310999979265,1,93,test2,1,1.1313116000019363,-40.0
8,hdl,m,23,r,1,(121.76378772032346, -121.76378772032352),28,7,3,yes,x,5,x,0.5014443999971263,1,94,test2,1,0.5016340000001946,-38.0
8,hdl,m,23,r,1,(-3.163262682197613e-14, -172.20000000000002),27,5,2,no,m,6,m,0.8002048999987892,1,95,test2,1,0.800783999999112,-38.0
8,hdl,m,23,r,1,(121.76378772032349, 121.76378772032349),22,5,2,yes,x,5,x,0.8699328999937279,1,96,test2,1,0.8701337999955285,-40.0
8,hdl,m,23,r,1,(1.0544208940658713e-14, 172.20000000000002),23,-3,11,yes,x,5,x,0.7065657999992254,1,1,test1,2,0.7067310999991605,-48.0
8,hdl,m,23,r,1,(172.20000000000002, 0.0),21,5,2,yes,x,5,x,0.6828041000044323,1,2,test1,2,0.6830149999950663,-40.0
8,hdl,m,23,r,1,(-121.76378772032348, 121.76378772032349),24,25,4,yes,x,5,x,0.40338750000228174,1,3,test1,2,0.4035046999997576,-20.0
8,hdl,m,23,r,1,(-172.20000000000002, 2.1088417881317425e-14),25,-3,11,yes,x,5,m,0.9323500999962562,0,4,test1,2,0.9324514999971143,-48.0
8,hdl,m,23,r,1,(-3.163262682197613e-14, -172.20000000000002),27,25,4,no,m,6,m,1.2314831999974558,1,5,test1,2,1.2315783000012743,-48.0
8,hdl,m,23,r,1,(121.76378772032346, -121.76378772032352),28,5,2,no,m,6,m,0.95008670000243,1,6,test1,2,0.9507015999988653,-48.0
8,hdl,m,23,r,1,(172.20000000000002, 0.0),21,-25,14,no,m,6,m,1.5587863000037032,1,7,test1,2,1.5589454000000842,-48.0
8,hdl,m,23,r,1,(-172.20000000000002, 2.1088417881317425e-14),25,-3,11,yes,x,5,x,0.9046164000028512,1,8,test1,2,0.9048670000047423,-48.0
8,hdl,m,23,r,1,(-172.20000000000002, 2.1088417881317425e-14),25,7,3,no,m,6,m,1.22744270000112,1,9,test1,2,1.227622300000803,-48.0
8,hdl,m,23,r,1,(121.76378772032346, -121.76378772032352),28,-3,11,yes,x,5,m,1.3229002000007313,0,10,test1,2,1.3230027999961749,-48.0
8,hdl,m,23,r,1,(172.20000000000002, 0.0),21,5,2,yes,x,5,x,1.0879981000034604,1,11,test1,2,1.0882950000013807,-40.0
8,hdl,m,23,r,1,(-3.163262682197613e-14, -172.20000000000002),27,-7,13,yes,x,5,x,0.5699582000015653,1,12,test1,2,0.5700637999980245,-52.0
8,hdl,m,23,r,1,(121.76378772032346, -121.76378772032352),28,-5,12,no,m,6,m,1.1868431000038981,1,13,test1,2,1.1870127999936813,-52.0
8,hdl,m,23,r,1,(-121.76378772032352, -121.76378772032348),26,-3,11,yes,x,5,m,1.0715503000028548,0,14,test1,2,1.0716799000001629,-48.0
8,hdl,m,23,r,1,(-3.163262682197613e-14, -172.20000000000002),27,3,1,yes,x,5,x,0.8961047999982839,1,15,test1,2,0.8964137000002665,-42.0
8,hdl,m,23,r,1,(-121.76378772032352, -121.76378772032348),26,7,3,yes,x,5,x,0.5778960000025108,1,16,test1,2,0.5783003000033204,-38.0
8,hdl,m,23,r,1,(1.0544208940658713e-14, 172.20000000000002),23,-7,13,yes,x,5,x,0.511927099993045,1,17,test1,2,0.5120932000063476,-52.0
8,hdl,m,23,r,1,(-172.20000000000002, 2.1088417881317425e-14),25,7,3,yes,x,5,x,0.9443517000036081,1,18,test1,2,0.9448970999947051,-38.0
8,hdl,m,23,r,1,(172.20000000000002, 0.0),21,25,4,yes,x,5,x,0.5280569000024116,1,19,test1,2,0.5281522999939625,-20.0
8,hdl,m,23,r,1,(-3.163262682197613e-14, -172.20000000000002),27,-5,12,yes,x,5,x,0.6893838000032702,1,20,test1,2,0.6894987000050605,-50.0
8,hdl,m,23,r,1,(172.20000000000002, 0.0),21,3,1,no,m,6,m,0.9091111999950954,1,21,test1,2,0.9092447000002721,-50.0
8,hdl,m,23,r,1,(1.0544208940658713e-14, 172.20000000000002),23,3,1,yes,x,5,x,0.43855839999741875,1,22,test1,2,0.4388561000014306,-42.0
8,hdl,m,23,r,1,(172.20000000000002, 0.0),21,-5,12,yes,x,5,x,0.9019015999947442,1,23,test1,2,0.902012200000172,-50.0
8,hdl,m,23,r,1,(-121.76378772032348, 121.76378772032349),24,-3,11,yes,x,5,x,0.728953800004092,1,24,test1,2,0.7291316999981063,-48.0
8,hdl,m,23,r,1,(-121.76378772032348, 121.76378772032349),24,25,4,no,m,6,m,1.3492239999977755,1,25,test1,2,1.3495037999964552,-48.0
8,hdl,m,23,r,1,(121.76378772032346, -121.76378772032352),28,3,1,yes,x,5,x,1.1628404000002774,1,26,test1,2,1.163010900003428,-42.0
8,hdl,m,23,r,1,(-172.20000000000002, 2.1088417881317425e-14),25,-25,14,yes,x,5,x,0.41584619999775896,1,27,test1,2,0.41594379999878583,-70.0
8,hdl,m,23,r,1,(121.76378772032346, -121.76378772032352),28,3,1,no,m,6,m,0.9685564000028535,1,28,test1,2,0.9688049000033061,-70.0
8,hdl,m,23,r,1,(-3.163262682197613e-14, -172.20000000000002),27,7,3,yes,x,5,x,0.5081979999959003,1,29,test1,2,0.5085239000036381,-38.0
8,hdl,m,23,r,1,(-121.76378772032348, 121.76378772032349),24,-7,13,yes,x,5,x,0.43668500000057975,1,30,test1,2,0.4367982999974629,-52.0
8,hdl,m,23,r,1,(-121.76378772032348, 121.76378772032349),24,25,4,yes,x,5,x,0.562233800003014,1,31,test1,2,0.5623610999973607,-20.0
8,hdl,m,23,r,1,(-121.76378772032352, -121.76378772032348),26,5,2,yes,x,5,x,0.7110831999962102,1,32,test1,2,0.7115188999960083,-40.0
8,hdl,m,23,r,1,(-121.76378772032348, 121.76378772032349),24,5,2,yes,x,5,x,0.44275829999969574,1,33,test1,2,0.4432719000033103,-40.0
8,hdl,m,23,r,1,(1.0544208940658713e-14, 172.20000000000002),23,-25,14,yes,x,5,x,0.39471770000091055,1,34,test1,2,0.3949854000020423,-70.0
8,hdl,m,23,r,1,(121.76378772032349, 121.76378772032349),22,-7,13,yes,x,5,x,0.4108081000013044,1,35,test1,2,0.4109102000002167,-52.0
8,hdl,m,23,r,1,(-172.20000000000002, 2.1088417881317425e-14),25,-5,12,yes,x,5,x,0.5086271999971359,1,36,test1,2,0.5087490999940201,-50.0
8,hdl,m,23,r,1,(121.76378772032346, -121.76378772032352),28,7,3,no,m,6,m,0.7591096999967704,1,37,test1,2,0.7592103999995743,-50.0
8,hdl,m,23,r,1,(121.76378772032349, 121.76378772032349),22,-25,14,yes,x,5,x,0.3922418000001926,1,38,test1,2,0.39245060000394005,-70.0
8,hdl,m,23,r,1,(121.76378772032346, -121.76378772032352),28,25,4,yes,x,5,x,0.4079674000022351,1,39,test1,2,0.408280100004049,-20.0
8,hdl,m,23,r,1,(1.0544208940658713e-14, 172.20000000000002),23,-25,14,yes,x,5,x,0.39901760000066133,1,40,test1,2,0.39926289999857545,-70.0
8,hdl,m,23,r,1,(121.76378772032346, -121.76378772032352),28,-7,13,no,m,6,m,0.6775729000000865,1,41,test1,2,0.677869200000714,-70.0
8,hdl,m,23,r,1,(121.76378772032346, -121.76378772032352),28,-3,11,no,m,6,x,0.5850140999973519,0,42,test1,2,0.5851709999988088,-70.0
8,hdl,m,23,r,1,(-3.163262682197613e-14, -172.20000000000002),27,3,1,yes,x,5,x,0.995778500000597,1,43,test1,2,0.9959416999990935,-42.0
8,hdl,m,23,r,1,(172.20000000000002, 0.0),21,-25,14,yes,x,5,x,0.4158555999965756,1,44,test1,2,0.41598269999667536,-70.0
8,hdl,m,23,r,1,(1.0544208940658713e-14, 172.20000000000002),23,25,4,yes,x,5,x,0.3705499999996391,1,45,test1,2,0.37068169999838574,-20.0
8,hdl,m,23,r,1,(121.76378772032346, -121.76378772032352),28,-5,12,yes,x,5,x,0.9355849000057788,1,46,test1,2,0.9358874999961699,-50.0
8,hdl,m,23,r,1,(172.20000000000002, 0.0),21,3,1,yes,x,5,x,1.3137454000025173,1,47,test1,2,1.3139432000025408,-42.0
8,hdl,m,23,r,1,(-3.163262682197613e-14, -172.20000000000002),27,-25,14,yes,x,5,x,0.5570968000029097,1,48,test1,2,0.557509400001436,-70.0
8,hdl,m,23,r,1,(1.0544208940658713e-14, 172.20000000000002),23,7,3,yes,x,5,x,0.4337749000042095,1,49,test1,2,0.43401060000178404,-38.0
8,hdl,m,23,r,1,(121.76378772032346, -121.76378772032352),28,-25,14,yes,x,5,x,0.3994248000017251,1,50,test1,2,0.3995455000040238,-70.0
8,hdl,m,23,r,1,(1.0544208940658713e-14, 172.20000000000002),23,7,3,yes,x,5,x,0.3740853999988758,1,51,test1,2,0.37418520000210265,-38.0
8,hdl,m,23,r,1,(121.76378772032346, -121.76378772032352),28,5,2,yes,x,5,x,0.8480869000050006,1,52,test1,2,0.8483055999968201,-40.0
8,hdl,m,23,r,1,(-121.76378772032348, 121.76378772032349),24,5,2,no,m,6,m,0.7519239000030211,1,53,test1,2,0.7521387000015238,-40.0
8,hdl,m,23,r,1,(1.0544208940658713e-14, 172.20000000000002),23,-7,13,yes,x,5,x,0.5611796000011964,1,54,test1,2,0.5614055999976699,-52.0
8,hdl,m,23,r,1,(-121.76378772032352, -121.76378772032348),26,-25,14,yes,x,5,x,0.3736519000012777,1,55,test1,2,0.37376610000501387,-70.0
8,hdl,m,23,r,1,(-121.76378772032352, -121.76378772032348),26,-5,12,yes,x,5,x,0.8641921000016737,1,56,test1,2,0.8646432999958051,-50.0
8,hdl,m,23,r,1,(-172.20000000000002, 2.1088417881317425e-14),25,-7,13,no,m,6,m,0.7522090000056778,1,57,test1,2,0.7525366999980179,-50.0
8,hdl,m,23,r,1,(121.76378772032346, -121.76378772032352),28,5,2,yes,x,5,x,0.8841016000005766,1,58,test1,2,0.8847489999971003,-40.0
8,hdl,m,23,r,1,(-121.76378772032348, 121.76378772032349),24,-5,12,yes,x,5,x,0.4649935999987065,1,59,test1,2,0.4650924999950803,-50.0
8,hdl,m,23,r,1,(1.0544208940658713e-14, 172.20000000000002),23,5,2,yes,x,5,x,0.4587974999958533,1,60,test1,2,0.459034999999858,-40.0
8,hdl,m,23,r,1,(-172.20000000000002, 2.1088417881317425e-14),25,-7,13,yes,x,5,x,0.490552099996421,1,61,test1,2,0.4907980999996653,-52.0
8,hdl,m,23,r,1,(-121.76378772032352, -121.76378772032348),26,7,3,yes,x,5,x,0.885771699999168,1,62,test1,2,0.886049799999455,-38.0
8,hdl,m,23,r,1,(121.76378772032349, 121.76378772032349),22,7,3,yes,x,5,x,0.43107810000219615,1,63,test1,2,0.4313246999954572,-38.0
8,hdl,m,23,r,1,(121.76378772032346, -121.76378772032352),28,-5,12,yes,x,5,x,0.48311459999968065,1,64,test1,2,0.4833710999955656,-50.0
8,hdl,m,23,r,1,(-121.76378772032352, -121.76378772032348),26,-25,14,yes,x,5,x,0.39153760000044713,1,65,test1,2,0.3916365000040969,-70.0
8,hdl,m,23,r,1,(172.20000000000002, 0.0),21,-3,11,yes,x,5,m,0.5973242000036407,0,66,test1,2,0.5975583999970695,-48.0
8,hdl,m,23,r,1,(-121.76378772032348, 121.76378772032349),24,-25,14,no,m,6,m,0.7452799000020605,1,67,test1,2,0.745674700003292,-48.0
8,hdl,m,23,r,1,(172.20000000000002, 0.0),21,-5,12,no,m,6,m,1.0736975999971037,1,68,test1,2,1.0740289999957895,-48.0
8,hdl,m,23,r,1,(121.76378772032346, -121.76378772032352),28,25,4,yes,x,5,x,0.4397755999962101,1,69,test1,2,0.4400090999988606,-20.0
8,hdl,m,23,r,1,(121.76378772032349, 121.76378772032349),22,-3,11,yes,x,5,x,1.0251763999985997,1,70,test1,2,1.0255472000062582,-48.0
8,hdl,m,23,r,1,(-172.20000000000002, 2.1088417881317425e-14),25,-5,12,no,m,6,m,1.1387466000014683,1,71,test1,2,1.1390249999967637,-48.0
8,hdl,m,23,r,1,(-121.76378772032352, -121.76378772032348),26,25,4,yes,x,5,x,0.44350649999978486,1,72,test1,2,0.44375729999592295,-20.0
8,hdl,m,23,r,1,(-172.20000000000002, 2.1088417881317425e-14),25,5,2,no,m,6,m,0.8915696999974898,1,73,test1,2,0.8918229000046267,-20.0
8,hdl,m,23,r,1,(-121.76378772032352, -121.76378772032348),26,-3,11,yes,x,5,x,0.5543819000013173,1,74,test1,2,0.554810699999507,-48.0
8,hdl,m,23,r,1,(172.20000000000002, 0.0),21,-7,13,no,m,6,m,0.772923600001377,1,75,test1,2,0.7730267000006279,-48.0
8,hdl,m,23,r,1,(-3.163262682197613e-14, -172.20000000000002),27,5,2,yes,x,5,x,0.769371599999431,1,76,test1,2,0.7695942000063951,-40.0
8,hdl,m,23,r,1,(121.76378772032349, 121.76378772032349),22,25,4,yes,x,5,x,0.5440988000045763,1,77,test1,2,0.5445583000037004,-20.0
8,hdl,m,23,r,1,(1.0544208940658713e-14, 172.20000000000002),23,-3,11,no,m,6,m,0.797348799998872,1,78,test1,2,0.7977215000064461,-20.0
8,hdl,m,23,r,1,(121.76378772032349, 121.76378772032349),22,-25,14,yes,x,5,x,0.3758389999929932,1,79,test1,2,0.37641789999906905,-70.0
8,hdl,m,23,r,1,(172.20000000000002, 0.0),21,7,3,yes,x,5,x,0.4999781000005896,1,80,test1,2,0.5002561000001151,-38.0
8,hdl,m,23,r,1,(-121.76378772032352, -121.76378772032348),26,-7,13,yes,x,5,x,0.39483479999762494,1,81,test1,2,0.3950654000000213,-52.0
8,hdl,m,23,r,1,(121.76378772032349, 121.76378772032349),22,25,4,no,m,6,x,0.48695990000123857,0,82,test1,2,0.48724699999729637,-52.0
8,hdl,m,23,r,1,(-3.163262682197613e-14, -172.20000000000002),27,25,4,yes,x,5,x,0.44730880000133766,1,83,test1,2,0.4476954000056139,-20.0
8,hdl,m,23,r,1,(-121.76378772032348, 121.76378772032349),24,3,1,yes,x,5,x,1.0885070000003907,1,84,test1,2,1.0887457999997423,-42.0
8,hdl,m,23,r,1,(1.0544208940658713e-14, 172.20000000000002),23,3,1,yes,x,5,m,0.9231144000004861,0,85,test1,2,0.9232149999952526,-42.0
8,hdl,m,23,r,1,(-121.76378772032352, -121.76378772032348),26,7,3,no,m,6,m,0.9448816000003717,1,86,test1,2,0.9452019000018481,-42.0
8,hdl,m,23,r,1,(121.76378772032349, 121.76378772032349),22,-7,13,no,m,6,m,0.8379868000047281,1,87,test1,2,0.8381998999975622,-42.0
8,hdl,m,23,r,1,(-121.76378772032348, 121.76378772032349),24,-7,13,no,m,6,m,1.4739856999949552,1,88,test1,2,1.4741410999995423,-42.0
8,hdl,m,23,r,1,(-121.76378772032352, -121.76378772032348),26,5,2,no,m,6,m,1.2931984000024386,1,89,test1,2,1.293416000000434,-42.0
8,hdl,m,23,r,1,(121.76378772032346, -121.76378772032352),28,-25,14,yes,x,5,x,0.5078696999989916,1,90,test1,2,0.5080012999969767,-70.0
8,hdl,m,23,r,1,(121.76378772032349, 121.76378772032349),22,-7,13,yes,x,5,x,0.4402191000044695,1,91,test1,2,0.4405544999972335,-52.0
8,hdl,m,23,r,1,(-121.76378772032352, -121.76378772032348),26,-5,12,yes,x,5,x,0.9732832000008784,1,92,test1,2,0.9734048999962397,-50.0
8,hdl,m,23,r,1,(1.0544208940658713e-14, 172.20000000000002),23,-25,14,no,m,6,m,1.0942524999991292,1,93,test1,2,1.0947195000044303,-50.0
8,hdl,m,23,r,1,(-3.163262682197613e-14, -172.20000000000002),27,-7,13,yes,x,5,x,0.5171190000037313,1,94,test1,2,0.5173495999988518,-52.0
8,hdl,m,23,r,1,(-121.76378772032348, 121.76378772032349),24,3,1,no,m,6,m,0.9919239999944693,1,95,test1,2,0.9921756999974605,-52.0
8,hdl,m,23,r,1,(-172.20000000000002, 2.1088417881317425e-14),25,-25,14,yes,x,5,x,0.46649620000243885,1,96,test1,2,0.46662430000287713,-70.0
8,hdl,m,23,r,1,(172.20000000000002, 0.0),21,-7,13,yes,x,5,x,0.7656583999996656,1,1,test2,2,0.7657846000001882,-52.0
8,hdl,m,23,r,1,(172.20000000000002, 0.0),21,-3,11,no,m,6,m,0.6598309999972116,1,2,test2,2,0.660055200001807,-52.0
8,hdl,m,23,r,1,(121.76378772032346, -121.76378772032352),28,3,1,yes,x,5,x,0.8425707999995211,1,3,test2,2,0.8426678999967407,-42.0
8,hdl,m,23,r,1,(1.0544208940658713e-14, 172.20000000000002),23,3,1,no,m,6,m,1.0900524999960908,1,4,test2,2,1.090428100003919,-42.0
8,hdl,m,23,r,1,(121.76378772032346, -121.76378772032352),28,25,4,no,m,6,m,0.7691720000002533,1,5,test2,2,0.7692996999976458,-42.0
8,hdl,m,23,r,1,(-121.76378772032352, -121.76378772032348),26,-3,11,no,m,6,m,0.8886958999937633,1,6,test2,2,0.8887966999973287,-42.0
8,hdl,m,23,r,1,(-121.76378772032348, 121.76378772032349),24,5,2,yes,x,5,x,0.5316389999934472,1,7,test2,2,0.5320808000033139,-40.0
8,hdl,m,23,r,1,(-121.76378772032348, 121.76378772032349),24,7,3,yes,x,5,x,0.5410509000066668,1,8,test2,2,0.5414405000046827,-38.0
8,hdl,m,23,r,1,(-121.76378772032352, -121.76378772032348),26,25,4,no,m,6,m,1.2690588999976171,1,9,test2,2,1.2691759999943315,-38.0
8,hdl,m,23,r,1,(-3.163262682197613e-14, -172.20000000000002),27,-5,12,no,m,6,m,0.6612107999972068,1,10,test2,2,0.6613446999981534,-38.0
8,hdl,m,23,r,1,(-3.163262682197613e-14, -172.20000000000002),27,-3,11,yes,x,5,x,0.9090337000016007,1,11,test2,2,0.9091945000036503,-48.0
8,hdl,m,23,r,1,(121.76378772032349, 121.76378772032349),22,5,2,yes,x,5,x,0.9428038000041852,1,12,test2,2,0.9429042999981903,-40.0
8,hdl,m,23,r,1,(-172.20000000000002, 2.1088417881317425e-14),25,3,1,yes,x,5,x,0.7105242000034195,1,13,test2,2,0.7107440999971004,-42.0
8,hdl,m,23,r,1,(-3.163262682197613e-14, -172.20000000000002),27,-3,11,no,m,6,m,0.9080193000045256,1,14,test2,2,0.9081143000003067,-42.0
8,hdl,m,23,r,1,(121.76378772032349, 121.76378772032349),22,-5,12,yes,x,5,x,0.7226373000012245,1,15,test2,2,0.7227979999952368,-50.0
8,hdl,m,23,r,1,(121.76378772032346, -121.76378772032352),28,-7,13,yes,x,5,x,0.740410400001565,1,16,test2,2,0.7407817999992403,-52.0
8,hdl,m,23,r,1,(1.0544208940658713e-14, 172.20000000000002),23,-7,13,no,m,6,m,1.0259886999992887,1,17,test2,2,1.0262102999986382,-52.0
8,hdl,m,23,r,1,(-172.20000000000002, 2.1088417881317425e-14),25,5,2,yes,x,5,x,0.5171985999986646,1,18,test2,2,0.5172923999998602,-40.0
8,hdl,m,23,r,1,(172.20000000000002, 0.0),21,7,3,no,m,6,m,0.8218704000028083,1,19,test2,2,0.8221979000009014,-40.0
8,hdl,m,23,r,1,(-121.76378772032348, 121.76378772032349),24,7,3,yes,x,5,x,0.48831179999979213,1,20,test2,2,0.48851330000616144,-38.0
8,hdl,m,23,r,1,(1.0544208940658713e-14, 172.20000000000002),23,25,4,yes,x,5,x,0.4569487999979174,1,21,test2,2,0.45741070000076434,-20.0
8,hdl,m,23,r,1,(-172.20000000000002, 2.1088417881317425e-14),25,3,1,no,m,6,m,0.7748722000033013,1,22,test2,2,0.775391999995918,-20.0
8,hdl,m,23,r,1,(-172.20000000000002, 2.1088417881317425e-14),25,7,3,yes,x,5,x,0.6802167999994708,1,23,test2,2,0.6803773999999976,-38.0
8,hdl,m,23,r,1,(121.76378772032349, 121.76378772032349),22,-3,11,no,m,6,m,0.8562466000003042,1,24,test2,2,0.856349699999555,-38.0
8,hdl,m,23,r,1,(172.20000000000002, 0.0),21,-7,13,yes,x,5,x,0.6140790999997989,1,25,test2,2,0.6143127999966964,-52.0
8,hdl,m,23,r,1,(121.76378772032349, 121.76378772032349),22,7,3,yes,x,5,x,0.4282537999970373,1,26,test2,2,0.4283821000062744,-38.0
8,hdl,m,23,r,1,(-172.20000000000002, 2.1088417881317425e-14),25,-5,12,yes,x,5,x,0.7110734999951092,1,27,test2,2,0.7111745999936829,-50.0
8,hdl,m,23,r,1,(1.0544208940658713e-14, 172.20000000000002),23,-5,12,yes,x,5,x,0.43981239999993704,1,28,test2,2,0.4399468999981764,-50.0
8,hdl,m,23,r,1,(1.0544208940658713e-14, 172.20000000000002),23,5,2,yes,x,5,x,0.4819236999974237,1,29,test2,2,0.4820171000028495,-40.0
8,hdl,m,23,r,1,(172.20000000000002, 0.0),21,25,4,no,m,6,m,0.9414915000015753,1,30,test2,2,0.94184800000221,-40.0
8,hdl,m,23,r,1,(121.76378772032349, 121.76378772032349),22,25,4,yes,x,5,x,0.429183499996725,1,31,test2,2,0.4294902999972692,-20.0
8,hdl,m,23,r,1,(121.76378772032349, 121.76378772032349),22,3,1,yes,x,5,m,0.8149957999994513,0,32,test2,2,0.8151549000031082,-42.0
8,hdl,m,23,r,1,(-3.163262682197613e-14, -172.20000000000002),27,-7,13,no,m,6,m,0.9385509999992792,1,33,test2,2,0.9388805999988108,-42.0
8,hdl,m,23,r,1,(-3.163262682197613e-14, -172.20000000000002),27,7,3,no,m,6,m,0.8450928000020212,1,34,test2,2,0.8452582999962033,-42.0
8,hdl,m,23,r,1,(121.76378772032346, -121.76378772032352),28,-3,11,yes,x,5,m,0.8318016999983229,0,35,test2,2,0.8322754999971949,-48.0
8,hdl,m,23,r,1,(1.0544208940658713e-14, 172.20000000000002),23,-3,11,yes,x,5,x,0.5569022999989102,1,36,test2,2,0.5571553999980097,-48.0
8,hdl,m,23,r,1,(1.0544208940658713e-14, 172.20000000000002),23,5,2,no,m,6,m,1.2088822000005166,1,37,test2,2,1.2090494999938528,-48.0
8,hdl,m,23,r,1,(-121.76378772032352, -121.76378772032348),26,-5,12,no,m,6,m,0.8639127000060398,1,38,test2,2,0.8641554999994696,-48.0
8,hdl,m,23,r,1,(-172.20000000000002, 2.1088417881317425e-14),25,25,4,yes,x,5,x,0.5485383999985061,1,39,test2,2,0.5487800999981118,-20.0
8,hdl,m,23,r,1,(-121.76378772032348, 121.76378772032349),24,-3,11,yes,x,5,x,0.8605085000017425,1,40,test2,2,0.8606376999960048,-48.0
8,hdl,m,23,r,1,(-172.20000000000002, 2.1088417881317425e-14),25,-3,11,no,m,6,m,0.9502416000032099,1,41,test2,2,0.9506970999937039,-48.0
8,hdl,m,23,r,1,(-172.20000000000002, 2.1088417881317425e-14),25,25,4,yes,x,5,x,0.4163198999958695,1,42,test2,2,0.41698310000356287,-20.0
8,hdl,m,23,r,1,(121.76378772032346, -121.76378772032352),28,-7,13,yes,x,5,x,0.5536687999992864,1,43,test2,2,0.5537668000033591,-52.0
8,hdl,m,23,r,1,(172.20000000000002, 0.0),21,-25,14,yes,x,5,x,0.43323919999966165,1,44,test2,2,0.4334229000014602,-70.0
8,hdl,m,23,r,1,(121.76378772032349, 121.76378772032349),22,-25,14,no,m,6,m,1.1021296000035363,1,45,test2,2,1.1022595000031288,-70.0
8,hdl,m,23,r,1,(-3.163262682197613e-14, -172.20000000000002),27,-25,14,no,m,6,m,0.8270582999975886,1,46,test2,2,0.8271538999979384,-70.0
8,hdl,m,23,r,1,(121.76378772032349, 121.76378772032349),22,3,1,yes,x,5,m,0.824648800000432,0,47,test2,2,0.824805500000366,-42.0
8,hdl,m,23,r,1,(-121.76378772032348, 121.76378772032349),24,-25,14,yes,x,5,x,0.3730728000009549,1,48,test2,2,0.37353479999728734,-70.0
8,hdl,m,23,r,1,(1.0544208940658713e-14, 172.20000000000002),23,-5,12,yes,x,5,x,0.49540540000452893,1,49,test2,2,0.4958353999973042,-50.0
8,hdl,m,23,r,1,(172.20000000000002, 0.0),21,-3,11,yes,x,5,m,0.9258210999978473,0,50,test2,2,0.9259557999976096,-48.0
8,hdl,m,23,r,1,(-121.76378772032352, -121.76378772032348),26,-7,13,yes,x,5,x,0.5056186000001617,1,51,test2,2,0.5059962000013911,-52.0
8,hdl,m,23,r,1,(-121.76378772032348, 121.76378772032349),24,-7,13,yes,x,5,x,0.45663219999551075,1,52,test2,2,0.4567458999954397,-52.0
8,hdl,m,23,r,1,(-121.76378772032348, 121.76378772032349),24,-25,14,yes,x,5,x,0.45092060000024503,1,53,test2,2,0.4510632999954396,-70.0
8,hdl,m,23,r,1,(-3.163262682197613e-14, -172.20000000000002),27,-3,11,yes,x,5,x,0.8114767000006395,1,54,test2,2,0.8116676999998163,-48.0
8,hdl,m,23,r,1,(-172.20000000000002, 2.1088417881317425e-14),25,3,1,yes,x,5,x,0.570179399997869,1,55,test2,2,0.5703572000056738,-42.0
8,hdl,m,23,r,1,(-172.20000000000002, 2.1088417881317425e-14),25,-7,13,yes,x,5,x,0.41284019999875454,1,56,test2,2,0.41318479999608826,-52.0
8,hdl,m,23,r,1,(121.76378772032349, 121.76378772032349),22,-5,12,no,m,6,m,0.9309314999991329,1,57,test2,2,0.9313716999968165,-52.0
8,hdl,m,23,r,1,(-121.76378772032352, -121.76378772032348),26,-7,13,no,m,6,m,0.9975932999950601,1,58,test2,2,0.998245599999791,-52.0
8,hdl,m,23,r,1,(-121.76378772032348, 121.76378772032349),24,-3,11,no,m,6,m,0.9893219000005047,1,59,test2,2,0.9894342999978107,-52.0
8,hdl,m,23,r,1,(-121.76378772032352, -121.76378772032348),26,5,2,yes,x,5,x,0.6550016000037431,1,60,test2,2,0.655130500002997,-40.0
8,hdl,m,23,r,1,(172.20000000000002, 0.0),21,7,3,yes,x,5,x,0.5623895000026096,1,61,test2,2,0.5626769000009517,-38.0
8,hdl,m,23,r,1,(121.76378772032349, 121.76378772032349),22,-5,12,yes,x,5,x,0.5130293999973219,1,62,test2,2,0.5133618000036222,-50.0
8,hdl,m,23,r,1,(1.0544208940658713e-14, 172.20000000000002),23,25,4,no,m,6,x,1.4100863999992725,0,63,test2,2,1.4103812000030302,-50.0
8,hdl,m,23,r,1,(121.76378772032346, -121.76378772032352),28,-25,14,no,m,6,m,1.0930550999983097,1,64,test2,2,1.093725999999151,-50.0
8,hdl,m,23,r,1,(-121.76378772032352, -121.76378772032348),26,3,1,yes,x,5,x,1.2405125000004773,1,65,test2,2,1.2406093000026885,-42.0
8,hdl,m,23,r,1,(172.20000000000002, 0.0),21,3,1,yes,x,5,x,0.9742932000008295,1,66,test2,2,0.9746721000046819,-42.0
8,hdl,m,23,r,1,(-121.76378772032352, -121.76378772032348),26,3,1,no,m,6,m,0.8955544999989797,1,67,test2,2,0.8956883999999263,-42.0
8,hdl,m,23,r,1,(121.76378772032349, 121.76378772032349),22,3,1,no,m,6,m,0.9715614000015194,1,68,test2,2,0.9717973000006168,-42.0
8,hdl,m,23,r,1,(-172.20000000000002, 2.1088417881317425e-14),25,-25,14,no,m,6,m,0.8098967000041739,1,69,test2,2,0.8101110999996308,-42.0
8,hdl,m,23,r,1,(-121.76378772032352, -121.76378772032348),26,25,4,yes,x,5,x,0.6027098000049591,1,70,test2,2,0.6030860000028042,-20.0
8,hdl,m,23,r,1,(-3.163262682197613e-14, -172.20000000000002),27,7,3,yes,x,5,x,0.668891799999983,1,71,test2,2,0.6696262000041315,-38.0
8,hdl,m,23,r,1,(-121.76378772032348, 121.76378772032349),24,-5,12,no,m,6,m,1.3568696000002092,1,72,test2,2,1.3571822000012617,-38.0
8,hdl,m,23,r,1,(121.76378772032346, -121.76378772032352),28,7,3,yes,x,5,x,0.5351607999982662,1,73,test2,2,0.5352638000040315,-38.0
8,hdl,m,23,r,1,(1.0544208940658713e-14, 172.20000000000002),23,7,3,no,m,6,m,0.8578802999982145,1,74,test2,2,0.8579949999984819,-38.0
8,hdl,m,23,r,1,(-121.76378772032352, -121.76378772032348),26,-25,14,no,m,6,m,0.9412951999984216,1,75,test2,2,0.9415251000027638,-38.0
8,hdl,m,23,r,1,(172.20000000000002, 0.0),21,-5,12,yes,x,5,x,0.7084434999997029,1,76,test2,2,0.7086782000042149,-50.0
8,hdl,m,23,r,1,(-3.163262682197613e-14, -172.20000000000002),27,25,4,yes,x,5,x,0.6072180999981356,1,77,test2,2,0.6076084000014816,-20.0
8,hdl,m,23,r,1,(121.76378772032349, 121.76378772032349),22,7,3,no,m,6,m,1.1622352999984287,1,78,test2,2,1.162330799998017,-20.0
8,hdl,m,23,r,1,(172.20000000000002, 0.0),21,5,2,no,m,6,m,1.187412299994321,1,79,test2,2,1.1876986999996006,-20.0
8,hdl,m,23,r,1,(-3.163262682197613e-14, -172.20000000000002),27,-25,14,yes,x,5,x,0.6075519999940298,1,80,test2,2,0.6076803000032669,-70.0
8,hdl,m,23,r,1,(-121.76378772032352, -121.76378772032348),26,3,1,yes,x,5,m,0.8829879999975674,0,81,test2,2,0.8832034000006388,-42.0
8,hdl,m,23,r,1,(-172.20000000000002, 2.1088417881317425e-14),25,25,4,no,m,6,m,1.4323593999943114,1,82,test2,2,1.4324705000035465,-42.0
8,hdl,m,23,r,1,(172.20000000000002, 0.0),21,25,4,yes,x,5,x,0.6841043000022182,1,83,test2,2,0.6843594999954803,-20.0
8,hdl,m,23,r,1,(-121.76378772032348, 121.76378772032349),24,-5,12,yes,x,5,x,0.5559374000004027,1,84,test2,2,0.5561798999988241,-50.0
8,hdl,m,23,r,1,(121.76378772032349, 121.76378772032349),22,-3,11,yes,x,5,x,0.8871837999977288,1,85,test2,2,0.8873386999985087,-48.0
8,hdl,m,23,r,1,(1.0544208940658713e-14, 172.20000000000002),23,-5,12,no,m,6,m,1.1790043000000878,1,86,test2,2,1.179129300006025,-48.0
8,hdl,m,23,r,1,(-121.76378772032348, 121.76378772032349),24,3,1,yes,x,5,x,0.8633450999986962,1,87,test2,2,0.8637745999949402,-42.0
8,hdl,m,23,r,1,(-3.163262682197613e-14, -172.20000000000002),27,3,1,no,m,6,m,0.7529291000028024,1,88,test2,2,0.7531560999996145,-42.0
8,hdl,m,23,r,1,(-3.163262682197613e-14, -172.20000000000002),27,5,2,yes,x,5,x,0.6494215000057011,1,89,test2,2,0.6495562000054633,-40.0
8,hdl,m,23,r,1,(-3.163262682197613e-14, -172.20000000000002),27,-5,12,yes,x,5,x,0.8665013999998337,1,90,test2,2,0.8671448000022792,-50.0
8,hdl,m,23,r,1,(-172.20000000000002, 2.1088417881317425e-14),25,5,2,yes,x,5,x,0.6749035000029835,1,91,test2,2,0.6755715000035707,-40.0
8,hdl,m,23,r,1,(-121.76378772032348, 121.76378772032349),24,7,3,no,m,6,m,1.1502632000047015,1,92,test2,2,1.1508391999959713,-40.0
8,hdl,m,23,r,1,(121.76378772032349, 121.76378772032349),22,5,2,no,m,6,m,1.1923070999982883,1,93,test2,2,1.1924383000005037,-40.0
8,hdl,m,23,r,1,(121.76378772032346, -121.76378772032352),28,7,3,yes,x,5,x,0.61949569999706,1,94,test2,2,0.6195933999988483,-38.0
8,hdl,m,23,r,1,(-3.163262682197613e-14, -172.20000000000002),27,5,2,no,m,6,m,1.18409629999951,1,95,test2,2,1.1842166999995243,-38.0
8,hdl,m,23,r,1,(121.76378772032349, 121.76378772032349),22,5,2,yes,x,5,x,0.5543219999963185,1,96,test2,2,0.5545807000016794,-40.0
8,hdl,m,23,r,1,(1.0544208940658713e-14, 172.20000000000002),23,-3,11,yes,x,5,x,0.880243799998425,1,1,test1,3,0.8804023999982746,-48.0
8,hdl,m,23,r,1,(172.20000000000002, 0.0),21,5,2,yes,x,5,x,0.6886192000019946,1,2,test1,3,0.68874269999651,-40.0
8,hdl,m,23,r,1,(-121.76378772032348, 121.76378772032349),24,25,4,yes,x,5,x,0.3378517000019201,1,3,test1,3,0.3379865999959293,-20.0
8,hdl,m,23,r,1,(-172.20000000000002, 2.1088417881317425e-14),25,-3,11,yes,x,5,x,1.2346804000044358,1,4,test1,3,1.23479679999582,-48.0
8,hdl,m,23,r,1,(-3.163262682197613e-14, -172.20000000000002),27,25,4,no,m,6,m,0.9163423999998486,1,5,test1,3,0.9165024999965681,-48.0
8,hdl,m,23,r,1,(121.76378772032346, -121.76378772032352),28,5,2,no,m,6,m,1.6206070000043837,1,6,test1,3,1.6207158000033814,-48.0
8,hdl,m,23,r,1,(172.20000000000002, 0.0),21,-25,14,no,m,6,m,1.1002260999957798,1,7,test1,3,1.1004987000051187,-48.0
8,hdl,m,23,r,1,(-172.20000000000002, 2.1088417881317425e-14),25,-3,11,yes,x,5,x,0.5308795999953873,1,8,test1,3,0.5313838000001851,-48.0
8,hdl,m,23,r,1,(-172.20000000000002, 2.1088417881317425e-14),25,7,3,no,m,6,m,1.0467688999997335,1,9,test1,3,1.0470149999964633,-48.0
8,hdl,m,23,r,1,(121.76378772032346, -121.76378772032352),28,-3,11,yes,x,5,m,1.000824000002467,0,10,test1,3,1.0009812999996939,-48.0
8,hdl,m,23,r,1,(172.20000000000002, 0.0),21,5,2,yes,x,5,x,0.7443742000032216,1,11,test1,3,0.7445413000023109,-40.0
8,hdl,m,23,r,1,(-3.163262682197613e-14, -172.20000000000002),27,-7,13,yes,x,5,x,0.6583857000005082,1,12,test1,3,0.6584855999972206,-52.0
8,hdl,m,23,r,1,(121.76378772032346, -121.76378772032352),28,-5,12,no,m,6,m,0.8961213000002317,1,13,test1,3,0.8969782999993186,-52.0
8,hdl,m,23,r,1,(-121.76378772032352, -121.76378772032348),26,-3,11,yes,x,5,x,1.0228084999980638,1,14,test1,3,1.022909699997399,-48.0
8,hdl,m,23,r,1,(-3.163262682197613e-14, -172.20000000000002),27,3,1,yes,x,5,x,0.5734674999985145,1,15,test1,3,0.573581099997682,-42.0
8,hdl,m,23,r,1,(-121.76378772032352, -121.76378772032348),26,7,3,yes,x,5,x,0.44946820000041043,1,16,test1,3,0.44985829999495763,-38.0
8,hdl,m,23,r,1,(1.0544208940658713e-14, 172.20000000000002),23,-7,13,yes,x,5,x,0.394785900003626,1,17,test1,3,0.3950081999937538,-52.0
8,hdl,m,23,r,1,(-172.20000000000002, 2.1088417881317425e-14),25,7,3,yes,x,5,x,0.452359199996863,1,18,test1,3,0.4525546000004397,-38.0
8,hdl,m,23,r,1,(172.20000000000002, 0.0),21,25,4,yes,x,5,x,0.5520957999979146,1,19,test1,3,0.5523075000019162,-20.0
8,hdl,m,23,r,1,(-3.163262682197613e-14, -172.20000000000002),27,-5,12,yes,x,5,x,0.6040808000034303,1,20,test1,3,0.6042794000022695,-50.0
8,hdl,m,23,r,1,(172.20000000000002, 0.0),21,3,1,no,m,6,m,0.874772999995912,1,21,test1,3,0.875085500003479,-50.0
8,hdl,m,23,r,1,(1.0544208940658713e-14, 172.20000000000002),23,3,1,yes,x,5,x,0.5071129000061774,1,22,test1,3,0.5072632000010344,-42.0
8,hdl,m,23,r,1,(172.20000000000002, 0.0),21,-5,12,yes,x,5,x,0.5175748999972711,1,23,test1,3,0.517697200004477,-50.0
8,hdl,m,23,r,1,(-121.76378772032348, 121.76378772032349),24,-3,11,yes,x,5,x,0.452581999998074,1,24,test1,3,0.4526996999993571,-48.0
8,hdl,m,23,r,1,(-121.76378772032348, 121.76378772032349),24,25,4,no,m,6,x,1.495176899996295,0,25,test1,3,1.495329600002151,-48.0
8,hdl,m,23,r,1,(121.76378772032346, -121.76378772032352),28,3,1,yes,x,5,x,1.2788800000053016,1,26,test1,3,1.2790081999992253,-42.0
8,hdl,m,23,r,1,(-172.20000000000002, 2.1088417881317425e-14),25,-25,14,yes,x,5,x,0.5705765999955474,1,27,test1,3,0.570800399997097,-70.0
8,hdl,m,23,r,1,(121.76378772032346, -121.76378772032352),28,3,1,no,m,6,m,1.1783905000047525,1,28,test1,3,1.178670900000725,-70.0
8,hdl,m,23,r,1,(-3.163262682197613e-14, -172.20000000000002),27,7,3,yes,x,5,x,0.4758423999955994,1,29,test1,3,0.47594029999891063,-38.0
8,hdl,m,23,r,1,(-121.76378772032348, 121.76378772032349),24,-7,13,yes,x,5,x,0.42188439999881666,1,30,test1,3,0.42201159999967786,-52.0
8,hdl,m,23,r,1,(-121.76378772032348, 121.76378772032349),24,25,4,yes,x,5,x,0.3999972000019625,1,31,test1,3,0.40041320000455016,-20.0
8,hdl,m,23,r,1,(-121.76378772032352, -121.76378772032348),26,5,2,yes,x,5,x,0.7348988000012469,1,32,test1,3,0.73522519999824,-40.0
8,hdl,m,23,r,1,(-121.76378772032348, 121.76378772032349),24,5,2,yes,x,5,x,0.6250759000031394,1,33,test1,3,0.6253011000007973,-40.0
8,hdl,m,23,r,1,(1.0544208940658713e-14, 172.20000000000002),23,-25,14,yes,x,5,x,0.45686099999875296,1,34,test1,3,0.4570951999994577,-70.0
8,hdl,m,23,r,1,(121.76378772032349, 121.76378772032349),22,-7,13,yes,x,5,x,0.5071398000000045,1,35,test1,3,0.507252100003825,-52.0
8,hdl,m,23,r,1,(-172.20000000000002, 2.1088417881317425e-14),25,-5,12,yes,x,5,x,0.8165255999992951,1,36,test1,3,0.8166417999964324,-50.0
8,hdl,m,23,r,1,(121.76378772032346, -121.76378772032352),28,7,3,no,m,6,m,1.000126499995531,1,37,test1,3,1.000281200002064,-50.0
8,hdl,m,23,r,1,(121.76378772032349, 121.76378772032349),22,-25,14,yes,x,5,x,0.5676410000014585,1,38,test1,3,0.5677377999963937,-70.0
8,hdl,m,23,r,1,(121.76378772032346, -121.76378772032352),28,25,4,yes,x,5,x,0.4683731000041007,1,39,test1,3,0.46866149999550544,-20.0
8,hdl,m,23,r,1,(1.0544208940658713e-14, 172.20000000000002),23,-25,14,yes,x,5,x,0.5470801000046777,1,40,test1,3,0.5472862000024179,-70.0
8,hdl,m,23,r,1,(121.76378772032346, -121.76378772032352),28,-7,13,no,m,6,m,0.9080514000015683,1,41,test1,3,0.9081769000040367,-70.0
8,hdl,m,23,r,1,(121.76378772032346, -121.76378772032352),28,-3,11,no,m,6,m,1.0261191000026884,1,42,test1,3,1.0263352999972994,-70.0
8,hdl,m,23,r,1,(-3.163262682197613e-14, -172.20000000000002),27,3,1,yes,x,5,m,0.9766807000050903,0,43,test1,3,0.9772034000052372,-42.0
8,hdl,m,23,r,1,(172.20000000000002, 0.0),21,-25,14,yes,x,5,x,0.5898080999977537,1,44,test1,3,0.5902247000049101,-70.0
8,hdl,m,23,r,1,(1.0544208940658713e-14, 172.20000000000002),23,25,4,yes,x,5,x,0.36807549999502953,1,45,test1,3,0.36827120000089053,-20.0
8,hdl,m,23,r,1,(121.76378772032346, -121.76378772032352),28,-5,12,yes,x,5,x,1.1282042000020738,1,46,test1,3,1.1284659999946598,-50.0
8,hdl,m,23,r,1,(172.20000000000002, 0.0),21,3,1,yes,x,5,m,1.5326963999978034,0,47,test1,3,1.5328901000029873,-42.0
8,hdl,m,23,r,1,(-3.163262682197613e-14, -172.20000000000002),27,-25,14,yes,x,5,x,0.4167451999965124,1,48,test1,3,0.4172679000039352,-70.0
8,hdl,m,23,r,1,(1.0544208940658713e-14, 172.20000000000002),23,7,3,yes,x,5,x,0.41067289999773493,1,49,test1,3,0.41094860000157496,-38.0
8,hdl,m,23,r,1,(121.76378772032346, -121.76378772032352),28,-25,14,yes,x,5,x,0.39220750000094995,1,50,test1,3,0.3927181000035489,-70.0
8,hdl,m,23,r,1,(1.0544208940658713e-14, 172.20000000000002),23,7,3,yes,x,5,x,0.3829249999980675,1,51,test1,3,0.38360999999713385,-38.0
8,hdl,m,23,r,1,(121.76378772032346, -121.76378772032352),28,5,2,yes,x,5,x,0.7275930999967386,1,52,test1,3,0.7277092999938759,-40.0
8,hdl,m,23,r,1,(-121.76378772032348, 121.76378772032349),24,5,2,no,m,6,x,0.6801593999989564,0,53,test1,3,0.6802860999960103,-40.0
8,hdl,m,23,r,1,(1.0544208940658713e-14, 172.20000000000002),23,-7,13,yes,x,5,x,0.5014692999975523,1,54,test1,3,0.5020719999956782,-52.0
8,hdl,m,23,r,1,(-121.76378772032352, -121.76378772032348),26,-25,14,yes,x,5,x,0.4224552000014228,1,55,test1,3,0.4225685999990674,-70.0
8,hdl,m,23,r,1,(-121.76378772032352, -121.76378772032348),26,-5,12,yes,x,5,x,1.1682265999988886,1,56,test1,3,1.1683275999967009,-50.0
8,hdl,m,23,r,1,(-172.20000000000002, 2.1088417881317425e-14),25,-7,13,no,m,6,m,0.9785470999995596,1,57,test1,3,0.9786600000006729,-50.0
8,hdl,m,23,r,1,(121.76378772032346, -121.76378772032352),28,5,2,yes,x,5,x,0.8399753999983659,1,58,test1,3,0.8400757999988855,-40.0
8,hdl,m,23,r,1,(-121.76378772032348, 121.76378772032349),24,-5,12,yes,x,5,x,0.49672350000037113,1,59,test1,3,0.4969446000031894,-50.0
8,hdl,m,23,r,1,(1.0544208940658713e-14, 172.20000000000002),23,5,2,yes,x,5,x,0.5281430000031833,1,60,test1,3,0.5292747999992571,-40.0
8,hdl,m,23,r,1,(-172.20000000000002, 2.1088417881317425e-14),25,-7,13,yes,x,5,x,0.4439949000006891,1,61,test1,3,0.4441155999957118,-52.0
8,hdl,m,23,r,1,(-121.76378772032352, -121.76378772032348),26,7,3,yes,x,5,x,0.4782564999986789,1,62,test1,3,0.478383900001063,-38.0
8,hdl,m,23,r,1,(121.76378772032349, 121.76378772032349),22,7,3,yes,x,5,x,0.4876570999986143,1,63,test1,3,0.4879363000000012,-38.0
8,hdl,m,23,r,1,(121.76378772032346, -121.76378772032352),28,-5,12,yes,x,5,x,0.79499190000206,1,64,test1,3,0.7950907000049483,-50.0
8,hdl,m,23,r,1,(-121.76378772032352, -121.76378772032348),26,-25,14,yes,x,5,x,0.38759070000378415,1,65,test1,3,0.3877104999992298,-70.0
8,hdl,m,23,r,1,(172.20000000000002, 0.0),21,-3,11,yes,x,5,x,0.9574567000017851,1,66,test1,3,0.9575470999989193,-48.0
8,hdl,m,23,r,1,(-121.76378772032348, 121.76378772032349),24,-25,14,no,m,6,x,0.9307195000001229,0,67,test1,3,0.9311579000059282,-48.0
8,hdl,m,23,r,1,(172.20000000000002, 0.0),21,-5,12,no,m,6,m,1.5193108000021311,1,68,test1,3,1.5194080000001122,-48.0
8,hdl,m,23,r,1,(121.76378772032346, -121.76378772032352),28,25,4,yes,x,5,x,0.5115385000026436,1,69,test1,3,0.5117424999989453,-20.0
8,hdl,m,23,r,1,(121.76378772032349, 121.76378772032349),22,-3,11,yes,x,5,x,0.6490675000022748,1,70,test1,3,0.6491887000011047,-48.0
8,hdl,m,23,r,1,(-172.20000000000002, 2.1088417881317425e-14),25,-5,12,no,m,6,m,0.9942183999955887,1,71,test1,3,0.9948848999993061,-48.0
8,hdl,m,23,r,1,(-121.76378772032352, -121.76378772032348),26,25,4,yes,x,5,x,0.5306279999931576,1,72,test1,3,0.5310265000007348,-20.0
8,hdl,m,23,r,1,(-172.20000000000002, 2.1088417881317425e-14),25,5,2,no,m,6,m,1.0041507999994792,1,73,test1,3,1.00443660000019,-20.0
8,hdl,m,23,r,1,(-121.76378772032352, -121.76378772032348),26,-3,11,yes,x,5,x,0.5950671999962651,1,74,test1,3,0.5953596999970614,-48.0
8,hdl,m,23,r,1,(172.20000000000002, 0.0),21,-7,13,no,m,6,m,0.8852182999980869,1,75,test1,3,0.8853283999997075,-48.0
8,hdl,m,23,r,1,(-3.163262682197613e-14, -172.20000000000002),27,5,2,yes,x,5,x,0.5862639000042691,1,76,test1,3,0.586365700000897,-40.0
8,hdl,m,23,r,1,(121.76378772032349, 121.76378772032349),22,25,4,yes,x,5,x,0.49452320000273176,1,77,test1,3,0.4946209000045201,-20.0
8,hdl,m,23,r,1,(1.0544208940658713e-14, 172.20000000000002),23,-3,11,no,m,6,m,0.7100920999946538,1,78,test1,3,0.7103271000014502,-20.0
8,hdl,m,23,r,1,(121.76378772032349, 121.76378772032349),22,-25,14,yes,x,5,x,0.41345929999806685,1,79,test1,3,0.41382350000640145,-70.0
8,hdl,m,23,r,1,(172.20000000000002, 0.0),21,7,3,yes,x,5,x,0.8486618000024464,1,80,test1,3,0.8487628000002587,-38.0
8,hdl,m,23,r,1,(-121.76378772032352, -121.76378772032348),26,-7,13,yes,x,5,x,0.5385929999974906,1,81,test1,3,0.538937099998293,-52.0
8,hdl,m,23,r,1,(121.76378772032349, 121.76378772032349),22,25,4,no,m,6,m,0.7845229000013205,1,82,test1,3,0.7847876000014367,-52.0
8,hdl,m,23,r,1,(-3.163262682197613e-14, -172.20000000000002),27,25,4,yes,x,5,x,0.3940389000053983,1,83,test1,3,0.39431060000060825,-20.0
8,hdl,m,23,r,1,(-121.76378772032348, 121.76378772032349),24,3,1,yes,x,5,x,0.8484146999981022,1,84,test1,3,0.8486569000015152,-42.0
8,hdl,m,23,r,1,(1.0544208940658713e-14, 172.20000000000002),23,3,1,yes,x,5,x,0.9716872999997577,1,85,test1,3,0.9719325999976718,-42.0
8,hdl,m,23,r,1,(-121.76378772032352, -121.76378772032348),26,7,3,no,m,6,m,0.7703241999988677,1,86,test1,3,0.7704956000015954,-42.0
8,hdl,m,23,r,1,(121.76378772032349, 121.76378772032349),22,-7,13,no,m,6,m,1.2166694999978063,1,87,test1,3,1.2168996999971569,-42.0
8,hdl,m,23,r,1,(-121.76378772032348, 121.76378772032349),24,-7,13,no,m,6,m,1.1639603000003262,1,88,test1,3,1.1640528999996604,-42.0
8,hdl,m,23,r,1,(-121.76378772032352, -121.76378772032348),26,5,2,no,m,6,m,0.9420009999957983,1,89,test1,3,0.9421311999976751,-42.0
8,hdl,m,23,r,1,(121.76378772032346, -121.76378772032352),28,-25,14,yes,x,5,x,0.5499859000046854,1,90,test1,3,0.55019230000471,-70.0
8,hdl,m,23,r,1,(121.76378772032349, 121.76378772032349),22,-7,13,yes,x,5,x,0.5017098000025726,1,91,test1,3,0.501915499997267,-52.0
8,hdl,m,23,r,1,(-121.76378772032352, -121.76378772032348),26,-5,12,yes,x,5,x,0.8862810000064201,1,92,test1,3,0.8863932000022032,-50.0
8,hdl,m,23,r,1,(1.0544208940658713e-14, 172.20000000000002),23,-25,14,no,m,6,m,0.8747514999995474,1,93,test1,3,0.8750395000024582,-50.0
8,hdl,m,23,r,1,(-3.163262682197613e-14, -172.20000000000002),27,-7,13,yes,x,5,x,0.5246779000008246,1,94,test1,3,0.5248859000057564,-52.0
8,hdl,m,23,r,1,(-121.76378772032348, 121.76378772032349),24,3,1,no,m,6,m,0.8714246000017738,1,95,test1,3,0.8715538000033121,-52.0
8,hdl,m,23,r,1,(-172.20000000000002, 2.1088417881317425e-14),25,-25,14,yes,x,5,x,0.36959850000130245,1,96,test1,3,0.3702629999970668,-70.0
8,hdl,m,23,r,1,(172.20000000000002, 0.0),21,-7,13,yes,x,5,None,None,0,1,test2,3,1.9800952000005054,-52.0
8,hdl,m,23,r,1,(172.20000000000002, 0.0),21,-3,11,no,m,6,m,0.9005624000055832,1,2,test2,3,0.9006746000013663,-52.0
8,hdl,m,23,r,1,(121.76378772032346, -121.76378772032352),28,3,1,yes,x,5,x,1.3806910000057542,1,3,test2,3,1.3808204000015394,-42.0
8,hdl,m,23,r,1,(1.0544208940658713e-14, 172.20000000000002),23,3,1,no,m,6,m,1.2329384999975446,1,4,test2,3,1.233405999999377,-42.0
8,hdl,m,23,r,1,(121.76378772032346, -121.76378772032352),28,25,4,no,m,6,m,0.7834099999963655,1,5,test2,3,0.7836190999951214,-42.0
8,hdl,m,23,r,1,(-121.76378772032352, -121.76378772032348),26,-3,11,no,m,6,m,0.8564604999992298,1,6,test2,3,0.8566872000010335,-42.0
8,hdl,m,23,r,1,(-121.76378772032348, 121.76378772032349),24,5,2,yes,x,5,x,0.5814119999995455,1,7,test2,3,0.5817212000038126,-40.0
8,hdl,m,23,r,1,(-121.76378772032348, 121.76378772032349),24,7,3,yes,x,5,x,0.7010657999999239,1,8,test2,3,0.7012504000012996,-38.0
8,hdl,m,23,r,1,(-121.76378772032352, -121.76378772032348),26,25,4,no,m,6,m,0.9815337999971234,1,9,test2,3,0.981932599999709,-38.0
8,hdl,m,23,r,1,(-3.163262682197613e-14, -172.20000000000002),27,-5,12,no,m,6,m,0.8979414999994333,1,10,test2,3,0.8982260999982827,-38.0
8,hdl,m,23,r,1,(-3.163262682197613e-14, -172.20000000000002),27,-3,11,yes,x,5,m,1.1731234000035329,0,11,test2,3,1.1732957999993232,-48.0
8,hdl,m,23,r,1,(121.76378772032349, 121.76378772032349),22,5,2,yes,x,5,x,0.8570766000048025,1,12,test2,3,0.8572860999993281,-40.0
8,hdl,m,23,r,1,(-172.20000000000002, 2.1088417881317425e-14),25,3,1,yes,x,5,x,0.9782312000024831,1,13,test2,3,0.9785665000017616,-42.0
8,hdl,m,23,r,1,(-3.163262682197613e-14, -172.20000000000002),27,-3,11,no,m,6,m,1.11974029999692,1,14,test2,3,1.1198680999950739,-42.0
8,hdl,m,23,r,1,(121.76378772032349, 121.76378772032349),22,-5,12,yes,x,5,x,0.6326263000009931,1,15,test2,3,0.6331441000002087,-50.0
8,hdl,m,23,r,1,(121.76378772032346, -121.76378772032352),28,-7,13,yes,x,5,x,0.6648700999940047,1,16,test2,3,0.6654885999960243,-52.0
8,hdl,m,23,r,1,(1.0544208940658713e-14, 172.20000000000002),23,-7,13,no,m,6,m,0.99154819999967,1,17,test2,3,0.9917830000049435,-52.0
8,hdl,m,23,r,1,(-172.20000000000002, 2.1088417881317425e-14),25,5,2,yes,x,5,x,0.548630500001309,1,18,test2,3,0.5488115000043763,-40.0
8,hdl,m,23,r,1,(172.20000000000002, 0.0),21,7,3,no,m,6,m,0.7224083000037353,1,19,test2,3,0.7225384999983362,-40.0
8,hdl,m,23,r,1,(-121.76378772032348, 121.76378772032349),24,7,3,yes,x,5,x,0.40518120000342606,1,20,test2,3,0.40540080000209855,-38.0
8,hdl,m,23,r,1,(1.0544208940658713e-14, 172.20000000000002),23,25,4,yes,x,5,x,0.3833069999964209,1,21,test2,3,0.3834050999939791,-20.0
8,hdl,m,23,r,1,(-172.20000000000002, 2.1088417881317425e-14),25,3,1,no,m,6,m,0.8107963000002201,1,22,test2,3,0.8108957000004011,-20.0
8,hdl,m,23,r,1,(-172.20000000000002, 2.1088417881317425e-14),25,7,3,yes,x,5,x,0.40427550000458723,1,23,test2,3,0.40443589999631513,-38.0
8,hdl,m,23,r,1,(121.76378772032349, 121.76378772032349),22,-3,11,no,m,6,m,0.841632199997548,1,24,test2,3,0.8419322999980068,-38.0
8,hdl,m,23,r,1,(172.20000000000002, 0.0),21,-7,13,yes,x,5,x,0.4138931000052253,1,25,test2,3,0.41454890000022715,-52.0
8,hdl,m,23,r,1,(121.76378772032349, 121.76378772032349),22,7,3,yes,x,5,x,0.4599910999968415,1,26,test2,3,0.46047600000019884,-38.0
8,hdl,m,23,r,1,(-172.20000000000002, 2.1088417881317425e-14),25,-5,12,yes,x,5,x,0.8338741000043228,1,27,test2,3,0.8342516999982763,-50.0
8,hdl,m,23,r,1,(1.0544208940658713e-14, 172.20000000000002),23,-5,12,yes,x,5,x,0.48685509999631904,1,28,test2,3,0.48708040000201436,-50.0
8,hdl,m,23,r,1,(1.0544208940658713e-14, 172.20000000000002),23,5,2,yes,x,5,x,0.38907969999854686,1,29,test2,3,0.3894845999966492,-40.0
8,hdl,m,23,r,1,(172.20000000000002, 0.0),21,25,4,no,m,6,m,0.9812244999993709,1,30,test2,3,0.981441600000835,-40.0
8,hdl,m,23,r,1,(121.76378772032349, 121.76378772032349),22,25,4,yes,x,5,x,0.3422941000026185,1,31,test2,3,0.34241779999865685,-20.0
8,hdl,m,23,r,1,(121.76378772032349, 121.76378772032349),22,3,1,yes,x,5,x,1.0053071999936947,1,32,test2,3,1.006012700003339,-42.0
8,hdl,m,23,r,1,(-3.163262682197613e-14, -172.20000000000002),27,-7,13,no,m,6,m,0.8936401000028127,1,33,test2,3,0.8938695000033476,-42.0
8,hdl,m,23,r,1,(-3.163262682197613e-14, -172.20000000000002),27,7,3,no,m,6,m,1.1582998000012594,1,34,test2,3,1.1587309999958961,-42.0
8,hdl,m,23,r,1,(121.76378772032346, -121.76378772032352),28,-3,11,yes,x,5,x,1.2623595999975805,1,35,test2,3,1.2626512000060757,-48.0
8,hdl,m,23,r,1,(1.0544208940658713e-14, 172.20000000000002),23,-3,11,yes,x,5,x,0.8093432999958168,1,36,test2,3,0.8094459999992978,-48.0
8,hdl,m,23,r,1,(1.0544208940658713e-14, 172.20000000000002),23,5,2,no,m,6,m,0.9303910000016913,1,37,test2,3,0.9307397000011406,-48.0
8,hdl,m,23,r,1,(-121.76378772032352, -121.76378772032348),26,-5,12,no,m,6,m,1.271989199995005,1,38,test2,3,1.2721957999965525,-48.0
8,hdl,m,23,r,1,(-172.20000000000002, 2.1088417881317425e-14),25,25,4,yes,x,5,x,0.4665967999972054,1,39,test2,3,0.4669265000047744,-20.0
8,hdl,m,23,r,1,(-121.76378772032348, 121.76378772032349),24,-3,11,yes,x,5,x,0.6098008999979356,1,40,test2,3,0.6103738000019803,-48.0
8,hdl,m,23,r,1,(-172.20000000000002, 2.1088417881317425e-14),25,-3,11,no,m,6,m,0.8965919000038411,1,41,test2,3,0.8968136999974377,-48.0
8,hdl,m,23,r,1,(-172.20000000000002, 2.1088417881317425e-14),25,25,4,yes,x,5,x,0.44858759999624453,1,42,test2,3,0.44887439999729395,-20.0
8,hdl,m,23,r,1,(121.76378772032346, -121.76378772032352),28,-7,13,yes,x,5,x,0.7580412000024808,1,43,test2,3,0.7581676999980118,-52.0
8,hdl,m,23,r,1,(172.20000000000002, 0.0),21,-25,14,yes,x,5,x,0.40468939999846043,1,44,test2,3,0.40480270000261953,-70.0
8,hdl,m,23,r,1,(121.76378772032349, 121.76378772032349),22,-25,14,no,m,6,m,0.7551684999998542,1,45,test2,3,0.7553391999972519,-70.0
8,hdl,m,23,r,1,(-3.163262682197613e-14, -172.20000000000002),27,-25,14,no,m,6,m,0.9001847000035923,1,46,test2,3,0.900288199998613,-70.0
8,hdl,m,23,r,1,(121.76378772032349, 121.76378772032349),22,3,1,yes,x,5,x,0.9511321999962092,1,47,test2,3,0.9513578999976744,-42.0
8,hdl,m,23,r,1,(-121.76378772032348, 121.76378772032349),24,-25,14,yes,x,5,x,0.4823143999965396,1,48,test2,3,0.48242889999528416,-70.0
8,hdl,m,23,r,1,(1.0544208940658713e-14, 172.20000000000002),23,-5,12,yes,x,5,x,0.4442358999949647,1,49,test2,3,0.4445893999945838,-50.0
8,hdl,m,23,r,1,(172.20000000000002, 0.0),21,-3,11,yes,x,5,x,0.7141296000045259,1,50,test2,3,0.7142519999979413,-48.0
8,hdl,m,23,r,1,(-121.76378772032352, -121.76378772032348),26,-7,13,yes,x,5,x,0.512761899997713,1,51,test2,3,0.5131709000052069,-52.0
8,hdl,m,23,r,1,(-121.76378772032348, 121.76378772032349),24,-7,13,yes,x,5,x,0.38691329999710433,1,52,test2,3,0.38715680000314023,-52.0
8,hdl,m,23,r,1,(-121.76378772032348, 121.76378772032349),24,-25,14,yes,x,5,x,0.3642221999980393,1,53,test2,3,0.3643332999999984,-70.0
8,hdl,m,23,r,1,(-3.163262682197613e-14, -172.20000000000002),27,-3,11,yes,x,5,x,0.9039193000062369,1,54,test2,3,0.9041059000010137,-48.0
8,hdl,m,23,r,1,(-172.20000000000002, 2.1088417881317425e-14),25,3,1,yes,x,5,m,1.2380176000006031,0,55,test2,3,1.2382369999977527,-42.0
8,hdl,m,23,r,1,(-172.20000000000002, 2.1088417881317425e-14),25,-7,13,yes,x,5,x,0.3817801000041072,1,56,test2,3,0.3820639999976265,-52.0
8,hdl,m,23,r,1,(121.76378772032349, 121.76378772032349),22,-5,12,no,m,6,m,1.2001896999936434,1,57,test2,3,1.2004047999944305,-52.0
8,hdl,m,23,r,1,(-121.76378772032352, -121.76378772032348),26,-7,13,no,m,6,m,1.4353610000034678,1,58,test2,3,1.4354725000011967,-52.0
8,hdl,m,23,r,1,(-121.76378772032348, 121.76378772032349),24,-3,11,no,m,6,m,1.2835417999958736,1,59,test2,3,1.283861900003103,-52.0
8,hdl,m,23,r,1,(-121.76378772032352, -121.76378772032348),26,5,2,yes,x,5,x,0.7686207999940962,1,60,test2,3,0.7688213000001269,-40.0
8,hdl,m,23,r,1,(172.20000000000002, 0.0),21,7,3,yes,x,5,x,0.6054871000014828,1,61,test2,3,0.6056352999949013,-38.0
8,hdl,m,23,r,1,(121.76378772032349, 121.76378772032349),22,-5,12,yes,x,5,x,0.49613429999590153,1,62,test2,3,0.49626969999371795,-50.0
8,hdl,m,23,r,1,(1.0544208940658713e-14, 172.20000000000002),23,25,4,no,m,6,m,1.0181641999952262,1,63,test2,3,1.018474900003639,-50.0
8,hdl,m,23,r,1,(121.76378772032346, -121.76378772032352),28,-25,14,no,m,6,m,0.9483971000008751,1,64,test2,3,0.9489449000029708,-50.0
8,hdl,m,23,r,1,(-121.76378772032352, -121.76378772032348),26,3,1,yes,x,5,x,0.7975652000022819,1,65,test2,3,0.797778299995116,-42.0
8,hdl,m,23,r,1,(172.20000000000002, 0.0),21,3,1,yes,x,5,x,0.8862817999979598,1,66,test2,3,0.8865676000059466,-42.0
8,hdl,m,23,r,1,(-121.76378772032352, -121.76378772032348),26,3,1,no,m,6,x,0.7606188999998267,0,67,test2,3,0.7608853000056115,-42.0
8,hdl,m,23,r,1,(121.76378772032349, 121.76378772032349),22,3,1,no,m,6,m,1.2407811000011861,1,68,test2,3,1.2413658000004943,-42.0
8,hdl,m,23,r,1,(-172.20000000000002, 2.1088417881317425e-14),25,-25,14,no,m,6,m,0.982558900002914,1,69,test2,3,0.9826923000000534,-42.0
8,hdl,m,23,r,1,(-121.76378772032352, -121.76378772032348),26,25,4,yes,x,5,x,0.4571102999980212,1,70,test2,3,0.4573235000061686,-20.0
8,hdl,m,23,r,1,(-3.163262682197613e-14, -172.20000000000002),27,7,3,yes,x,5,x,0.5206070999993244,1,71,test2,3,0.5208377000017208,-38.0
8,hdl,m,23,r,1,(-121.76378772032348, 121.76378772032349),24,-5,12,no,m,6,m,1.266317000001436,1,72,test2,3,1.266645100004098,-38.0
8,hdl,m,23,r,1,(121.76378772032346, -121.76378772032352),28,7,3,yes,x,5,x,0.6630740000036894,1,73,test2,3,0.6631943999964278,-38.0
8,hdl,m,23,r,1,(1.0544208940658713e-14, 172.20000000000002),23,7,3,no,m,6,m,0.8641629999983707,1,74,test2,3,0.8644009999989066,-38.0
8,hdl,m,23,r,1,(-121.76378772032352, -121.76378772032348),26,-25,14,no,m,6,m,0.7676062999962596,1,75,test2,3,0.767820799999754,-38.0
8,hdl,m,23,r,1,(172.20000000000002, 0.0),21,-5,12,yes,x,5,x,0.6060839999991003,1,76,test2,3,0.606410299995332,-50.0
8,hdl,m,23,r,1,(-3.163262682197613e-14, -172.20000000000002),27,25,4,yes,x,5,x,0.35262259999581147,1,77,test2,3,0.352855000004638,-20.0
8,hdl,m,23,r,1,(121.76378772032349, 121.76378772032349),22,7,3,no,m,6,m,0.881947299996682,1,78,test2,3,0.8820511999947485,-20.0
8,hdl,m,23,r,1,(172.20000000000002, 0.0),21,5,2,no,m,6,m,0.6600914000009652,1,79,test2,3,0.6603217000010773,-20.0
8,hdl,m,23,r,1,(-3.163262682197613e-14, -172.20000000000002),27,-25,14,yes,x,5,x,0.5291657999987365,1,80,test2,3,0.5292995999989216,-70.0
8,hdl,m,23,r,1,(-121.76378772032352, -121.76378772032348),26,3,1,yes,x,5,x,1.0117814000041108,1,81,test2,3,1.0121913999973913,-42.0
8,hdl,m,23,r,1,(-172.20000000000002, 2.1088417881317425e-14),25,25,4,no,m,6,m,1.183730499993544,1,82,test2,3,1.184001100002206,-42.0
8,hdl,m,23,r,1,(172.20000000000002, 0.0),21,25,4,yes,x,5,x,0.414401000001817,1,83,test2,3,0.414499499995145,-20.0
8,hdl,m,23,r,1,(-121.76378772032348, 121.76378772032349),24,-5,12,yes,x,5,x,0.49923950000084005,1,84,test2,3,0.49944759999925736,-50.0
8,hdl,m,23,r,1,(121.76378772032349, 121.76378772032349),22,-3,11,yes,x,5,x,0.8124194000047282,1,85,test2,3,0.8125159999981406,-48.0
8,hdl,m,23,r,1,(1.0544208940658713e-14, 172.20000000000002),23,-5,12,no,m,6,m,1.1806724999987637,1,86,test2,3,1.1813249999977415,-48.0
8,hdl,m,23,r,1,(-121.76378772032348, 121.76378772032349),24,3,1,yes,x,5,x,0.6263240000043879,1,87,test2,3,0.626746699999785,-42.0
8,hdl,m,23,r,1,(-3.163262682197613e-14, -172.20000000000002),27,3,1,no,m,6,m,1.0262405999965267,1,88,test2,3,1.026393799998914,-42.0
8,hdl,m,23,r,1,(-3.163262682197613e-14, -172.20000000000002),27,5,2,yes,x,5,x,0.5925951999961399,1,89,test2,3,0.5928720000010799,-40.0
8,hdl,m,23,r,1,(-3.163262682197613e-14, -172.20000000000002),27,-5,12,yes,x,5,x,0.6164942999967025,1,90,test2,3,0.616632600002049,-50.0
8,hdl,m,23,r,1,(-172.20000000000002, 2.1088417881317425e-14),25,5,2,yes,x,5,x,0.5599168999979156,1,91,test2,3,0.5600202999994508,-40.0
8,hdl,m,23,r,1,(-121.76378772032348, 121.76378772032349),24,7,3,no,m,6,m,0.8202086000019335,1,92,test2,3,0.8204856000011205,-40.0
8,hdl,m,23,r,1,(121.76378772032349, 121.76378772032349),22,5,2,no,m,6,m,0.809681400001864,1,93,test2,3,0.8098762999943574,-40.0
8,hdl,m,23,r,1,(121.76378772032346, -121.76378772032352),28,7,3,yes,x,5,x,0.49204569999710657,1,94,test2,3,0.49227909999899566,-38.0
8,hdl,m,23,r,1,(-3.163262682197613e-14, -172.20000000000002),27,5,2,no,m,6,m,1.0791575999974157,1,95,test2,3,1.0794485000005807,-38.0
8,hdl,m,23,r,1,(121.76378772032349, 121.76378772032349),22,5,2,yes,x,5,x,0.5146593000026769,1,96,test2,3,0.5147626999969361,-40.0
8,hdl,m,23,r,1,(1.0544208940658713e-14, 172.20000000000002),23,-3,11,yes,x,5,x,0.9902530000035767,1,1,test1,4,0.9913247000004048,-48.0
8,hdl,m,23,r,1,(172.20000000000002, 0.0),21,5,2,yes,x,5,x,0.8651480000044103,1,2,test1,4,0.8654516000024159,-40.0
8,hdl,m,23,r,1,(-121.76378772032348, 121.76378772032349),24,25,4,yes,x,5,x,0.46344879999378463,1,3,test1,4,0.46356160000141244,-20.0
8,hdl,m,23,r,1,(-172.20000000000002, 2.1088417881317425e-14),25,-3,11,yes,x,5,x,0.8337049999972805,1,4,test1,4,0.8340800000005402,-48.0
8,hdl,m,23,r,1,(-3.163262682197613e-14, -172.20000000000002),27,25,4,no,m,6,m,0.8418221000029007,1,5,test1,4,0.8421738999968511,-48.0
8,hdl,m,23,r,1,(121.76378772032346, -121.76378772032352),28,5,2,no,m,6,m,0.8786815000057686,1,6,test1,4,0.878784499996982,-48.0
8,hdl,m,23,r,1,(172.20000000000002, 0.0),21,-25,14,no,m,6,m,0.7247574000066379,1,7,test1,4,0.7249497000011615,-48.0
8,hdl,m,23,r,1,(-172.20000000000002, 2.1088417881317425e-14),25,-3,11,yes,x,5,m,0.5991506000063964,0,8,test1,4,0.5992523000022629,-48.0
8,hdl,m,23,r,1,(-172.20000000000002, 2.1088417881317425e-14),25,7,3,no,m,6,m,1.160440399995423,1,9,test1,4,1.160599300004833,-48.0
8,hdl,m,23,r,1,(121.76378772032346, -121.76378772032352),28,-3,11,yes,x,5,x,0.868075400001544,1,10,test1,4,0.8683072999992874,-48.0
8,hdl,m,23,r,1,(172.20000000000002, 0.0),21,5,2,yes,x,5,x,0.5333442999981344,1,11,test1,4,0.5334583999938332,-40.0
8,hdl,m,23,r,1,(-3.163262682197613e-14, -172.20000000000002),27,-7,13,yes,x,5,x,0.4374212999973679,1,12,test1,4,0.4375145999947563,-52.0
8,hdl,m,23,r,1,(121.76378772032346, -121.76378772032352),28,-5,12,no,m,6,x,0.9988558000040939,0,13,test1,4,0.9989535999993677,-52.0
8,hdl,m,23,r,1,(-121.76378772032352, -121.76378772032348),26,-3,11,yes,x,5,x,1.2427406999995583,1,14,test1,4,1.243103400003747,-48.0
8,hdl,m,23,r,1,(-3.163262682197613e-14, -172.20000000000002),27,3,1,yes,x,5,x,1.1586790000001201,1,15,test1,4,1.1588344999981928,-42.0
8,hdl,m,23,r,1,(-121.76378772032352, -121.76378772032348),26,7,3,yes,x,5,x,0.5059303000016371,1,16,test1,4,0.5060302999991109,-38.0
8,hdl,m,23,r,1,(1.0544208940658713e-14, 172.20000000000002),23,-7,13,yes,x,5,x,0.41243799999938346,1,17,test1,4,0.4128421999994316,-52.0
8,hdl,m,23,r,1,(-172.20000000000002, 2.1088417881317425e-14),25,7,3,yes,x,5,x,0.5008824999968056,1,18,test1,4,0.50127199999406,-38.0
8,hdl,m,23,r,1,(172.20000000000002, 0.0),21,25,4,yes,x,5,x,0.4989294999977574,1,19,test1,4,0.4990871000045445,-20.0
8,hdl,m,23,r,1,(-3.163262682197613e-14, -172.20000000000002),27,-5,12,yes,x,5,x,0.5730072000005748,1,20,test1,4,0.57310839999991,-50.0
8,hdl,m,23,r,1,(172.20000000000002, 0.0),21,3,1,no,m,6,m,0.8435968999983743,1,21,test1,4,0.8437670999992406,-50.0
8,hdl,m,23,r,1,(1.0544208940658713e-14, 172.20000000000002),23,3,1,yes,x,5,x,1.007547599998361,1,22,test1,4,1.0076464999947348,-42.0
8,hdl,m,23,r,1,(172.20000000000002, 0.0),21,-5,12,yes,x,5,x,1.1220820999951684,1,23,test1,4,1.1221772999997484,-50.0
8,hdl,m,23,r,1,(-121.76378772032348, 121.76378772032349),24,-3,11,yes,x,5,x,0.6771888000002946,1,24,test1,4,0.6773661000042921,-48.0
8,hdl,m,23,r,1,(-121.76378772032348, 121.76378772032349),24,25,4,no,m,6,m,0.9043713999999454,1,25,test1,4,0.9046753000002354,-48.0
8,hdl,m,23,r,1,(121.76378772032346, -121.76378772032352),28,3,1,yes,x,5,x,0.757322400000703,1,26,test1,4,0.7575358000030974,-42.0
8,hdl,m,23,r,1,(-172.20000000000002, 2.1088417881317425e-14),25,-25,14,yes,x,5,x,0.5766356000021915,1,27,test1,4,0.5769617000041762,-70.0
8,hdl,m,23,r,1,(121.76378772032346, -121.76378772032352),28,3,1,no,m,6,m,0.9122456000040984,1,28,test1,4,0.9126325999968685,-70.0
8,hdl,m,23,r,1,(-3.163262682197613e-14, -172.20000000000002),27,7,3,yes,x,5,x,0.4143922000002931,1,29,test1,4,0.414540500001749,-38.0
8,hdl,m,23,r,1,(-121.76378772032348, 121.76378772032349),24,-7,13,yes,x,5,x,0.4497905999960494,1,30,test1,4,0.4498897000012221,-52.0
8,hdl,m,23,r,1,(-121.76378772032348, 121.76378772032349),24,25,4,yes,x,5,x,0.46103389999916544,1,31,test1,4,0.4612535000051139,-20.0
8,hdl,m,23,r,1,(-121.76378772032352, -121.76378772032348),26,5,2,yes,x,5,x,0.7281356000021333,1,32,test1,4,0.728236899994954,-40.0
8,hdl,m,23,r,1,(-121.76378772032348, 121.76378772032349),24,5,2,yes,x,5,x,0.4052174000025843,1,33,test1,4,0.4053736999994726,-40.0
8,hdl,m,23,r,1,(1.0544208940658713e-14, 172.20000000000002),23,-25,14,yes,x,5,x,0.34840519999852404,1,34,test1,4,0.3485023999965051,-70.0
8,hdl,m,23,r,1,(121.76378772032349, 121.76378772032349),22,-7,13,yes,x,5,x,0.4470486999998684,1,35,test1,4,0.44715089999954216,-52.0
8,hdl,m,23,r,1,(-172.20000000000002, 2.1088417881317425e-14),25,-5,12,yes,x,5,x,0.4337264999994659,1,36,test1,4,0.43386240000108955,-50.0
8,hdl,m,23,r,1,(121.76378772032346, -121.76378772032352),28,7,3,no,m,6,m,1.02821170000243,1,37,test1,4,1.0285023000033107,-50.0
8,hdl,m,23,r,1,(121.76378772032349, 121.76378772032349),22,-25,14,yes,x,5,x,0.4014841000025626,1,38,test1,4,0.4015798999971594,-70.0
8,hdl,m,23,r,1,(121.76378772032346, -121.76378772032352),28,25,4,yes,x,5,x,0.45997600000555394,1,39,test1,4,0.4605084000068018,-20.0
8,hdl,m,23,r,1,(1.0544208940658713e-14, 172.20000000000002),23,-25,14,yes,x,5,x,0.3972654000026523,1,40,test1,4,0.3974339000051259,-70.0
8,hdl,m,23,r,1,(121.76378772032346, -121.76378772032352),28,-7,13,no,m,6,m,0.9610776999979862,1,41,test1,4,0.9613151000012294,-70.0
8,hdl,m,23,r,1,(121.76378772032346, -121.76378772032352),28,-3,11,no,m,6,m,0.8479569999981322,1,42,test1,4,0.8484595999980229,-70.0
8,hdl,m,23,r,1,(-3.163262682197613e-14, -172.20000000000002),27,3,1,yes,x,5,x,0.760112099997059,1,43,test1,4,0.7602553999968222,-42.0
8,hdl,m,23,r,1,(172.20000000000002, 0.0),21,-25,14,yes,x,5,x,0.5921985999957542,1,44,test1,4,0.5930234000043129,-70.0
8,hdl,m,23,r,1,(1.0544208940658713e-14, 172.20000000000002),23,25,4,yes,x,5,x,0.4429792999944766,1,45,test1,4,0.44310970000515226,-20.0
8,hdl,m,23,r,1,(121.76378772032346, -121.76378772032352),28,-5,12,yes,x,5,x,0.9810876999981701,1,46,test1,4,0.9816194000013638,-50.0
8,hdl,m,23,r,1,(172.20000000000002, 0.0),21,3,1,yes,x,5,x,1.1707280000046012,1,47,test1,4,1.1709822999982862,-42.0
8,hdl,m,23,r,1,(-3.163262682197613e-14, -172.20000000000002),27,-25,14,yes,x,5,x,0.5729720000017551,1,48,test1,4,0.5731203999966965,-70.0
8,hdl,m,23,r,1,(1.0544208940658713e-14, 172.20000000000002),23,7,3,yes,x,5,x,0.5379650999966543,1,49,test1,4,0.5382486999951652,-38.0
8,hdl,m,23,r,1,(121.76378772032346, -121.76378772032352),28,-25,14,yes,x,5,x,0.41844890000356827,1,50,test1,4,0.4185773999997764,-70.0
8,hdl,m,23,r,1,(1.0544208940658713e-14, 172.20000000000002),23,7,3,yes,x,5,x,0.4098318000033032,1,51,test1,4,0.4100049000044237,-38.0
8,hdl,m,23,r,1,(121.76378772032346, -121.76378772032352),28,5,2,yes,x,5,x,0.5300612000064575,1,52,test1,4,0.5302177999983542,-40.0
8,hdl,m,23,r,1,(-121.76378772032348, 121.76378772032349),24,5,2,no,m,6,m,1.095079500002612,1,53,test1,4,1.0952472999997553,-40.0
8,hdl,m,23,r,1,(1.0544208940658713e-14, 172.20000000000002),23,-7,13,yes,x,5,x,0.4542007999989437,1,54,test1,4,0.4542998000033549,-52.0
8,hdl,m,23,r,1,(-121.76378772032352, -121.76378772032348),26,-25,14,yes,x,5,x,0.45511029999761377,1,55,test1,4,0.4552877999958582,-70.0
8,hdl,m,23,r,1,(-121.76378772032352, -121.76378772032348),26,-5,12,yes,x,5,x,0.8804688000018359,1,56,test1,4,0.8807030999960261,-50.0
8,hdl,m,23,r,1,(-172.20000000000002, 2.1088417881317425e-14),25,-7,13,no,m,6,m,0.7953507999991416,1,57,test1,4,0.7957876000000397,-50.0
8,hdl,m,23,r,1,(121.76378772032346, -121.76378772032352),28,5,2,yes,x,5,x,0.5925224000020535,1,58,test1,4,0.5927034999986063,-40.0
8,hdl,m,23,r,1,(-121.76378772032348, 121.76378772032349),24,-5,12,yes,x,5,x,0.6260871999984374,1,59,test1,4,0.6263772999955108,-50.0
8,hdl,m,23,r,1,(1.0544208940658713e-14, 172.20000000000002),23,5,2,yes,x,5,x,0.5601662000044598,1,60,test1,4,0.5602626999971108,-40.0
8,hdl,m,23,r,1,(-172.20000000000002, 2.1088417881317425e-14),25,-7,13,yes,x,5,x,0.4605139999985113,1,61,test1,4,0.46076519999769516,-52.0
8,hdl,m,23,r,1,(-121.76378772032352, -121.76378772032348),26,7,3,yes,x,5,x,0.49035869999352144,1,62,test1,4,0.4904577000052086,-38.0
8,hdl,m,23,r,1,(121.76378772032349, 121.76378772032349),22,7,3,yes,x,5,x,0.5374322999996366,1,63,test1,4,0.5382199000014225,-38.0
8,hdl,m,23,r,1,(121.76378772032346, -121.76378772032352),28,-5,12,yes,x,5,x,0.7912692999962019,1,64,test1,4,0.7915343999993638,-50.0
8,hdl,m,23,r,1,(-121.76378772032352, -121.76378772032348),26,-25,14,yes,x,5,x,0.45750840000255266,1,65,test1,4,0.45793359999515815,-70.0
8,hdl,m,23,r,1,(172.20000000000002, 0.0),21,-3,11,yes,x,5,m,0.8894318999955431,0,66,test1,4,0.8895487999980105,-48.0
8,hdl,m,23,r,1,(-121.76378772032348, 121.76378772032349),24,-25,14,no,m,6,m,0.9387253000022611,1,67,test1,4,0.9392870999945444,-48.0
8,hdl,m,23,r,1,(172.20000000000002, 0.0),21,-5,12,no,m,6,m,1.1377075000054901,1,68,test1,4,1.13785800000187,-48.0
8,hdl,m,23,r,1,(121.76378772032346, -121.76378772032352),28,25,4,yes,x,5,x,0.45930789999692934,1,69,test1,4,0.45953279999957886,-20.0
8,hdl,m,23,r,1,(121.76378772032349, 121.76378772032349),22,-3,11,yes,x,5,x,1.4541638000009698,1,70,test1,4,1.4542940000028466,-48.0
8,hdl,m,23,r,1,(-172.20000000000002, 2.1088417881317425e-14),25,-5,12,no,m,6,m,0.6966727000035462,1,71,test1,4,0.6969048999962979,-48.0
8,hdl,m,23,r,1,(-121.76378772032352, -121.76378772032348),26,25,4,yes,x,5,x,0.4261901999998372,1,72,test1,4,0.42639950000011595,-20.0
8,hdl,m,23,r,1,(-172.20000000000002, 2.1088417881317425e-14),25,5,2,no,m,6,m,1.0050061000001733,1,73,test1,4,1.0053979000003892,-20.0
8,hdl,m,23,r,1,(-121.76378772032352, -121.76378772032348),26,-3,11,yes,x,5,x,0.9183065000033821,1,74,test1,4,0.9187164000031771,-48.0
8,hdl,m,23,r,1,(172.20000000000002, 0.0),21,-7,13,no,m,6,m,1.0464645000029122,1,75,test1,4,1.0467133999991347,-48.0
8,hdl,m,23,r,1,(-3.163262682197613e-14, -172.20000000000002),27,5,2,yes,x,5,x,0.5841385999956401,1,76,test1,4,0.5842713000020012,-40.0
8,hdl,m,23,r,1,(121.76378772032349, 121.76378772032349),22,25,4,yes,x,5,x,0.4565528999955859,1,77,test1,4,0.4567671999975573,-20.0
8,hdl,m,23,r,1,(1.0544208940658713e-14, 172.20000000000002),23,-3,11,no,m,6,m,1.029845999997633,1,78,test1,4,1.0300747000001138,-20.0
8,hdl,m,23,r,1,(121.76378772032349, 121.76378772032349),22,-25,14,yes,x,5,x,0.46584200000506826,1,79,test1,4,0.46594130000448786,-70.0
8,hdl,m,23,r,1,(172.20000000000002, 0.0),21,7,3,yes,x,5,x,0.8645844999991823,1,80,test1,4,0.8650478999988991,-38.0
8,hdl,m,23,r,1,(-121.76378772032352, -121.76378772032348),26,-7,13,yes,x,5,x,0.5437769999989541,1,81,test1,4,0.543903700003284,-52.0
8,hdl,m,23,r,1,(121.76378772032349, 121.76378772032349),22,25,4,no,m,6,m,0.9086096000028192,1,82,test1,4,0.9087422000011429,-52.0
8,hdl,m,23,r,1,(-3.163262682197613e-14, -172.20000000000002),27,25,4,yes,x,5,x,0.4900326999995741,1,83,test1,4,0.4904355000035139,-20.0
8,hdl,m,23,r,1,(-121.76378772032348, 121.76378772032349),24,3,1,yes,x,5,x,0.8832630000033532,1,84,test1,4,0.8833894999988843,-42.0
8,hdl,m,23,r,1,(1.0544208940658713e-14, 172.20000000000002),23,3,1,yes,x,5,x,0.7041699000037625,1,85,test1,4,0.7042871000012383,-42.0
8,hdl,m,23,r,1,(-121.76378772032352, -121.76378772032348),26,7,3,no,m,6,m,0.8995949999953154,1,86,test1,4,0.8998264999972889,-42.0
8,hdl,m,23,r,1,(121.76378772032349, 121.76378772032349),22,-7,13,no,m,6,m,1.1829809000046225,1,87,test1,4,1.183413400001882,-42.0
8,hdl,m,23,r,1,(-121.76378772032348, 121.76378772032349),24,-7,13,no,m,6,m,0.8919868000011775,1,88,test1,4,0.8925741999992169,-42.0
8,hdl,m,23,r,1,(-121.76378772032352, -121.76378772032348),26,5,2,no,m,6,m,0.8419543999989401,1,89,test1,4,0.8420464000009815,-42.0
8,hdl,m,23,r,1,(121.76378772032346, -121.76378772032352),28,-25,14,yes,x,5,x,0.5123892999981763,1,90,test1,4,0.5126839000004111,-70.0
8,hdl,m,23,r,1,(121.76378772032349, 121.76378772032349),22,-7,13,yes,x,5,x,0.410262799996417,1,91,test1,4,0.41080089999741176,-52.0
8,hdl,m,23,r,1,(-121.76378772032352, -121.76378772032348),26,-5,12,yes,x,5,x,0.8826559000008274,1,92,test1,4,0.8829375000059372,-50.0
8,hdl,m,23,r,1,(1.0544208940658713e-14, 172.20000000000002),23,-25,14,no,m,6,m,0.8708311000009417,1,93,test1,4,0.8709680000029039,-50.0
8,hdl,m,23,r,1,(-3.163262682197613e-14, -172.20000000000002),27,-7,13,yes,x,5,x,0.7155857999969157,1,94,test1,4,0.7158851999993203,-52.0
8,hdl,m,23,r,1,(-121.76378772032348, 121.76378772032349),24,3,1,no,m,6,m,1.0800682999979472,1,95,test1,4,1.0802468999972916,-52.0
8,hdl,m,23,r,1,(-172.20000000000002, 2.1088417881317425e-14),25,-25,14,yes,x,5,x,0.6162966999982018,1,96,test1,4,0.6165873999998439,-70.0
8,hdl,m,23,r,1,(172.20000000000002, 0.0),21,-7,13,yes,x,5,x,0.4453450000000885,1,1,test2,4,0.44571300000097835,-52.0
8,hdl,m,23,r,1,(172.20000000000002, 0.0),21,-3,11,no,m,6,m,0.8278322999976808,1,2,test2,4,0.828577000000223,-52.0
8,hdl,m,23,r,1,(121.76378772032346, -121.76378772032352),28,3,1,yes,x,5,x,0.8791320000018459,1,3,test2,4,0.8792672999989009,-42.0
8,hdl,m,23,r,1,(1.0544208940658713e-14, 172.20000000000002),23,3,1,no,m,6,m,0.8413357000026735,1,4,test2,4,0.841433200002939,-42.0
8,hdl,m,23,r,1,(121.76378772032346, -121.76378772032352),28,25,4,no,m,6,m,1.021937199999229,1,5,test2,4,1.022277900003246,-42.0
8,hdl,m,23,r,1,(-121.76378772032352, -121.76378772032348),26,-3,11,no,m,6,m,0.8465999999971245,1,6,test2,4,0.8468508000005386,-42.0
8,hdl,m,23,r,1,(-121.76378772032348, 121.76378772032349),24,5,2,yes,x,5,x,0.4006597999978112,1,7,test2,4,0.4007869999986724,-40.0
8,hdl,m,23,r,1,(-121.76378772032348, 121.76378772032349),24,7,3,yes,x,5,x,0.43583829999988666,1,8,test2,4,0.4359822999977041,-38.0
8,hdl,m,23,r,1,(-121.76378772032352, -121.76378772032348),26,25,4,no,m,6,m,1.0696250000037253,1,9,test2,4,1.069938100001309,-38.0
8,hdl,m,23,r,1,(-3.163262682197613e-14, -172.20000000000002),27,-5,12,no,m,6,x,1.0207731999980751,0,10,test2,4,1.0209247000020696,-38.0
8,hdl,m,23,r,1,(-3.163262682197613e-14, -172.20000000000002),27,-3,11,yes,x,5,m,1.3599822000032873,0,11,test2,4,1.3602318999983254,-48.0
8,hdl,m,23,r,1,(121.76378772032349, 121.76378772032349),22,5,2,yes,x,5,x,0.5305159999988973,1,12,test2,4,0.5307106999971438,-40.0
8,hdl,m,23,r,1,(-172.20000000000002, 2.1088417881317425e-14),25,3,1,yes,x,5,x,0.5526169000004302,1,13,test2,4,0.5529488999964087,-42.0
8,hdl,m,23,r,1,(-3.163262682197613e-14, -172.20000000000002),27,-3,11,no,m,6,m,1.2974779000069248,1,14,test2,4,1.2979211000056239,-42.0
8,hdl,m,23,r,1,(121.76378772032349, 121.76378772032349),22,-5,12,yes,x,5,x,0.9221572000024025,1,15,test2,4,0.9225546999950893,-50.0
8,hdl,m,23,r,1,(121.76378772032346, -121.76378772032352),28,-7,13,yes,x,5,x,0.9952558000004501,1,16,test2,4,0.9954097000008915,-52.0
8,hdl,m,23,r,1,(1.0544208940658713e-14, 172.20000000000002),23,-7,13,no,m,6,m,0.7892814000006183,1,17,test2,4,0.7904832999993232,-52.0
8,hdl,m,23,r,1,(-172.20000000000002, 2.1088417881317425e-14),25,5,2,yes,x,5,x,0.6874607999998261,1,18,test2,4,0.68759190000128,-40.0
8,hdl,m,23,r,1,(172.20000000000002, 0.0),21,7,3,no,m,6,m,0.6952426999996533,1,19,test2,4,0.6956591999987722,-40.0
8,hdl,m,23,r,1,(-121.76378772032348, 121.76378772032349),24,7,3,yes,x,5,x,0.5246886000022641,1,20,test2,4,0.524904099998821,-38.0
8,hdl,m,23,r,1,(1.0544208940658713e-14, 172.20000000000002),23,25,4,yes,x,5,x,0.5326806999946712,1,21,test2,4,0.5331630000000587,-20.0
8,hdl,m,23,r,1,(-172.20000000000002, 2.1088417881317425e-14),25,3,1,no,m,6,m,0.7466523999974015,1,22,test2,4,0.7467532999944524,-20.0
8,hdl,m,23,r,1,(-172.20000000000002, 2.1088417881317425e-14),25,7,3,yes,x,5,x,0.4427679000000353,1,23,test2,4,0.4434620000029099,-38.0
8,hdl,m,23,r,1,(121.76378772032349, 121.76378772032349),22,-3,11,no,m,6,m,0.6303578000006382,1,24,test2,4,0.6307067999950959,-38.0
8,hdl,m,23,r,1,(172.20000000000002, 0.0),21,-7,13,yes,x,5,x,0.6625514999977895,1,25,test2,4,0.6626541000005091,-52.0
8,hdl,m,23,r,1,(121.76378772032349, 121.76378772032349),22,7,3,yes,x,5,x,0.488240600003337,1,26,test2,4,0.4886456000022008,-38.0
8,hdl,m,23,r,1,(-172.20000000000002, 2.1088417881317425e-14),25,-5,12,yes,x,5,x,0.4578230000042822,1,27,test2,4,0.4579260000027716,-50.0
8,hdl,m,23,r,1,(1.0544208940658713e-14, 172.20000000000002),23,-5,12,yes,x,5,x,0.40479190000041854,1,28,test2,4,0.4048889000041527,-50.0
8,hdl,m,23,r,1,(1.0544208940658713e-14, 172.20000000000002),23,5,2,yes,x,5,x,0.39694990000134567,1,29,test2,4,0.39708669999527046,-40.0
8,hdl,m,23,r,1,(172.20000000000002, 0.0),21,25,4,no,m,6,m,1.0237961999955587,1,30,test2,4,1.024003200000152,-40.0
8,hdl,m,23,r,1,(121.76378772032349, 121.76378772032349),22,25,4,yes,x,5,x,0.5769960000034189,1,31,test2,4,0.5770932000014,-20.0
8,hdl,m,23,r,1,(121.76378772032349, 121.76378772032349),22,3,1,yes,x,5,x,0.9690130999952089,1,32,test2,4,0.9692453000025125,-42.0
8,hdl,m,23,r,1,(-3.163262682197613e-14, -172.20000000000002),27,-7,13,no,m,6,m,1.0427450999995926,1,33,test2,4,1.0434824999974808,-42.0
8,hdl,m,23,r,1,(-3.163262682197613e-14, -172.20000000000002),27,7,3,no,m,6,m,1.1143328999969526,1,34,test2,4,1.114462999998068,-42.0
8,hdl,m,23,r,1,(121.76378772032346, -121.76378772032352),28,-3,11,yes,x,5,x,0.9864616999984719,1,35,test2,4,0.9870742999992217,-48.0
8,hdl,m,23,r,1,(1.0544208940658713e-14, 172.20000000000002),23,-3,11,yes,x,5,x,0.7195186000026297,1,36,test2,4,0.7197469000020646,-48.0
8,hdl,m,23,r,1,(1.0544208940658713e-14, 172.20000000000002),23,5,2,no,m,6,m,0.8198368000012124,1,37,test2,4,0.819997600003262,-48.0
8,hdl,m,23,r,1,(-121.76378772032352, -121.76378772032348),26,-5,12,no,m,6,m,0.8197140000047511,1,38,test2,4,0.8198101000016322,-48.0
8,hdl,m,23,r,1,(-172.20000000000002, 2.1088417881317425e-14),25,25,4,yes,x,5,x,0.44671789999847533,1,39,test2,4,0.44689890000154264,-20.0
8,hdl,m,23,r,1,(-121.76378772032348, 121.76378772032349),24,-3,11,yes,x,5,x,0.5511983999967924,1,40,test2,4,0.5514962000015657,-48.0
8,hdl,m,23,r,1,(-172.20000000000002, 2.1088417881317425e-14),25,-3,11,no,m,6,m,0.8308778999999049,1,41,test2,4,0.831172999998671,-48.0
8,hdl,m,23,r,1,(-172.20000000000002, 2.1088417881317425e-14),25,25,4,yes,x,5,x,0.5667587999996613,1,42,test2,4,0.5671285999997053,-20.0
8,hdl,m,23,r,1,(121.76378772032346, -121.76378772032352),28,-7,13,yes,x,5,x,0.45509470000251895,1,43,test2,4,0.45520630000100937,-52.0
8,hdl,m,23,r,1,(172.20000000000002, 0.0),21,-25,14,yes,x,5,x,0.4676042999999481,1,44,test2,4,0.46783049999794457,-70.0
8,hdl,m,23,r,1,(121.76378772032349, 121.76378772032349),22,-25,14,no,m,6,x,1.1937404999989667,0,45,test2,4,1.1939838999969652,-70.0
8,hdl,m,23,r,1,(-3.163262682197613e-14, -172.20000000000002),27,-25,14,no,m,6,m,0.9809649000017089,1,46,test2,4,0.9811295000035898,-70.0
8,hdl,m,23,r,1,(121.76378772032349, 121.76378772032349),22,3,1,yes,x,5,x,0.9484564000013052,1,47,test2,4,0.9490938000017195,-42.0
8,hdl,m,23,r,1,(-121.76378772032348, 121.76378772032349),24,-25,14,yes,x,5,x,0.5985094999996363,1,48,test2,4,0.598608600004809,-70.0
8,hdl,m,23,r,1,(1.0544208940658713e-14, 172.20000000000002),23,-5,12,yes,x,5,x,0.531001200004539,1,49,test2,4,0.5312101000017719,-50.0
8,hdl,m,23,r,1,(172.20000000000002, 0.0),21,-3,11,yes,x,5,x,0.6607734999997774,1,50,test2,4,0.6610436999981175,-48.0
8,hdl,m,23,r,1,(-121.76378772032352, -121.76378772032348),26,-7,13,yes,x,5,x,0.6551204999996116,1,51,test2,4,0.6552198999997927,-52.0
8,hdl,m,23,r,1,(-121.76378772032348, 121.76378772032349),24,-7,13,yes,x,5,x,0.4724371999982395,1,52,test2,4,0.4727474000028451,-52.0
8,hdl,m,23,r,1,(-121.76378772032348, 121.76378772032349),24,-25,14,yes,x,5,x,0.4417579000000842,1,53,test2,4,0.4418787999966298,-70.0
8,hdl,m,23,r,1,(-3.163262682197613e-14, -172.20000000000002),27,-3,11,yes,x,5,x,0.9779396000012639,1,54,test2,4,0.9782043999948655,-48.0
8,hdl,m,23,r,1,(-172.20000000000002, 2.1088417881317425e-14),25,3,1,yes,x,5,x,1.6266976999977487,1,55,test2,4,1.6268465999964974,-42.0
8,hdl,m,23,r,1,(-172.20000000000002, 2.1088417881317425e-14),25,-7,13,yes,x,5,x,0.5549677000017255,1,56,test2,4,0.5557692000002135,-52.0
8,hdl,m,23,r,1,(121.76378772032349, 121.76378772032349),22,-5,12,no,m,6,m,0.8731334999974933,1,57,test2,4,0.8733958000011626,-52.0
8,hdl,m,23,r,1,(-121.76378772032352, -121.76378772032348),26,-7,13,no,m,6,m,0.9763127999976859,1,58,test2,4,0.9768593999979203,-52.0
8,hdl,m,23,r,1,(-121.76378772032348, 121.76378772032349),24,-3,11,no,m,6,m,0.769066799999564,1,59,test2,4,0.7692831999956979,-52.0
8,hdl,m,23,r,1,(-121.76378772032352, -121.76378772032348),26,5,2,yes,x,5,x,0.5432412999944063,1,60,test2,4,0.5433546999993268,-40.0
8,hdl,m,23,r,1,(172.20000000000002, 0.0),21,7,3,yes,x,5,x,0.5841178999980912,1,61,test2,4,0.5842303000026732,-38.0
8,hdl,m,23,r,1,(121.76378772032349, 121.76378772032349),22,-5,12,yes,x,5,x,0.5790781999967294,1,62,test2,4,0.5794470999971963,-50.0
8,hdl,m,23,r,1,(1.0544208940658713e-14, 172.20000000000002),23,25,4,no,m,6,m,0.7057981999969343,1,63,test2,4,0.7059299999964423,-50.0
