subj_id,subj_name,subj_gender ,subj_age,subj_handedness,subj_runNum,tar_l_x,tar_l_y,loc_code,tar_ori,tar_code,tar_pre ,cor_response,pre_code,subj_response,RT,correct,trial_num,type,bloc_num,dur, real_tar
8,hdl,m,23,r,2,(-121.76378772032348, 121.76378772032349),24,-25,14,yes,x,5,x,0.4620011000079103,1,1,test1,1,0.4623670000000857,-70.0
8,hdl,m,23,r,2,(1.0544208940658713e-14, 172.20000000000002),23,-5,12,yes,x,5,x,0.47506299999076873,1,2,test1,1,0.4751669999968726,-50.0
8,hdl,m,23,r,2,(-121.76378772032348, 121.76378772032349),24,-3,11,yes,x,5,x,0.8279479999910109,1,3,test1,1,0.8281936999992467,-48.0
8,hdl,m,23,r,2,(-3.163262682197613e-14, -172.20000000000002),27,-7,13,yes,x,5,x,0.5914597999944817,1,4,test1,1,0.5915914999932284,-52.0
8,hdl,m,23,r,2,(172.20000000000002, 0.0),21,25,4,yes,x,5,x,0.41688540000177454,1,5,test1,1,0.4169843999989098,-20.0
8,hdl,m,23,r,2,(-172.20000000000002, 2.1088417881317425e-14),25,3,1,no,m,6,x,0.6235964999941643,0,6,test1,1,0.6237714999879245,-20.0
8,hdl,m,23,r,2,(121.76378772032349, 121.76378772032349),22,-5,12,yes,x,5,x,0.5399281999998493,1,7,test1,1,0.5401443000009749,-50.0
8,hdl,m,23,r,2,(-121.76378772032348, 121.76378772032349),24,-3,11,yes,x,5,x,0.8115864999999758,1,8,test1,1,0.8117028000124265,-48.0
8,hdl,m,23,r,2,(172.20000000000002, 0.0),21,-25,14,no,m,6,m,1.2537308000028133,1,9,test1,1,1.2540709000022616,-48.0
8,hdl,m,23,r,2,(-3.163262682197613e-14, -172.20000000000002),27,-25,14,yes,x,5,x,0.4423931000055745,1,10,test1,1,0.4425472000002628,-70.0
8,hdl,m,23,r,2,(-121.76378772032352, -121.76378772032348),26,-7,13,yes,x,5,x,0.6187032000016188,1,11,test1,1,0.6188016999949468,-52.0
8,hdl,m,23,r,2,(-121.76378772032348, 121.76378772032349),24,25,4,yes,x,5,x,0.39363560000492726,1,12,test1,1,0.39409070000692736,-20.0
8,hdl,m,23,r,2,(121.76378772032349, 121.76378772032349),22,7,3,no,m,6,m,0.9926304000109667,1,13,test1,1,0.9928486999997403,-20.0
8,hdl,m,23,r,2,(121.76378772032346, -121.76378772032352),28,-5,12,yes,x,5,x,0.5505584000056842,1,14,test1,1,0.5509326999890618,-50.0
8,hdl,m,23,r,2,(1.0544208940658713e-14, 172.20000000000002),23,5,2,yes,x,5,x,0.41830140000092797,1,15,test1,1,0.41849729999375995,-40.0
8,hdl,m,23,r,2,(121.76378772032349, 121.76378772032349),22,3,1,yes,x,5,m,0.9192728000052739,0,16,test1,1,0.9193740000046091,-42.0
8,hdl,m,23,r,2,(1.0544208940658713e-14, 172.20000000000002),23,-7,13,yes,x,5,x,0.540443600009894,1,17,test1,1,0.5406598999979906,-52.0
8,hdl,m,23,r,2,(172.20000000000002, 0.0),21,-3,11,no,m,6,m,1.161573799996404,1,18,test1,1,1.1617994000116596,-52.0
8,hdl,m,23,r,2,(-3.163262682197613e-14, -172.20000000000002),27,7,3,no,m,6,m,1.1806399000051897,1,19,test1,1,1.1807631999981822,-52.0
8,hdl,m,23,r,2,(-121.76378772032352, -121.76378772032348),26,-7,13,yes,x,5,x,0.5455935999925714,1,20,test1,1,0.5461738000012701,-52.0
8,hdl,m,23,r,2,(-121.76378772032352, -121.76378772032348),26,-25,14,yes,x,5,x,0.40083359999698587,1,21,test1,1,0.40093920000072103,-70.0
8,hdl,m,23,r,2,(-3.163262682197613e-14, -172.20000000000002),27,3,1,no,m,6,m,0.9117585999920266,1,22,test1,1,0.9119936000060989,-70.0
8,hdl,m,23,r,2,(-3.163262682197613e-14, -172.20000000000002),27,-3,11,no,m,6,m,1.35289379999449,1,23,test1,1,1.3531759000034072,-70.0
8,hdl,m,23,r,2,(-121.76378772032348, 121.76378772032349),24,-3,11,no,m,6,m,1.1587834000092698,1,24,test1,1,1.1594108000135748,-70.0
8,hdl,m,23,r,2,(1.0544208940658713e-14, 172.20000000000002),23,7,3,no,m,6,m,1.2691505000111647,1,25,test1,1,1.2696307000005618,-70.0
8,hdl,m,23,r,2,(-3.163262682197613e-14, -172.20000000000002),27,5,2,yes,x,5,x,0.5783353000006173,1,26,test1,1,0.5786472000036156,-40.0
8,hdl,m,23,r,2,(-172.20000000000002, 2.1088417881317425e-14),25,-5,12,yes,x,5,x,0.5916410000063479,1,27,test1,1,0.5919255999906454,-50.0
8,hdl,m,23,r,2,(121.76378772032346, -121.76378772032352),28,-5,12,no,m,6,m,0.8453536999877542,1,28,test1,1,0.8455053999932716,-50.0
8,hdl,m,23,r,2,(-3.163262682197613e-14, -172.20000000000002),27,-5,12,yes,x,5,x,0.4529839000024367,1,29,test1,1,0.45311319999746047,-50.0
8,hdl,m,23,r,2,(-172.20000000000002, 2.1088417881317425e-14),25,-5,12,yes,x,5,x,0.6529536000016378,1,30,test1,1,0.6531552999949781,-50.0
8,hdl,m,23,r,2,(172.20000000000002, 0.0),21,25,4,yes,x,5,x,0.4911432000080822,1,31,test1,1,0.49125479999929667,-20.0
8,hdl,m,23,r,2,(172.20000000000002, 0.0),21,-25,14,yes,x,5,x,0.3766143000102602,1,32,test1,1,0.37674420000985265,-70.0
8,hdl,m,23,r,2,(121.76378772032346, -121.76378772032352),28,5,2,yes,x,5,x,0.4609696999978041,1,33,test1,1,0.4611473999975715,-40.0
8,hdl,m,23,r,2,(-121.76378772032348, 121.76378772032349),24,5,2,yes,x,5,x,0.48763820000749547,1,34,test1,1,0.4878043000062462,-40.0
8,hdl,m,23,r,2,(172.20000000000002, 0.0),21,3,1,yes,x,5,x,0.7102443000039784,1,35,test1,1,0.7104194999992615,-42.0
8,hdl,m,23,r,2,(121.76378772032349, 121.76378772032349),22,-25,14,yes,x,5,x,0.37423479999415576,1,36,test1,1,0.3744717999943532,-70.0
8,hdl,m,23,r,2,(1.0544208940658713e-14, 172.20000000000002),23,5,2,no,m,6,m,1.026195500002359,1,37,test1,1,1.0270426999923075,-70.0
8,hdl,m,23,r,2,(-121.76378772032348, 121.76378772032349),24,7,3,yes,x,5,x,0.43956230000185315,1,38,test1,1,0.4399145000061253,-38.0
8,hdl,m,23,r,2,(172.20000000000002, 0.0),21,5,2,yes,x,5,x,1.0116415999946184,1,39,test1,1,1.0117558999918401,-40.0
8,hdl,m,23,r,2,(121.76378772032346, -121.76378772032352),28,-25,14,yes,x,5,x,0.4349518000090029,1,40,test1,1,0.4351541000069119,-70.0
8,hdl,m,23,r,2,(121.76378772032346, -121.76378772032352),28,7,3,yes,x,5,x,0.4929247999971267,1,41,test1,1,0.49316990000079386,-38.0
8,hdl,m,23,r,2,(-172.20000000000002, 2.1088417881317425e-14),25,-25,14,no,m,6,m,1.0560657000023639,1,42,test1,1,1.0561675000062678,-38.0
8,hdl,m,23,r,2,(121.76378772032349, 121.76378772032349),22,25,4,no,m,6,m,0.8994094000081532,1,43,test1,1,0.8998224999959348,-38.0
8,hdl,m,23,r,2,(-121.76378772032348, 121.76378772032349),24,5,2,yes,x,5,x,0.4241533999884268,1,44,test1,1,0.42425729999376927,-40.0
8,hdl,m,23,r,2,(-172.20000000000002, 2.1088417881317425e-14),25,5,2,yes,x,5,x,0.7605174000054831,1,45,test1,1,0.7607218999910401,-40.0
8,hdl,m,23,r,2,(-121.76378772032352, -121.76378772032348),26,25,4,no,m,6,m,0.7182570000004489,1,46,test1,1,0.7186568000033731,-40.0
8,hdl,m,23,r,2,(1.0544208940658713e-14, 172.20000000000002),23,-3,11,yes,x,5,x,0.48375729999679606,1,47,test1,1,0.4840354999905685,-48.0
8,hdl,m,23,r,2,(172.20000000000002, 0.0),21,3,1,no,m,6,m,0.6404701999999816,1,48,test1,1,0.6409287999995286,-48.0
8,hdl,m,23,r,2,(121.76378772032349, 121.76378772032349),22,7,3,yes,x,5,x,0.4616414000047371,1,49,test1,1,0.4621303000021726,-38.0
8,hdl,m,23,r,2,(-172.20000000000002, 2.1088417881317425e-14),25,5,2,yes,x,5,x,0.5595584999973653,1,50,test1,1,0.5596579999983078,-40.0
8,hdl,m,23,r,2,(-121.76378772032348, 121.76378772032349),24,5,2,no,m,6,m,0.7524843999999575,1,51,test1,1,0.7525975000025937,-40.0
8,hdl,m,23,r,2,(-3.163262682197613e-14, -172.20000000000002),27,7,3,yes,x,5,x,0.5886094000015873,1,52,test1,1,0.5889068999968003,-38.0
8,hdl,m,23,r,2,(121.76378772032349, 121.76378772032349),22,-5,12,yes,x,5,x,0.9564348000130849,1,53,test1,1,0.9566116000059992,-50.0
8,hdl,m,23,r,2,(121.76378772032349, 121.76378772032349),22,5,2,yes,x,5,x,0.581915900009335,1,54,test1,1,0.5820187000063015,-40.0
8,hdl,m,23,r,2,(-121.76378772032348, 121.76378772032349),24,7,3,yes,x,5,x,0.4919984000007389,1,55,test1,1,0.4923226999962935,-38.0
8,hdl,m,23,r,2,(1.0544208940658713e-14, 172.20000000000002),23,3,1,yes,x,5,x,0.6034281999891391,1,56,test1,1,0.6036372999951709,-42.0
8,hdl,m,23,r,2,(121.76378772032346, -121.76378772032352),28,25,4,yes,x,5,x,0.41511839999293443,1,57,test1,1,0.4152156000054674,-20.0
8,hdl,m,23,r,2,(-172.20000000000002, 2.1088417881317425e-14),25,-7,13,no,m,6,m,0.8504897999955574,1,58,test1,1,0.8507605000049807,-20.0
8,hdl,m,23,r,2,(-121.76378772032352, -121.76378772032348),26,-25,14,yes,x,5,x,0.4800671999983024,1,59,test1,1,0.4802361000038218,-70.0
8,hdl,m,23,r,2,(172.20000000000002, 0.0),21,7,3,yes,x,5,x,0.6115907999919727,1,60,test1,1,0.6119677999959094,-38.0
8,hdl,m,23,r,2,(-3.163262682197613e-14, -172.20000000000002),27,-5,12,no,m,6,m,0.652854899992235,1,61,test1,1,0.6530889999994542,-38.0
8,hdl,m,23,r,2,(121.76378772032346, -121.76378772032352),28,25,4,no,m,6,m,0.7516740999999456,1,62,test1,1,0.7518894999957411,-38.0
8,hdl,m,23,r,2,(121.76378772032346, -121.76378772032352),28,3,1,yes,x,5,x,0.7319665999966674,1,63,test1,1,0.7323671999911312,-42.0
8,hdl,m,23,r,2,(121.76378772032349, 121.76378772032349),22,-5,12,no,m,6,m,0.6987930000032065,1,64,test1,1,0.6990944999997737,-42.0
8,hdl,m,23,r,2,(-121.76378772032352, -121.76378772032348),26,7,3,no,m,6,m,0.882790899995598,1,65,test1,1,0.8830261999974027,-42.0
8,hdl,m,23,r,2,(-121.76378772032348, 121.76378772032349),24,25,4,no,m,6,m,0.739838100009365,1,66,test1,1,0.739937700011069,-42.0
8,hdl,m,23,r,2,(-121.76378772032348, 121.76378772032349),24,-5,12,no,m,6,m,0.6549896000069566,1,67,test1,1,0.6552241000026697,-42.0
8,hdl,m,23,r,2,(1.0544208940658713e-14, 172.20000000000002),23,-3,11,no,m,6,m,0.8126301000011154,1,68,test1,1,0.8127461000112817,-42.0
8,hdl,m,23,r,2,(-121.76378772032352, -121.76378772032348),26,-5,12,no,m,6,m,0.4577798999962397,1,69,test1,1,0.4581185999995796,-42.0
8,hdl,m,23,r,2,(-121.76378772032348, 121.76378772032349),24,-25,14,yes,x,5,x,0.38467270000546705,1,70,test1,1,0.3848230000003241,-70.0
8,hdl,m,23,r,2,(-172.20000000000002, 2.1088417881317425e-14),25,25,4,yes,x,5,x,0.36301990000356454,1,71,test1,1,0.36362700001336634,-20.0
8,hdl,m,23,r,2,(172.20000000000002, 0.0),21,3,1,yes,x,5,x,1.0924452999897767,1,72,test1,1,1.0929428999952506,-42.0
8,hdl,m,23,r,2,(121.76378772032346, -121.76378772032352),28,-7,13,yes,x,5,x,0.468779299990274,1,73,test1,1,0.46887949999654666,-52.0
8,hdl,m,23,r,2,(-121.76378772032352, -121.76378772032348),26,-3,11,yes,x,5,m,0.7219155000057071,0,74,test1,1,0.7220473000052152,-48.0
8,hdl,m,23,r,2,(172.20000000000002, 0.0),21,-5,12,no,m,6,m,0.8364306000003126,1,75,test1,1,0.8366749999986496,-48.0
8,hdl,m,23,r,2,(1.0544208940658713e-14, 172.20000000000002),23,-5,12,yes,x,5,x,0.48930610000388697,1,76,test1,1,0.48947290000796784,-50.0
8,hdl,m,23,r,2,(172.20000000000002, 0.0),21,7,3,yes,x,5,x,0.4929907000041567,1,77,test1,1,0.4931205000029877,-38.0
8,hdl,m,23,r,2,(-3.163262682197613e-14, -172.20000000000002),27,7,3,yes,x,5,x,0.4884101999923587,1,78,test1,1,0.48853459999372717,-38.0
8,hdl,m,23,r,2,(-121.76378772032352, -121.76378772032348),26,-3,11,no,m,6,m,0.883757700008573,1,79,test1,1,0.8843622999993386,-38.0
8,hdl,m,23,r,2,(121.76378772032346, -121.76378772032352),28,5,2,yes,x,5,x,0.5605431000003591,1,80,test1,1,0.5611391999991611,-40.0
8,hdl,m,23,r,2,(-3.163262682197613e-14, -172.20000000000002),27,5,2,yes,x,5,x,0.6232747999893036,1,81,test1,1,0.6233704999904148,-40.0
8,hdl,m,23,r,2,(1.0544208940658713e-14, 172.20000000000002),23,25,4,yes,x,5,x,0.4459173999930499,1,82,test1,1,0.4461874999979045,-20.0
8,hdl,m,23,r,2,(172.20000000000002, 0.0),21,-5,12,yes,x,5,x,0.4170787000039127,1,83,test1,1,0.4172824999986915,-50.0
8,hdl,m,23,r,2,(-121.76378772032352, -121.76378772032348),26,-5,12,yes,x,5,x,0.6521960999962175,1,84,test1,1,0.6523099000041839,-50.0
8,hdl,m,23,r,2,(-121.76378772032348, 121.76378772032349),24,25,4,yes,x,5,x,0.6618057000014232,1,85,test1,1,0.6620317000051728,-20.0
8,hdl,m,23,r,2,(1.0544208940658713e-14, 172.20000000000002),23,7,3,yes,x,5,x,0.4140522000088822,1,86,test1,1,0.41436859998793807,-38.0
8,hdl,m,23,r,2,(121.76378772032349, 121.76378772032349),22,-3,11,yes,x,5,x,0.3569928999932017,1,87,test1,1,0.35720349999610335,-48.0
8,hdl,m,23,r,2,(-3.163262682197613e-14, -172.20000000000002),27,-3,11,yes,x,5,x,0.7532223000016529,1,88,test1,1,0.7536251999990782,-48.0
8,hdl,m,23,r,2,(1.0544208940658713e-14, 172.20000000000002),23,3,1,no,m,6,m,0.729049200002919,1,89,test1,1,0.7295805000030668,-48.0
8,hdl,m,23,r,2,(121.76378772032346, -121.76378772032352),28,-3,11,no,m,6,x,1.0631083999905968,0,90,test1,1,1.0632413000130327,-48.0
8,hdl,m,23,r,2,(-121.76378772032352, -121.76378772032348),26,5,2,yes,x,5,x,0.8798176000127569,1,91,test1,1,0.8799162999930559,-40.0
8,hdl,m,23,r,2,(-121.76378772032348, 121.76378772032349),24,7,3,no,m,6,m,1.0364122000028146,1,92,test1,1,1.0367613999987952,-40.0
8,hdl,m,23,r,2,(-121.76378772032352, -121.76378772032348),26,3,1,yes,x,5,m,0.7196669999975711,0,93,test1,1,0.7200621000083629,-42.0
8,hdl,m,23,r,2,(-172.20000000000002, 2.1088417881317425e-14),25,5,2,no,m,6,m,0.8144570000004023,1,94,test1,1,0.8151868000131799,-42.0
8,hdl,m,23,r,2,(121.76378772032346, -121.76378772032352),28,3,1,yes,x,5,x,0.9499402000074042,1,95,test1,1,0.9501563999947393,-42.0
8,hdl,m,23,r,2,(172.20000000000002, 0.0),21,-7,13,yes,x,5,x,0.7141256999893812,1,96,test1,1,0.714612700001453,-52.0
8,hdl,m,23,r,2,(-121.76378772032348, 121.76378772032349),24,-25,14,no,m,6,m,1.1456987999990815,1,1,test2,1,1.1459859000024153,-52.0
8,hdl,m,23,r,2,(1.0544208940658713e-14, 172.20000000000002),23,7,3,yes,x,5,x,0.41667629999574274,1,2,test2,1,0.4167777999973623,-38.0
8,hdl,m,23,r,2,(-172.20000000000002, 2.1088417881317425e-14),25,-25,14,yes,x,5,x,0.38347099999373313,1,3,test2,1,0.3836703000124544,-70.0
8,hdl,m,23,r,2,(-3.163262682197613e-14, -172.20000000000002),27,25,4,yes,x,5,x,0.42361430000164546,1,4,test2,1,0.42371829999319743,-20.0
8,hdl,m,23,r,2,(121.76378772032346, -121.76378772032352),28,-3,11,yes,x,5,x,0.7186939999955939,1,5,test2,1,0.7189054000045871,-48.0
8,hdl,m,23,r,2,(-3.163262682197613e-14, -172.20000000000002),27,-25,14,no,m,6,m,0.7341917000012472,1,6,test2,1,0.7342930000013439,-48.0
8,hdl,m,23,r,2,(1.0544208940658713e-14, 172.20000000000002),23,-25,14,yes,x,5,x,0.42727169999852777,1,7,test2,1,0.4275671999930637,-70.0
8,hdl,m,23,r,2,(-172.20000000000002, 2.1088417881317425e-14),25,-5,12,no,m,6,m,0.8060667000099784,1,8,test2,1,0.8063551000086591,-70.0
8,hdl,m,23,r,2,(121.76378772032346, -121.76378772032352),28,5,2,no,m,6,m,0.9124217000062345,1,9,test2,1,0.9125528999866219,-70.0
8,hdl,m,23,r,2,(-121.76378772032348, 121.76378772032349),24,-7,13,yes,x,5,x,0.41171400000166614,1,10,test2,1,0.4121164999960456,-52.0
8,hdl,m,23,r,2,(-172.20000000000002, 2.1088417881317425e-14),25,25,4,yes,x,5,x,0.42991380000603385,1,11,test2,1,0.43003270000917837,-20.0
8,hdl,m,23,r,2,(121.76378772032349, 121.76378772032349),22,-3,11,yes,x,5,m,0.6690941999986535,0,12,test2,1,0.6694492999959039,-48.0
8,hdl,m,23,r,2,(-121.76378772032352, -121.76378772032348),26,-7,13,no,m,6,m,0.8417600999964634,1,13,test2,1,0.8419420999998692,-48.0
8,hdl,m,23,r,2,(-172.20000000000002, 2.1088417881317425e-14),25,7,3,no,m,6,m,0.7194396999984747,1,14,test2,1,0.7196384000126272,-48.0
8,hdl,m,23,r,2,(-121.76378772032348, 121.76378772032349),24,-7,13,no,m,6,m,1.0039161000022432,1,15,test2,1,1.0042413000046508,-48.0
8,hdl,m,23,r,2,(121.76378772032349, 121.76378772032349),22,25,4,yes,x,5,x,0.49930110000423156,1,16,test2,1,0.49945990000560414,-20.0
8,hdl,m,23,r,2,(-172.20000000000002, 2.1088417881317425e-14),25,-3,11,yes,x,5,x,0.8721147999895038,1,17,test2,1,0.8722856999957003,-48.0
8,hdl,m,23,r,2,(-172.20000000000002, 2.1088417881317425e-14),25,-7,13,yes,x,5,x,0.49742040000273846,1,18,test2,1,0.49771270000201184,-52.0
8,hdl,m,23,r,2,(-3.163262682197613e-14, -172.20000000000002),27,3,1,yes,x,5,x,0.8768963999900734,1,19,test2,1,0.8773220000002766,-42.0
8,hdl,m,23,r,2,(-121.76378772032352, -121.76378772032348),26,7,3,yes,x,5,x,0.542423199993209,1,20,test2,1,0.5425467000022763,-38.0
8,hdl,m,23,r,2,(121.76378772032349, 121.76378772032349),22,-25,14,no,m,6,m,0.9356014999939362,1,21,test2,1,0.9357191999879433,-38.0
8,hdl,m,23,r,2,(121.76378772032349, 121.76378772032349),22,5,2,yes,x,5,x,0.8702907999977469,1,22,test2,1,0.870761099999072,-40.0
8,hdl,m,23,r,2,(121.76378772032346, -121.76378772032352),28,-7,13,yes,x,5,x,0.6253499000013107,1,23,test2,1,0.6254866999952355,-52.0
8,hdl,m,23,r,2,(121.76378772032349, 121.76378772032349),22,3,1,no,m,6,m,0.9549781000096118,1,24,test2,1,0.9552010000043083,-52.0
8,hdl,m,23,r,2,(-3.163262682197613e-14, -172.20000000000002),27,-3,11,yes,x,5,x,0.6850487000046996,1,25,test2,1,0.6857655999920098,-48.0
8,hdl,m,23,r,2,(121.76378772032346, -121.76378772032352),28,-7,13,no,m,6,m,0.7888817000057315,1,26,test2,1,0.7889848000049824,-48.0
8,hdl,m,23,r,2,(-172.20000000000002, 2.1088417881317425e-14),25,3,1,yes,x,5,m,0.8281037999986438,0,27,test2,1,0.8282311000075424,-42.0
8,hdl,m,23,r,2,(-172.20000000000002, 2.1088417881317425e-14),25,7,3,yes,x,5,x,0.4606901000079233,1,28,test2,1,0.46114669999224134,-38.0
8,hdl,m,23,r,2,(-121.76378772032352, -121.76378772032348),26,25,4,yes,x,5,x,0.42719849999411963,1,29,test2,1,0.4272930000006454,-20.0
8,hdl,m,23,r,2,(-121.76378772032348, 121.76378772032349),24,3,1,yes,x,5,x,1.1675470000045607,1,30,test2,1,1.1678609999944456,-42.0
8,hdl,m,23,r,2,(-172.20000000000002, 2.1088417881317425e-14),25,7,3,yes,x,5,x,0.4668353000015486,1,31,test2,1,0.4672343999991426,-38.0
8,hdl,m,23,r,2,(1.0544208940658713e-14, 172.20000000000002),23,5,2,yes,x,5,x,0.5053974999900674,1,32,test2,1,0.5055223999952432,-40.0
8,hdl,m,23,r,2,(121.76378772032346, -121.76378772032352),28,3,1,no,m,6,m,0.7740026999963447,1,33,test2,1,0.7741227000078652,-40.0
8,hdl,m,23,r,2,(172.20000000000002, 0.0),21,-7,13,no,m,6,m,1.0690390999952797,1,34,test2,1,1.0695343999977922,-40.0
8,hdl,m,23,r,2,(-3.163262682197613e-14, -172.20000000000002),27,5,2,no,m,6,m,0.9376876999886008,1,35,test2,1,0.9378263999969931,-40.0
8,hdl,m,23,r,2,(-172.20000000000002, 2.1088417881317425e-14),25,-3,11,yes,x,5,x,0.962587900008657,1,36,test2,1,0.9628143000009004,-48.0
8,hdl,m,23,r,2,(-121.76378772032352, -121.76378772032348),26,3,1,yes,x,5,x,0.8133216999995057,1,37,test2,1,0.8134331000037491,-42.0
8,hdl,m,23,r,2,(121.76378772032346, -121.76378772032352),28,7,3,no,m,6,m,0.7982677999971202,1,38,test2,1,0.7983692999987397,-42.0
8,hdl,m,23,r,2,(-172.20000000000002, 2.1088417881317425e-14),25,25,4,no,m,6,m,1.186989399997401,1,39,test2,1,1.187114999993355,-42.0
8,hdl,m,23,r,2,(121.76378772032349, 121.76378772032349),22,25,4,yes,x,5,x,0.4192583999974886,1,40,test2,1,0.4196088000026066,-20.0
8,hdl,m,23,r,2,(-3.163262682197613e-14, -172.20000000000002),27,25,4,yes,x,5,x,0.46630659999209456,1,41,test2,1,0.4665097999968566,-20.0
8,hdl,m,23,r,2,(1.0544208940658713e-14, 172.20000000000002),23,-3,11,yes,x,5,x,0.6011643999954686,1,42,test2,1,0.6013348999986192,-48.0
8,hdl,m,23,r,2,(-172.20000000000002, 2.1088417881317425e-14),25,3,1,yes,x,5,x,0.8908908000012161,1,43,test2,1,0.8910613000043668,-42.0
8,hdl,m,23,r,2,(-121.76378772032352, -121.76378772032348),26,-25,14,no,m,6,m,0.9168676000117557,1,44,test2,1,0.9171800999902189,-42.0
8,hdl,m,23,r,2,(121.76378772032349, 121.76378772032349),22,-7,13,yes,x,5,x,0.7096464999922318,1,45,test2,1,0.7098884000006365,-52.0
8,hdl,m,23,r,2,(-172.20000000000002, 2.1088417881317425e-14),25,-3,11,no,m,6,m,0.7393152000004193,1,46,test2,1,0.7397100999951363,-52.0
8,hdl,m,23,r,2,(1.0544208940658713e-14, 172.20000000000002),23,-25,14,yes,x,5,x,0.4527830000006361,1,47,test2,1,0.4530718000023626,-70.0
8,hdl,m,23,r,2,(-121.76378772032348, 121.76378772032349),24,3,1,yes,x,5,x,0.5154667000024347,1,48,test2,1,0.516101900007925,-42.0
8,hdl,m,23,r,2,(1.0544208940658713e-14, 172.20000000000002),23,25,4,yes,x,5,x,0.4206889999913983,1,49,test2,1,0.42078380000020843,-20.0
8,hdl,m,23,r,2,(-3.163262682197613e-14, -172.20000000000002),27,-7,13,yes,x,5,x,0.5283533000038005,1,50,test2,1,0.5284792000020389,-52.0
8,hdl,m,23,r,2,(1.0544208940658713e-14, 172.20000000000002),23,-25,14,no,m,6,m,0.9734778999991249,1,51,test2,1,0.973604200000409,-52.0
8,hdl,m,23,r,2,(-121.76378772032352, -121.76378772032348),26,5,2,no,m,6,m,1.1116655000078026,1,52,test2,1,1.111767599999439,-52.0
8,hdl,m,23,r,2,(172.20000000000002, 0.0),21,-7,13,yes,x,5,x,0.6272025999933248,1,53,test2,1,0.6278086999955121,-52.0
8,hdl,m,23,r,2,(-121.76378772032352, -121.76378772032348),26,-3,11,yes,x,5,m,0.8200808999972651,0,54,test2,1,0.820180499998969,-48.0
8,hdl,m,23,r,2,(-3.163262682197613e-14, -172.20000000000002),27,-5,12,yes,x,5,x,0.5355988999945112,1,55,test2,1,0.5358034999953816,-50.0
8,hdl,m,23,r,2,(172.20000000000002, 0.0),21,-25,14,yes,x,5,x,0.45499080000445247,1,56,test2,1,0.4551612999930512,-70.0
8,hdl,m,23,r,2,(121.76378772032349, 121.76378772032349),22,-7,13,no,m,6,m,1.325933400003123,1,57,test2,1,1.3263244999980088,-70.0
8,hdl,m,23,r,2,(1.0544208940658713e-14, 172.20000000000002),23,25,4,no,m,6,m,1.2166107000084594,1,58,test2,1,1.2168300000048475,-70.0
8,hdl,m,23,r,2,(121.76378772032346, -121.76378772032352),28,-3,11,yes,x,5,x,0.9298639000044204,1,59,test2,1,0.9299918999895453,-48.0
8,hdl,m,23,r,2,(-121.76378772032348, 121.76378772032349),24,3,1,no,m,6,m,0.8436530000035418,1,60,test2,1,0.844076599998516,-48.0
8,hdl,m,23,r,2,(121.76378772032349, 121.76378772032349),22,-25,14,yes,x,5,x,0.4859398999979021,1,61,test2,1,0.4861696000007214,-70.0
8,hdl,m,23,r,2,(-121.76378772032352, -121.76378772032348),26,-5,12,yes,x,5,x,0.6879415000003064,1,62,test2,1,0.6880975000094622,-50.0
8,hdl,m,23,r,2,(-121.76378772032352, -121.76378772032348),26,3,1,no,m,6,x,1.1615811999945436,0,63,test2,1,1.161801900001592,-50.0
8,hdl,m,23,r,2,(121.76378772032349, 121.76378772032349),22,5,2,no,m,6,m,1.0568309999944177,1,64,test2,1,1.056968600008986,-50.0
8,hdl,m,23,r,2,(1.0544208940658713e-14, 172.20000000000002),23,3,1,yes,x,5,x,0.7095438999967882,1,65,test2,1,0.7098077999980887,-42.0
8,hdl,m,23,r,2,(121.76378772032346, -121.76378772032352),28,7,3,yes,x,5,x,0.6449437999981456,1,66,test2,1,0.6451670000096783,-38.0
8,hdl,m,23,r,2,(-121.76378772032348, 121.76378772032349),24,-5,12,yes,x,5,x,0.6143344000010984,1,67,test2,1,0.6145144000038272,-50.0
8,hdl,m,23,r,2,(-3.163262682197613e-14, -172.20000000000002),27,3,1,yes,x,5,x,0.6781200999976136,1,68,test2,1,0.6784355999989202,-42.0
8,hdl,m,23,r,2,(1.0544208940658713e-14, 172.20000000000002),23,-5,12,no,m,6,m,0.9810835999960545,1,69,test2,1,0.9812375000037719,-42.0
8,hdl,m,23,r,2,(172.20000000000002, 0.0),21,7,3,no,m,6,m,1.3150095000019064,1,70,test2,1,1.31529589999991,-42.0
8,hdl,m,23,r,2,(-121.76378772032348, 121.76378772032349),24,-5,12,yes,x,5,x,0.5700364000076661,1,71,test2,1,0.5705395999975735,-50.0
8,hdl,m,23,r,2,(172.20000000000002, 0.0),21,5,2,no,m,6,m,0.9105675000027986,1,72,test2,1,0.9106810999946902,-50.0
8,hdl,m,23,r,2,(-3.163262682197613e-14, -172.20000000000002),27,25,4,no,m,6,m,1.138455200009048,1,73,test2,1,1.1389191999915056,-50.0
8,hdl,m,23,r,2,(172.20000000000002, 0.0),21,-3,11,yes,x,5,x,1.2433183999964967,1,74,test2,1,1.2435250000125961,-48.0
8,hdl,m,23,r,2,(121.76378772032346, -121.76378772032352),28,-5,12,yes,x,5,x,0.778604200007976,1,75,test2,1,0.7787053000065498,-50.0
8,hdl,m,23,r,2,(172.20000000000002, 0.0),21,5,2,yes,x,5,m,0.8804566000035265,0,76,test2,1,0.8807341000065207,-40.0
8,hdl,m,23,r,2,(-3.163262682197613e-14, -172.20000000000002),27,-25,14,yes,x,5,x,0.48457249999046326,1,77,test2,1,0.48485619999701157,-70.0
8,hdl,m,23,r,2,(-121.76378772032352, -121.76378772032348),26,25,4,yes,x,5,x,0.4498262999986764,1,78,test2,1,0.4499655999970855,-20.0
8,hdl,m,23,r,2,(1.0544208940658713e-14, 172.20000000000002),23,-7,13,yes,x,5,x,0.49456190000637434,1,79,test2,1,0.49469210000825115,-52.0
8,hdl,m,23,r,2,(121.76378772032349, 121.76378772032349),22,-7,13,yes,x,5,x,0.4901087999896845,1,80,test2,1,0.49029250000603497,-52.0
8,hdl,m,23,r,2,(121.76378772032346, -121.76378772032352),28,-25,14,no,m,6,m,0.8346502999920631,1,81,test2,1,0.8348631999979261,-52.0
8,hdl,m,23,r,2,(121.76378772032346, -121.76378772032352),28,-25,14,yes,x,5,x,0.49356909999914933,1,82,test2,1,0.49418590001005214,-70.0
8,hdl,m,23,r,2,(172.20000000000002, 0.0),21,25,4,no,m,6,m,0.77638169999409,1,83,test2,1,0.7764813000103459,-70.0
8,hdl,m,23,r,2,(-172.20000000000002, 2.1088417881317425e-14),25,-7,13,yes,x,5,x,0.514618099987274,1,84,test2,1,0.5153410999919288,-52.0
8,hdl,m,23,r,2,(1.0544208940658713e-14, 172.20000000000002),23,-7,13,no,m,6,m,0.8835986999911256,1,85,test2,1,0.8836988999973983,-52.0
8,hdl,m,23,r,2,(121.76378772032349, 121.76378772032349),22,-3,11,no,m,6,m,0.8197186999896076,1,86,test2,1,0.8198575999995228,-52.0
8,hdl,m,23,r,2,(121.76378772032349, 121.76378772032349),22,7,3,yes,x,5,x,0.5680148999963421,1,87,test2,1,0.5684116000047652,-38.0
8,hdl,m,23,r,2,(-121.76378772032348, 121.76378772032349),24,-7,13,yes,x,5,x,0.47703680000267923,1,88,test2,1,0.4773228999983985,-52.0
8,hdl,m,23,r,2,(-3.163262682197613e-14, -172.20000000000002),27,-7,13,no,m,6,m,0.7116308000113349,1,89,test2,1,0.7119193999969866,-52.0
8,hdl,m,23,r,2,(121.76378772032346, -121.76378772032352),28,25,4,yes,x,5,x,1.2746580999955768,1,90,test2,1,1.2748541000037221,-20.0
8,hdl,m,23,r,2,(172.20000000000002, 0.0),21,-5,12,yes,x,5,x,0.8249631999933627,1,91,test2,1,0.8250726999976905,-50.0
8,hdl,m,23,r,2,(-121.76378772032352, -121.76378772032348),26,5,2,yes,x,5,x,0.5438979000027757,1,92,test2,1,0.5440161999867996,-40.0
8,hdl,m,23,r,2,(-121.76378772032352, -121.76378772032348),26,7,3,yes,x,5,x,0.40618459999677725,1,93,test2,1,0.4063157000055071,-38.0
8,hdl,m,23,r,2,(172.20000000000002, 0.0),21,-3,11,yes,x,5,x,0.9030827999959001,1,94,test2,1,0.9032957000017632,-48.0
8,hdl,m,23,r,2,(-172.20000000000002, 2.1088417881317425e-14),25,-25,14,yes,x,5,x,0.4718728000007104,1,95,test2,1,0.4722178000083659,-70.0
8,hdl,m,23,r,2,(121.76378772032349, 121.76378772032349),22,3,1,yes,x,5,m,1.079388000012841,0,96,test2,1,1.0795996999950148,-42.0
8,hdl,m,23,r,2,(-121.76378772032348, 121.76378772032349),24,-25,14,yes,x,5,x,0.5224100000050385,1,1,test1,2,0.5227503999922192,-70.0
8,hdl,m,23,r,2,(1.0544208940658713e-14, 172.20000000000002),23,-5,12,yes,x,5,x,0.4405029000045033,1,2,test1,2,0.4407045999978436,-50.0
8,hdl,m,23,r,2,(-121.76378772032348, 121.76378772032349),24,-3,11,yes,x,5,x,0.6339888999937102,1,3,test1,2,0.6340999999956694,-48.0
8,hdl,m,23,r,2,(-3.163262682197613e-14, -172.20000000000002),27,-7,13,yes,x,5,x,0.44240919999720063,1,4,test1,2,0.4427122000051895,-52.0
8,hdl,m,23,r,2,(172.20000000000002, 0.0),21,25,4,yes,x,5,x,0.37694050000573043,1,5,test1,2,0.37710230000084266,-20.0
8,hdl,m,23,r,2,(-172.20000000000002, 2.1088417881317425e-14),25,3,1,no,m,6,m,0.709945599999628,1,6,test1,2,0.7101625000068452,-20.0
8,hdl,m,23,r,2,(121.76378772032349, 121.76378772032349),22,-5,12,yes,x,5,x,0.4973848000081489,1,7,test1,2,0.49748629999521654,-50.0
8,hdl,m,23,r,2,(-121.76378772032348, 121.76378772032349),24,-3,11,yes,x,5,x,0.6271773999906145,1,8,test1,2,0.6272811999951955,-48.0
8,hdl,m,23,r,2,(172.20000000000002, 0.0),21,-25,14,no,m,6,m,0.6609685000003083,1,9,test1,2,0.6612163000099827,-48.0
8,hdl,m,23,r,2,(-3.163262682197613e-14, -172.20000000000002),27,-25,14,yes,x,5,x,0.3874555000074906,1,10,test1,2,0.3876821000012569,-70.0
8,hdl,m,23,r,2,(-121.76378772032352, -121.76378772032348),26,-7,13,yes,x,5,x,0.47048740000172984,1,11,test1,2,0.47079049999592826,-52.0
8,hdl,m,23,r,2,(-121.76378772032348, 121.76378772032349),24,25,4,yes,x,5,x,0.3552122999972198,1,12,test1,2,0.3553140000003623,-20.0
8,hdl,m,23,r,2,(121.76378772032349, 121.76378772032349),22,7,3,no,m,6,m,0.9965721000044141,1,13,test1,2,0.9967350000079023,-20.0
8,hdl,m,23,r,2,(121.76378772032346, -121.76378772032352),28,-5,12,yes,x,5,x,0.576018199993996,1,14,test1,2,0.5761231000069529,-50.0
8,hdl,m,23,r,2,(1.0544208940658713e-14, 172.20000000000002),23,5,2,yes,x,5,x,0.45266880000417586,1,15,test1,2,0.45313620001252275,-40.0
8,hdl,m,23,r,2,(121.76378772032349, 121.76378772032349),22,3,1,yes,x,5,m,0.7139582000090741,0,16,test1,2,0.7140876000048593,-42.0
8,hdl,m,23,r,2,(1.0544208940658713e-14, 172.20000000000002),23,-7,13,yes,x,5,x,0.48763529999996535,1,17,test1,2,0.4877602999913506,-52.0
8,hdl,m,23,r,2,(172.20000000000002, 0.0),21,-3,11,no,m,6,m,0.9035754999931669,1,18,test1,2,0.9037385000119684,-52.0
8,hdl,m,23,r,2,(-3.163262682197613e-14, -172.20000000000002),27,7,3,no,m,6,m,1.0029531000036513,1,19,test1,2,1.0031490999972448,-52.0
8,hdl,m,23,r,2,(-121.76378772032352, -121.76378772032348),26,-7,13,yes,x,5,x,0.45076809999591205,1,20,test1,2,0.4509290999994846,-52.0
8,hdl,m,23,r,2,(-121.76378772032352, -121.76378772032348),26,-25,14,yes,x,5,x,0.41953480000665877,1,21,test1,2,0.4197437999973772,-70.0
8,hdl,m,23,r,2,(-3.163262682197613e-14, -172.20000000000002),27,3,1,no,m,6,m,0.672288200003095,1,22,test1,2,0.6724462999991374,-70.0
8,hdl,m,23,r,2,(-3.163262682197613e-14, -172.20000000000002),27,-3,11,no,m,6,m,0.8831817000027513,1,23,test1,2,0.8834721000021091,-70.0
8,hdl,m,23,r,2,(-121.76378772032348, 121.76378772032349),24,-3,11,no,m,6,m,1.0281335000036051,1,24,test1,2,1.0283875000022817,-70.0
8,hdl,m,23,r,2,(1.0544208940658713e-14, 172.20000000000002),23,7,3,no,m,6,m,0.8055422000034014,1,25,test1,2,0.8056540000106907,-70.0
8,hdl,m,23,r,2,(-3.163262682197613e-14, -172.20000000000002),27,5,2,yes,x,5,x,0.5817702000058489,1,26,test1,2,0.5820057000091765,-40.0
8,hdl,m,23,r,2,(-172.20000000000002, 2.1088417881317425e-14),25,-5,12,yes,x,5,x,0.5337986999948043,1,27,test1,2,0.5339106000028551,-50.0
8,hdl,m,23,r,2,(121.76378772032346, -121.76378772032352),28,-5,12,no,m,6,m,0.809630500007188,1,28,test1,2,0.8097307999996701,-50.0
8,hdl,m,23,r,2,(-3.163262682197613e-14, -172.20000000000002),27,-5,12,yes,x,5,x,0.39151860000856686,1,29,test1,2,0.3917083999986062,-50.0
8,hdl,m,23,r,2,(-172.20000000000002, 2.1088417881317425e-14),25,-5,12,yes,x,5,x,0.39604059999692254,1,30,test1,2,0.3961663999943994,-50.0
8,hdl,m,23,r,2,(172.20000000000002, 0.0),21,25,4,yes,x,5,x,0.3403795999911381,1,31,test1,2,0.3406066000025021,-20.0
8,hdl,m,23,r,2,(172.20000000000002, 0.0),21,-25,14,yes,x,5,x,0.36203829999431036,1,32,test1,2,0.3621400999982143,-70.0
8,hdl,m,23,r,2,(121.76378772032346, -121.76378772032352),28,5,2,yes,x,5,x,0.7676593999931356,1,33,test1,2,0.7677862999989884,-40.0
8,hdl,m,23,r,2,(-121.76378772032348, 121.76378772032349),24,5,2,yes,x,5,x,0.43814869999187067,1,34,test1,2,0.4382952999876579,-40.0
8,hdl,m,23,r,2,(172.20000000000002, 0.0),21,3,1,yes,x,5,x,0.749881000010646,1,35,test1,2,0.7500062000035541,-42.0
8,hdl,m,23,r,2,(121.76378772032349, 121.76378772032349),22,-25,14,yes,x,5,x,0.48544060000858735,1,36,test1,2,0.48553849999734666,-70.0
8,hdl,m,23,r,2,(1.0544208940658713e-14, 172.20000000000002),23,5,2,no,m,6,m,1.2062450000084937,1,37,test1,2,1.2063777000003029,-70.0
8,hdl,m,23,r,2,(-121.76378772032348, 121.76378772032349),24,7,3,yes,x,5,x,0.5268759000027785,1,38,test1,2,0.5269742000091355,-38.0
8,hdl,m,23,r,2,(172.20000000000002, 0.0),21,5,2,yes,x,5,x,0.611861500001396,1,39,test1,2,0.6122978000057628,-40.0
8,hdl,m,23,r,2,(121.76378772032346, -121.76378772032352),28,-25,14,yes,x,5,x,0.38516859999799635,1,40,test1,2,0.3856054999923799,-70.0
8,hdl,m,23,r,2,(121.76378772032346, -121.76378772032352),28,7,3,yes,x,5,x,0.6043151000048965,1,41,test1,2,0.6044774999900255,-38.0
8,hdl,m,23,r,2,(-172.20000000000002, 2.1088417881317425e-14),25,-25,14,no,m,6,m,1.0376483000000007,1,42,test1,2,1.0379382999963127,-38.0
8,hdl,m,23,r,2,(121.76378772032349, 121.76378772032349),22,25,4,no,m,6,m,0.7639395000005607,1,43,test1,2,0.764201600002707,-38.0
8,hdl,m,23,r,2,(-121.76378772032348, 121.76378772032349),24,5,2,yes,x,5,x,0.5078132000053301,1,44,test1,2,0.5079712000006111,-40.0
8,hdl,m,23,r,2,(-172.20000000000002, 2.1088417881317425e-14),25,5,2,yes,x,5,x,0.6572057000012137,1,45,test1,2,0.6574550999939675,-40.0
8,hdl,m,23,r,2,(-121.76378772032352, -121.76378772032348),26,25,4,no,m,6,m,0.8334960999927716,1,46,test1,2,0.833597999997437,-40.0
8,hdl,m,23,r,2,(1.0544208940658713e-14, 172.20000000000002),23,-3,11,yes,x,5,x,0.9380598999996437,1,47,test1,2,0.9382921000069473,-48.0
8,hdl,m,23,r,2,(172.20000000000002, 0.0),21,3,1,no,m,6,m,0.664485400004196,1,48,test1,2,0.6647694999992382,-48.0
8,hdl,m,23,r,2,(121.76378772032349, 121.76378772032349),22,7,3,yes,x,5,x,0.45468749999417923,1,49,test1,2,0.4551876000041375,-38.0
8,hdl,m,23,r,2,(-172.20000000000002, 2.1088417881317425e-14),25,5,2,yes,x,5,x,0.5323772999981884,1,50,test1,2,0.5326271000085399,-40.0
8,hdl,m,23,r,2,(-121.76378772032348, 121.76378772032349),24,5,2,no,m,6,m,0.806041500007268,1,51,test1,2,0.806156499995268,-40.0
8,hdl,m,23,r,2,(-3.163262682197613e-14, -172.20000000000002),27,7,3,yes,x,5,x,0.5030869000038365,1,52,test1,2,0.5032977999944706,-38.0
8,hdl,m,23,r,2,(121.76378772032349, 121.76378772032349),22,-5,12,yes,x,5,x,0.84441419999348,1,53,test1,2,0.844648700003745,-50.0
8,hdl,m,23,r,2,(121.76378772032349, 121.76378772032349),22,5,2,yes,x,5,x,0.4635684999957448,1,54,test1,2,0.46430840001266915,-40.0
8,hdl,m,23,r,2,(-121.76378772032348, 121.76378772032349),24,7,3,yes,x,5,x,0.4939458000008017,1,55,test1,2,0.49421129999973346,-38.0
8,hdl,m,23,r,2,(1.0544208940658713e-14, 172.20000000000002),23,3,1,yes,x,5,x,0.5601228999876184,1,56,test1,2,0.5602537999948254,-42.0
8,hdl,m,23,r,2,(121.76378772032346, -121.76378772032352),28,25,4,yes,x,5,x,0.41163800000504125,1,57,test1,2,0.41175109999312554,-20.0
8,hdl,m,23,r,2,(-172.20000000000002, 2.1088417881317425e-14),25,-7,13,no,m,6,m,0.6936129999958212,1,58,test1,2,0.6938672000105726,-20.0
8,hdl,m,23,r,2,(-121.76378772032352, -121.76378772032348),26,-25,14,yes,x,5,x,0.4139475999982096,1,59,test1,2,0.4140607000008458,-70.0
8,hdl,m,23,r,2,(172.20000000000002, 0.0),21,7,3,yes,x,5,x,0.5473264000029303,1,60,test1,2,0.5474776000046404,-38.0
8,hdl,m,23,r,2,(-3.163262682197613e-14, -172.20000000000002),27,-5,12,no,m,6,m,0.7277394999982789,1,61,test1,2,0.7280840000021271,-38.0
8,hdl,m,23,r,2,(121.76378772032346, -121.76378772032352),28,25,4,no,m,6,m,0.7034576000005472,1,62,test1,2,0.7035728999908315,-38.0
8,hdl,m,23,r,2,(121.76378772032346, -121.76378772032352),28,3,1,yes,x,5,m,0.706190199998673,0,63,test1,2,0.7064107000041986,-42.0
8,hdl,m,23,r,2,(121.76378772032349, 121.76378772032349),22,-5,12,no,m,6,m,0.8190395999990869,1,64,test1,2,0.8191932999907294,-42.0
8,hdl,m,23,r,2,(-121.76378772032352, -121.76378772032348),26,7,3,no,m,6,m,0.8577768999966793,1,65,test1,2,0.8579126999975415,-42.0
8,hdl,m,23,r,2,(-121.76378772032348, 121.76378772032349),24,25,4,no,m,6,m,0.7953410000045551,1,66,test1,2,0.7954705000011018,-42.0
8,hdl,m,23,r,2,(-121.76378772032348, 121.76378772032349),24,-5,12,no,m,6,m,0.8555846999952337,1,67,test1,2,0.855697599996347,-42.0
8,hdl,m,23,r,2,(1.0544208940658713e-14, 172.20000000000002),23,-3,11,no,m,6,m,0.8577360000053886,1,68,test1,2,0.8578647999966051,-42.0
8,hdl,m,23,r,2,(-121.76378772032352, -121.76378772032348),26,-5,12,no,m,6,m,0.7216302000015276,1,69,test1,2,0.7218343999993522,-42.0
8,hdl,m,23,r,2,(-121.76378772032348, 121.76378772032349),24,-25,14,yes,x,5,x,0.42237490000843536,1,70,test1,2,0.42257619999872986,-70.0
8,hdl,m,23,r,2,(-172.20000000000002, 2.1088417881317425e-14),25,25,4,yes,x,5,m,0.6801673000009032,0,71,test1,2,0.6804994999984046,-20.0
8,hdl,m,23,r,2,(172.20000000000002, 0.0),21,3,1,yes,x,5,m,0.803693599998951,0,72,test1,2,0.8041343000077177,-42.0
8,hdl,m,23,r,2,(121.76378772032346, -121.76378772032352),28,-7,13,yes,x,5,x,0.6654167999950005,1,73,test1,2,0.6655243999994127,-52.0
8,hdl,m,23,r,2,(-121.76378772032352, -121.76378772032348),26,-3,11,yes,x,5,x,0.9917457999981707,1,74,test1,2,0.9923954999976559,-48.0
8,hdl,m,23,r,2,(172.20000000000002, 0.0),21,-5,12,no,m,6,m,1.0947512999991886,1,75,test1,2,1.0948825999948895,-48.0
8,hdl,m,23,r,2,(1.0544208940658713e-14, 172.20000000000002),23,-5,12,yes,x,5,x,0.49693029999616556,1,76,test1,2,0.49726400000508875,-50.0
8,hdl,m,23,r,2,(172.20000000000002, 0.0),21,7,3,yes,x,5,x,0.6906599999929313,1,77,test1,2,0.6908340999943903,-38.0
8,hdl,m,23,r,2,(-3.163262682197613e-14, -172.20000000000002),27,7,3,yes,x,5,x,0.44476730001042597,1,78,test1,2,0.44499720000021625,-38.0
8,hdl,m,23,r,2,(-121.76378772032352, -121.76378772032348),26,-3,11,no,m,6,m,0.6873856000020169,1,79,test1,2,0.6878219999925932,-38.0
8,hdl,m,23,r,2,(121.76378772032346, -121.76378772032352),28,5,2,yes,x,5,x,0.6301993999950355,1,80,test1,2,0.6307732999994187,-40.0
8,hdl,m,23,r,2,(-3.163262682197613e-14, -172.20000000000002),27,5,2,yes,x,5,x,0.5286816000007093,1,81,test1,2,0.528807800001232,-40.0
8,hdl,m,23,r,2,(1.0544208940658713e-14, 172.20000000000002),23,25,4,yes,x,5,x,0.46163209999212995,1,82,test1,2,0.4623120999895036,-20.0
8,hdl,m,23,r,2,(172.20000000000002, 0.0),21,-5,12,yes,x,5,x,0.6857213000039337,1,83,test1,2,0.6860439999873051,-50.0
8,hdl,m,23,r,2,(-121.76378772032352, -121.76378772032348),26,-5,12,yes,x,5,x,0.4555860000109533,1,84,test1,2,0.4557128000014927,-50.0
8,hdl,m,23,r,2,(-121.76378772032348, 121.76378772032349),24,25,4,yes,x,5,x,0.3939593999966746,1,85,test1,2,0.3940727000008337,-20.0
8,hdl,m,23,r,2,(1.0544208940658713e-14, 172.20000000000002),23,7,3,yes,x,5,x,0.46529210000880994,1,86,test1,2,0.46545139999943785,-38.0
8,hdl,m,23,r,2,(121.76378772032349, 121.76378772032349),22,-3,11,yes,x,5,x,0.8521246000018436,1,87,test1,2,0.8523486000049161,-48.0
8,hdl,m,23,r,2,(-3.163262682197613e-14, -172.20000000000002),27,-3,11,yes,x,5,x,0.7018246999941766,1,88,test1,2,0.7019403000012971,-48.0
8,hdl,m,23,r,2,(1.0544208940658713e-14, 172.20000000000002),23,3,1,no,m,6,m,0.9006711999973049,1,89,test1,2,0.9010664999950677,-48.0
8,hdl,m,23,r,2,(121.76378772032346, -121.76378772032352),28,-3,11,no,m,6,m,0.8517917999997735,1,90,test1,2,0.852154000007431,-48.0
8,hdl,m,23,r,2,(-121.76378772032352, -121.76378772032348),26,5,2,yes,x,5,x,0.5959043000038946,1,91,test1,2,0.5961092000070494,-40.0
8,hdl,m,23,r,2,(-121.76378772032348, 121.76378772032349),24,7,3,no,m,6,m,0.9195407999941381,1,92,test1,2,0.9196569000050658,-40.0
8,hdl,m,23,r,2,(-121.76378772032352, -121.76378772032348),26,3,1,yes,x,5,x,0.9188257000059821,1,93,test1,2,0.9190572999941651,-42.0
8,hdl,m,23,r,2,(-172.20000000000002, 2.1088417881317425e-14),25,5,2,no,m,6,m,0.757117000001017,1,94,test1,2,0.7573178000020562,-42.0
8,hdl,m,23,r,2,(121.76378772032346, -121.76378772032352),28,3,1,yes,x,5,m,1.0282264999987092,0,95,test1,2,1.028324099999736,-42.0
8,hdl,m,23,r,2,(172.20000000000002, 0.0),21,-7,13,yes,x,5,x,0.6051521999906981,1,96,test1,2,0.6055307999922661,-52.0
8,hdl,m,23,r,2,(-121.76378772032348, 121.76378772032349),24,-25,14,no,m,6,m,0.9517013000004226,1,1,test2,2,0.9518829000007827,-52.0
8,hdl,m,23,r,2,(1.0544208940658713e-14, 172.20000000000002),23,7,3,yes,x,5,x,0.5861691000027349,1,2,test2,2,0.586464199994225,-38.0
8,hdl,m,23,r,2,(-172.20000000000002, 2.1088417881317425e-14),25,-25,14,yes,x,5,x,0.4644267999974545,1,3,test2,2,0.4645629000006011,-70.0
8,hdl,m,23,r,2,(-3.163262682197613e-14, -172.20000000000002),27,25,4,yes,x,5,x,0.5600859999976819,1,4,test2,2,0.5602862999949139,-20.0
8,hdl,m,23,r,2,(121.76378772032346, -121.76378772032352),28,-3,11,yes,x,5,x,0.9890535000013188,1,5,test2,2,0.9895069000049261,-48.0
8,hdl,m,23,r,2,(-3.163262682197613e-14, -172.20000000000002),27,-25,14,no,m,6,m,0.8934884000045713,1,6,test2,2,0.8939757000043755,-48.0
8,hdl,m,23,r,2,(1.0544208940658713e-14, 172.20000000000002),23,-25,14,yes,x,5,x,0.3722727999993367,1,7,test2,2,0.3724815000023227,-70.0
8,hdl,m,23,r,2,(-172.20000000000002, 2.1088417881317425e-14),25,-5,12,no,m,6,m,1.0979126000020187,1,8,test2,2,1.0983806000003824,-70.0
8,hdl,m,23,r,2,(121.76378772032346, -121.76378772032352),28,5,2,no,m,6,m,1.0920004000072367,1,9,test2,2,1.0923280999995768,-70.0
8,hdl,m,23,r,2,(-121.76378772032348, 121.76378772032349),24,-7,13,yes,x,5,x,0.393972699996084,1,10,test2,2,0.3942036999942502,-52.0
8,hdl,m,23,r,2,(-172.20000000000002, 2.1088417881317425e-14),25,25,4,yes,x,5,x,0.37153350000153296,1,11,test2,2,0.37170940000214614,-20.0
8,hdl,m,23,r,2,(121.76378772032349, 121.76378772032349),22,-3,11,yes,x,5,x,0.5661868000024697,1,12,test2,2,0.5664228999958141,-48.0
8,hdl,m,23,r,2,(-121.76378772032352, -121.76378772032348),26,-7,13,no,m,6,m,0.9286800999980187,1,13,test2,2,0.9288537000102224,-48.0
8,hdl,m,23,r,2,(-172.20000000000002, 2.1088417881317425e-14),25,7,3,no,m,6,m,0.8956822000036482,1,14,test2,2,0.8959136000048602,-48.0
8,hdl,m,23,r,2,(-121.76378772032348, 121.76378772032349),24,-7,13,no,m,6,m,0.7715904999931809,1,15,test2,2,0.7717586999933701,-48.0
8,hdl,m,23,r,2,(121.76378772032349, 121.76378772032349),22,25,4,yes,x,5,x,0.41639179999765474,1,16,test2,2,0.41650639999716077,-20.0
8,hdl,m,23,r,2,(-172.20000000000002, 2.1088417881317425e-14),25,-3,11,yes,x,5,x,1.0158584999880986,1,17,test2,2,1.0161778000037884,-48.0
8,hdl,m,23,r,2,(-172.20000000000002, 2.1088417881317425e-14),25,-7,13,yes,x,5,x,0.4626812000060454,1,18,test2,2,0.4629659000056563,-52.0
8,hdl,m,23,r,2,(-3.163262682197613e-14, -172.20000000000002),27,3,1,yes,x,5,x,0.6995261999982176,1,19,test2,2,0.6999133999925107,-42.0
8,hdl,m,23,r,2,(-121.76378772032352, -121.76378772032348),26,7,3,yes,x,5,x,0.48311220000323374,1,20,test2,2,0.48324000000138767,-38.0
8,hdl,m,23,r,2,(121.76378772032349, 121.76378772032349),22,-25,14,no,m,6,m,1.3844052999920677,1,21,test2,2,1.3850466000003507,-38.0
8,hdl,m,23,r,2,(121.76378772032349, 121.76378772032349),22,5,2,yes,x,5,x,0.6611845000006724,1,22,test2,2,0.6613897999923211,-40.0
8,hdl,m,23,r,2,(121.76378772032346, -121.76378772032352),28,-7,13,yes,x,5,x,0.6704547999979695,1,23,test2,2,0.6705533000058495,-52.0
8,hdl,m,23,r,2,(121.76378772032349, 121.76378772032349),22,3,1,no,m,6,m,0.9285862999968231,1,24,test2,2,0.9288414000038756,-52.0
8,hdl,m,23,r,2,(-3.163262682197613e-14, -172.20000000000002),27,-3,11,yes,x,5,x,0.5783880999952089,1,25,test2,2,0.57848529999319,-48.0
8,hdl,m,23,r,2,(121.76378772032346, -121.76378772032352),28,-7,13,no,m,6,m,1.0781566999939969,1,26,test2,2,1.0783169000060298,-48.0
8,hdl,m,23,r,2,(-172.20000000000002, 2.1088417881317425e-14),25,3,1,yes,x,5,x,0.6741347999923164,1,27,test2,2,0.6742506000009598,-42.0
8,hdl,m,23,r,2,(-172.20000000000002, 2.1088417881317425e-14),25,7,3,yes,x,5,x,0.5108446999947773,1,28,test2,2,0.5111343000025954,-38.0
8,hdl,m,23,r,2,(-121.76378772032352, -121.76378772032348),26,25,4,yes,x,5,x,0.4735043999971822,1,29,test2,2,0.47371919998840895,-20.0
8,hdl,m,23,r,2,(-121.76378772032348, 121.76378772032349),24,3,1,yes,x,5,x,0.8499769999907585,1,30,test2,2,0.8501128000061726,-42.0
8,hdl,m,23,r,2,(-172.20000000000002, 2.1088417881317425e-14),25,7,3,yes,x,5,x,0.40328719999524765,1,31,test2,2,0.403818599996157,-38.0
8,hdl,m,23,r,2,(1.0544208940658713e-14, 172.20000000000002),23,5,2,yes,x,5,x,0.5901600000070175,1,32,test2,2,0.5902913000027183,-40.0
8,hdl,m,23,r,2,(121.76378772032346, -121.76378772032352),28,3,1,no,m,6,m,1.0865254999953322,1,33,test2,2,1.0866816000052495,-40.0
8,hdl,m,23,r,2,(172.20000000000002, 0.0),21,-7,13,no,m,6,m,0.8699339000013424,1,34,test2,2,0.8701696000061929,-40.0
8,hdl,m,23,r,2,(-3.163262682197613e-14, -172.20000000000002),27,5,2,no,m,6,m,1.0282084999926155,1,35,test2,2,1.0283361000037985,-40.0
8,hdl,m,23,r,2,(-172.20000000000002, 2.1088417881317425e-14),25,-3,11,yes,x,5,x,0.544245699988096,1,36,test2,2,0.5443751999991946,-48.0
8,hdl,m,23,r,2,(-121.76378772032352, -121.76378772032348),26,3,1,yes,x,5,m,1.1288716999988537,0,37,test2,2,1.1291607000021031,-42.0
8,hdl,m,23,r,2,(121.76378772032346, -121.76378772032352),28,7,3,no,m,6,m,1.0886563999956707,1,38,test2,2,1.0889789999928325,-42.0
8,hdl,m,23,r,2,(-172.20000000000002, 2.1088417881317425e-14),25,25,4,no,m,6,m,1.0081112000043504,1,39,test2,2,1.0082133999967482,-42.0
8,hdl,m,23,r,2,(121.76378772032349, 121.76378772032349),22,25,4,yes,x,5,x,0.43253799999365583,1,40,test2,2,0.4327469999989262,-20.0
8,hdl,m,23,r,2,(-3.163262682197613e-14, -172.20000000000002),27,25,4,yes,x,5,x,0.4632784999994328,1,41,test2,2,0.46337640000274405,-20.0
8,hdl,m,23,r,2,(1.0544208940658713e-14, 172.20000000000002),23,-3,11,yes,x,5,x,0.4595112999959383,1,42,test2,2,0.46017449999635573,-48.0
8,hdl,m,23,r,2,(-172.20000000000002, 2.1088417881317425e-14),25,3,1,yes,x,5,x,0.5108729999919888,1,43,test2,2,0.5111327000049641,-42.0
8,hdl,m,23,r,2,(-121.76378772032352, -121.76378772032348),26,-25,14,no,m,6,m,1.2439352000073995,1,44,test2,2,1.2441598000004888,-42.0
8,hdl,m,23,r,2,(121.76378772032349, 121.76378772032349),22,-7,13,yes,x,5,x,0.48686849999648985,1,45,test2,2,0.4869982000091113,-52.0
8,hdl,m,23,r,2,(-172.20000000000002, 2.1088417881317425e-14),25,-3,11,no,m,6,m,1.0274433000013232,1,46,test2,2,1.0275461000128416,-52.0
8,hdl,m,23,r,2,(1.0544208940658713e-14, 172.20000000000002),23,-25,14,yes,x,5,x,0.43368309999641497,1,47,test2,2,0.4338181000057375,-70.0
8,hdl,m,23,r,2,(-121.76378772032348, 121.76378772032349),24,3,1,yes,x,5,x,0.8931869999942137,1,48,test2,2,0.8934220999944955,-42.0
8,hdl,m,23,r,2,(1.0544208940658713e-14, 172.20000000000002),23,25,4,yes,x,5,x,0.4956469000026118,1,49,test2,2,0.49576109999907203,-20.0
8,hdl,m,23,r,2,(-3.163262682197613e-14, -172.20000000000002),27,-7,13,yes,x,5,x,0.5705678000085754,1,50,test2,2,0.5706642000004649,-52.0
8,hdl,m,23,r,2,(1.0544208940658713e-14, 172.20000000000002),23,-25,14,no,m,6,m,0.9270296000031522,1,51,test2,2,0.9273212999978568,-52.0
8,hdl,m,23,r,2,(-121.76378772032352, -121.76378772032348),26,5,2,no,m,6,m,1.093844999995781,1,52,test2,2,1.0939461999951163,-52.0
8,hdl,m,23,r,2,(172.20000000000002, 0.0),21,-7,13,yes,x,5,x,0.5322184999968158,1,53,test2,2,0.5328837999986717,-52.0
8,hdl,m,23,r,2,(-121.76378772032352, -121.76378772032348),26,-3,11,yes,x,5,x,0.9941937999974471,1,54,test2,2,0.9942899000016041,-48.0
8,hdl,m,23,r,2,(-3.163262682197613e-14, -172.20000000000002),27,-5,12,yes,x,5,x,0.5821485000051325,1,55,test2,2,0.5822636999946553,-50.0
8,hdl,m,23,r,2,(172.20000000000002, 0.0),21,-25,14,yes,x,5,x,0.4544339999993099,1,56,test2,2,0.45464509999146685,-70.0
8,hdl,m,23,r,2,(121.76378772032349, 121.76378772032349),22,-7,13,no,m,6,m,1.1419802000018535,1,57,test2,2,1.1422260999970604,-70.0
8,hdl,m,23,r,2,(1.0544208940658713e-14, 172.20000000000002),23,25,4,no,m,6,m,1.228938600004767,1,58,test2,2,1.2291672999999719,-70.0
8,hdl,m,23,r,2,(121.76378772032346, -121.76378772032352),28,-3,11,yes,x,5,x,1.0403304000064963,1,59,test2,2,1.040649000002304,-48.0
8,hdl,m,23,r,2,(-121.76378772032348, 121.76378772032349),24,3,1,no,m,6,m,0.8292332999990322,1,60,test2,2,0.8294418000004953,-48.0
8,hdl,m,23,r,2,(121.76378772032349, 121.76378772032349),22,-25,14,yes,x,5,x,0.6205478000047151,1,61,test2,2,0.6209193999966374,-70.0
8,hdl,m,23,r,2,(-121.76378772032352, -121.76378772032348),26,-5,12,yes,x,5,x,0.5068089999986114,1,62,test2,2,0.506909200004884,-50.0
8,hdl,m,23,r,2,(-121.76378772032352, -121.76378772032348),26,3,1,no,m,6,m,0.8295865000109188,1,63,test2,2,0.8301559999963501,-50.0
8,hdl,m,23,r,2,(121.76378772032349, 121.76378772032349),22,5,2,no,m,6,m,0.9583201000059489,1,64,test2,2,0.9584256000089226,-50.0
8,hdl,m,23,r,2,(1.0544208940658713e-14, 172.20000000000002),23,3,1,yes,x,5,x,0.86062540000421,1,65,test2,2,0.8609957000007853,-42.0
8,hdl,m,23,r,2,(121.76378772032346, -121.76378772032352),28,7,3,yes,x,5,x,0.5523323999950662,1,66,test2,2,0.5524783000000753,-38.0
8,hdl,m,23,r,2,(-121.76378772032348, 121.76378772032349),24,-5,12,yes,x,5,x,0.4884858000004897,1,67,test2,2,0.4889586000062991,-50.0
8,hdl,m,23,r,2,(-3.163262682197613e-14, -172.20000000000002),27,3,1,yes,x,5,x,0.7697366000065813,1,68,test2,2,0.7698413000034634,-42.0
8,hdl,m,23,r,2,(1.0544208940658713e-14, 172.20000000000002),23,-5,12,no,m,6,m,0.91789460000291,1,69,test2,2,0.9179939000023296,-42.0
8,hdl,m,23,r,2,(172.20000000000002, 0.0),21,7,3,no,m,6,m,0.9675399999978254,1,70,test2,2,0.9677555999951437,-42.0
8,hdl,m,23,r,2,(-121.76378772032348, 121.76378772032349),24,-5,12,yes,x,5,x,0.5143759999918984,1,71,test2,2,0.5145685000024969,-50.0
8,hdl,m,23,r,2,(172.20000000000002, 0.0),21,5,2,no,m,6,m,1.098233500000788,1,72,test2,2,1.0983363999985158,-50.0
8,hdl,m,23,r,2,(-3.163262682197613e-14, -172.20000000000002),27,25,4,no,m,6,m,0.8480265999969561,1,73,test2,2,0.8482402999943588,-50.0
8,hdl,m,23,r,2,(172.20000000000002, 0.0),21,-3,11,yes,x,5,x,1.1024211999902036,1,74,test2,2,1.1025214999972377,-48.0
8,hdl,m,23,r,2,(121.76378772032346, -121.76378772032352),28,-5,12,yes,x,5,x,0.5929293000081088,1,75,test2,2,0.5930289000098128,-50.0
8,hdl,m,23,r,2,(172.20000000000002, 0.0),21,5,2,yes,x,5,x,0.6507382999989204,1,76,test2,2,0.6508382000029087,-40.0
8,hdl,m,23,r,2,(-3.163262682197613e-14, -172.20000000000002),27,-25,14,yes,x,5,x,0.5100247000082163,1,77,test2,2,0.5104449000064051,-70.0
8,hdl,m,23,r,2,(-121.76378772032352, -121.76378772032348),26,25,4,yes,x,5,x,0.5018507000058889,1,78,test2,2,0.5020079000096302,-20.0
8,hdl,m,23,r,2,(1.0544208940658713e-14, 172.20000000000002),23,-7,13,yes,x,5,x,0.42645480000646785,1,79,test2,2,0.42657199999666773,-52.0
8,hdl,m,23,r,2,(121.76378772032349, 121.76378772032349),22,-7,13,yes,x,5,x,0.5275561000016751,1,80,test2,2,0.5276754000078654,-52.0
8,hdl,m,23,r,2,(121.76378772032346, -121.76378772032352),28,-25,14,no,m,6,m,0.9162576999951852,1,81,test2,2,0.9164867999934359,-52.0
8,hdl,m,23,r,2,(121.76378772032346, -121.76378772032352),28,-25,14,yes,x,5,x,0.43367930001113564,1,82,test2,2,0.433927300007781,-70.0
8,hdl,m,23,r,2,(172.20000000000002, 0.0),21,25,4,no,m,6,m,0.9021967000007862,1,83,test2,2,0.9024430999998003,-70.0
8,hdl,m,23,r,2,(-172.20000000000002, 2.1088417881317425e-14),25,-7,13,yes,x,5,x,0.47816400000010617,1,84,test2,2,0.4783811999950558,-52.0
8,hdl,m,23,r,2,(1.0544208940658713e-14, 172.20000000000002),23,-7,13,no,m,6,m,0.9104446999990614,1,85,test2,2,0.9106549999996787,-52.0
8,hdl,m,23,r,2,(121.76378772032349, 121.76378772032349),22,-3,11,no,m,6,m,0.8383555000036722,1,86,test2,2,0.8385845000011614,-52.0
8,hdl,m,23,r,2,(121.76378772032349, 121.76378772032349),22,7,3,yes,x,5,x,0.4177505000116071,1,87,test2,2,0.41805350000504404,-38.0
8,hdl,m,23,r,2,(-121.76378772032348, 121.76378772032349),24,-7,13,yes,x,5,x,0.47663879999890924,1,88,test2,2,0.47708050000073854,-52.0
8,hdl,m,23,r,2,(-3.163262682197613e-14, -172.20000000000002),27,-7,13,no,m,6,m,0.8856327999965288,1,89,test2,2,0.8859194999968167,-52.0
8,hdl,m,23,r,2,(121.76378772032346, -121.76378772032352),28,25,4,yes,x,5,x,0.45329710000078194,1,90,test2,2,0.45350730000063777,-20.0
8,hdl,m,23,r,2,(172.20000000000002, 0.0),21,-5,12,yes,x,5,x,0.6276773999998113,1,91,test2,2,0.6280563000036636,-50.0
8,hdl,m,23,r,2,(-121.76378772032352, -121.76378772032348),26,5,2,yes,x,5,x,0.5947435999987647,1,92,test2,2,0.5950579000054859,-40.0
8,hdl,m,23,r,2,(-121.76378772032352, -121.76378772032348),26,7,3,yes,x,5,x,0.43914970000332687,1,93,test2,2,0.43946609999693464,-38.0
8,hdl,m,23,r,2,(172.20000000000002, 0.0),21,-3,11,yes,x,5,x,0.6943156000052113,1,94,test2,2,0.6944513000053121,-48.0
8,hdl,m,23,r,2,(-172.20000000000002, 2.1088417881317425e-14),25,-25,14,yes,x,5,x,0.4520234999945387,1,95,test2,2,0.45223530000657775,-70.0
8,hdl,m,23,r,2,(121.76378772032349, 121.76378772032349),22,3,1,yes,x,5,x,0.9512978999991901,1,96,test2,2,0.9515342999948189,-42.0
8,hdl,m,23,r,2,(-121.76378772032348, 121.76378772032349),24,-25,14,yes,x,5,x,0.4905834999954095,1,1,test1,3,0.49075929999526124,-70.0
8,hdl,m,23,r,2,(1.0544208940658713e-14, 172.20000000000002),23,-5,12,yes,x,5,x,0.5160075000021607,1,2,test1,3,0.5161075000069104,-50.0
8,hdl,m,23,r,2,(-121.76378772032348, 121.76378772032349),24,-3,11,yes,x,5,x,0.8049014999996871,1,3,test1,3,0.8051456999965012,-48.0
8,hdl,m,23,r,2,(-3.163262682197613e-14, -172.20000000000002),27,-7,13,yes,x,5,x,0.5652744999970309,1,4,test1,3,0.5654469000000972,-52.0
8,hdl,m,23,r,2,(172.20000000000002, 0.0),21,25,4,yes,x,5,x,0.44959830000880174,1,5,test1,3,0.44971660000737756,-20.0
8,hdl,m,23,r,2,(-172.20000000000002, 2.1088417881317425e-14),25,3,1,no,m,6,m,1.0907011999952374,1,6,test1,3,1.0907947999949101,-20.0
8,hdl,m,23,r,2,(121.76378772032349, 121.76378772032349),22,-5,12,yes,x,5,x,0.43018429999938235,1,7,test1,3,0.4304990000091493,-50.0
8,hdl,m,23,r,2,(-121.76378772032348, 121.76378772032349),24,-3,11,yes,x,5,x,0.5149492000055034,1,8,test1,3,0.5150697000062792,-48.0
8,hdl,m,23,r,2,(172.20000000000002, 0.0),21,-25,14,no,m,6,m,0.9541364000033354,1,9,test1,3,0.9543009000044549,-48.0
8,hdl,m,23,r,2,(-3.163262682197613e-14, -172.20000000000002),27,-25,14,yes,x,5,x,0.5407857999962289,1,10,test1,3,0.5408909999969183,-70.0
8,hdl,m,23,r,2,(-121.76378772032352, -121.76378772032348),26,-7,13,yes,x,5,x,0.40650100000493694,1,11,test1,3,0.40740919999370817,-52.0
8,hdl,m,23,r,2,(-121.76378772032348, 121.76378772032349),24,25,4,yes,x,5,x,0.46316959999967366,1,12,test1,3,0.4634903999976814,-20.0
8,hdl,m,23,r,2,(121.76378772032349, 121.76378772032349),22,7,3,no,m,6,m,0.7209517000010237,1,13,test1,3,0.7210486999974819,-20.0
8,hdl,m,23,r,2,(121.76378772032346, -121.76378772032352),28,-5,12,yes,x,5,x,0.8555593000055524,1,14,test1,3,0.8557702999969479,-50.0
8,hdl,m,23,r,2,(1.0544208940658713e-14, 172.20000000000002),23,5,2,yes,x,5,x,0.5501796000025934,1,15,test1,3,0.5505470000061905,-40.0
8,hdl,m,23,r,2,(121.76378772032349, 121.76378772032349),22,3,1,yes,x,5,x,0.8231082999991486,1,16,test1,3,0.8233962999947835,-42.0
8,hdl,m,23,r,2,(1.0544208940658713e-14, 172.20000000000002),23,-7,13,yes,x,5,x,0.36531200000899844,1,17,test1,3,0.36547889999928884,-52.0
8,hdl,m,23,r,2,(172.20000000000002, 0.0),21,-3,11,no,m,6,m,0.9247092000005068,1,18,test1,3,0.9248089999891818,-52.0
8,hdl,m,23,r,2,(-3.163262682197613e-14, -172.20000000000002),27,7,3,no,m,6,m,0.8787777000106871,1,19,test1,3,0.8789021000120556,-52.0
8,hdl,m,23,r,2,(-121.76378772032352, -121.76378772032348),26,-7,13,yes,x,5,x,0.5577043000084814,1,20,test1,3,0.558263300001272,-52.0
8,hdl,m,23,r,2,(-121.76378772032352, -121.76378772032348),26,-25,14,yes,x,5,x,0.3853015999920899,1,21,test1,3,0.3854235999897355,-70.0
8,hdl,m,23,r,2,(-3.163262682197613e-14, -172.20000000000002),27,3,1,no,m,6,m,0.8235599000036018,1,22,test1,3,0.8237234000116587,-70.0
8,hdl,m,23,r,2,(-3.163262682197613e-14, -172.20000000000002),27,-3,11,no,m,6,m,0.8674205999996047,1,23,test1,3,0.8679646999953547,-70.0
8,hdl,m,23,r,2,(-121.76378772032348, 121.76378772032349),24,-3,11,no,m,6,m,0.6779099999985192,1,24,test1,3,0.6780618999910075,-70.0
8,hdl,m,23,r,2,(1.0544208940658713e-14, 172.20000000000002),23,7,3,no,m,6,m,0.781802700003027,1,25,test1,3,0.7822908999951323,-70.0
8,hdl,m,23,r,2,(-3.163262682197613e-14, -172.20000000000002),27,5,2,yes,x,5,x,0.5336143000022275,1,26,test1,3,0.5337394999951357,-40.0
8,hdl,m,23,r,2,(-172.20000000000002, 2.1088417881317425e-14),25,-5,12,yes,x,5,x,0.5471592999965651,1,27,test1,3,0.547444900003029,-50.0
8,hdl,m,23,r,2,(121.76378772032346, -121.76378772032352),28,-5,12,no,m,6,m,0.8970784999983152,1,28,test1,3,0.8972997000091709,-50.0
8,hdl,m,23,r,2,(-3.163262682197613e-14, -172.20000000000002),27,-5,12,yes,x,5,x,0.5236424000031548,1,29,test1,3,0.5239982000057353,-50.0
8,hdl,m,23,r,2,(-172.20000000000002, 2.1088417881317425e-14),25,-5,12,yes,x,5,x,0.4930934000003617,1,30,test1,3,0.49319150000519585,-50.0
8,hdl,m,23,r,2,(172.20000000000002, 0.0),21,25,4,yes,x,5,x,0.4699312999873655,1,31,test1,3,0.47013139999762643,-20.0
8,hdl,m,23,r,2,(172.20000000000002, 0.0),21,-25,14,yes,x,5,x,0.44473680001101457,1,32,test1,3,0.4449721999990288,-70.0
8,hdl,m,23,r,2,(121.76378772032346, -121.76378772032352),28,5,2,yes,x,5,x,0.9571774000069126,1,33,test1,3,0.9575448000105098,-40.0
8,hdl,m,23,r,2,(-121.76378772032348, 121.76378772032349),24,5,2,yes,x,5,x,0.4573223000043072,1,34,test1,3,0.45755520000238903,-40.0
8,hdl,m,23,r,2,(172.20000000000002, 0.0),21,3,1,yes,x,5,m,1.2955450000008568,0,35,test1,3,1.2956475000100909,-42.0
8,hdl,m,23,r,2,(121.76378772032349, 121.76378772032349),22,-25,14,yes,x,5,x,0.38483110000379384,1,36,test1,3,0.38493270000617485,-70.0
8,hdl,m,23,r,2,(1.0544208940658713e-14, 172.20000000000002),23,5,2,no,m,6,m,0.7793623000034131,1,37,test1,3,0.7795031999994535,-70.0
8,hdl,m,23,r,2,(-121.76378772032348, 121.76378772032349),24,7,3,yes,x,5,x,0.5644316999969305,1,38,test1,3,0.5650300999986939,-38.0
8,hdl,m,23,r,2,(172.20000000000002, 0.0),21,5,2,yes,x,5,x,0.6246503000002122,1,39,test1,3,0.6249687000090489,-40.0
8,hdl,m,23,r,2,(121.76378772032346, -121.76378772032352),28,-25,14,yes,x,5,x,0.44508079999650363,1,40,test1,3,0.4453132999915397,-70.0
8,hdl,m,23,r,2,(121.76378772032346, -121.76378772032352),28,7,3,yes,x,5,x,0.4424904999905266,1,41,test1,3,0.44310930000210647,-38.0
8,hdl,m,23,r,2,(-172.20000000000002, 2.1088417881317425e-14),25,-25,14,no,m,6,m,1.1774717000080273,1,42,test1,3,1.1775711999944178,-38.0
8,hdl,m,23,r,2,(121.76378772032349, 121.76378772032349),22,25,4,no,m,6,m,0.9002715999959037,1,43,test1,3,0.9003698999877088,-38.0
8,hdl,m,23,r,2,(-121.76378772032348, 121.76378772032349),24,5,2,yes,x,5,x,0.47034940001321957,1,44,test1,3,0.4705802000098629,-40.0
8,hdl,m,23,r,2,(-172.20000000000002, 2.1088417881317425e-14),25,5,2,yes,x,5,x,0.536950199995772,1,45,test1,3,0.5372627999895485,-40.0
8,hdl,m,23,r,2,(-121.76378772032352, -121.76378772032348),26,25,4,no,m,6,m,0.8721770999982255,1,46,test1,3,0.8722779999952763,-40.0
8,hdl,m,23,r,2,(1.0544208940658713e-14, 172.20000000000002),23,-3,11,yes,x,5,x,0.5895612999884179,1,47,test1,3,0.589680999997654,-48.0
8,hdl,m,23,r,2,(172.20000000000002, 0.0),21,3,1,no,m,6,m,0.9657681999960914,1,48,test1,3,0.966195399989374,-48.0
8,hdl,m,23,r,2,(121.76378772032349, 121.76378772032349),22,7,3,yes,x,5,x,0.4672731000027852,1,49,test1,3,0.4674366000108421,-38.0
8,hdl,m,23,r,2,(-172.20000000000002, 2.1088417881317425e-14),25,5,2,yes,x,5,x,0.47967380000045523,1,50,test1,3,0.48008750000735745,-40.0
8,hdl,m,23,r,2,(-121.76378772032348, 121.76378772032349),24,5,2,no,m,6,m,0.9293995000043651,1,51,test1,3,0.9296894999861252,-40.0
8,hdl,m,23,r,2,(-3.163262682197613e-14, -172.20000000000002),27,7,3,yes,x,5,x,0.5555525000090711,1,52,test1,3,0.5557858000101987,-38.0
8,hdl,m,23,r,2,(121.76378772032349, 121.76378772032349),22,-5,12,yes,x,5,x,0.5566500999993877,1,53,test1,3,0.5569282999931602,-50.0
8,hdl,m,23,r,2,(121.76378772032349, 121.76378772032349),22,5,2,yes,x,5,x,0.4265810000069905,1,54,test1,3,0.42680149999796413,-40.0
8,hdl,m,23,r,2,(-121.76378772032348, 121.76378772032349),24,7,3,yes,x,5,x,0.48495259998890106,1,55,test1,3,0.4851605000003474,-38.0
8,hdl,m,23,r,2,(1.0544208940658713e-14, 172.20000000000002),23,3,1,yes,x,5,x,0.7222775999980513,1,56,test1,3,0.7226258000009693,-42.0
8,hdl,m,23,r,2,(121.76378772032346, -121.76378772032352),28,25,4,yes,x,5,x,0.46454200000152923,1,57,test1,3,0.4646396000025561,-20.0
8,hdl,m,23,r,2,(-172.20000000000002, 2.1088417881317425e-14),25,-7,13,no,m,6,m,0.8679649999976391,1,58,test1,3,0.8681917000067187,-20.0
8,hdl,m,23,r,2,(-121.76378772032352, -121.76378772032348),26,-25,14,yes,x,5,x,0.4195298999984516,1,59,test1,3,0.4198247000022093,-70.0
8,hdl,m,23,r,2,(172.20000000000002, 0.0),21,7,3,yes,x,5,x,0.5235753000015393,1,60,test1,3,0.5238768999988679,-38.0
8,hdl,m,23,r,2,(-3.163262682197613e-14, -172.20000000000002),27,-5,12,no,m,6,m,0.7160724999994272,1,61,test1,3,0.7162964000017382,-38.0
8,hdl,m,23,r,2,(121.76378772032346, -121.76378772032352),28,25,4,no,m,6,m,0.7595142999925883,1,62,test1,3,0.7604437000118196,-38.0
8,hdl,m,23,r,2,(121.76378772032346, -121.76378772032352),28,3,1,yes,x,5,x,1.0406145000015385,1,63,test1,3,1.0407495999970706,-42.0
8,hdl,m,23,r,2,(121.76378772032349, 121.76378772032349),22,-5,12,no,m,6,m,0.8293862999998964,1,64,test1,3,0.8294874999992317,-42.0
8,hdl,m,23,r,2,(-121.76378772032352, -121.76378772032348),26,7,3,no,m,6,m,0.9511223000008613,1,65,test1,3,0.9512180000019725,-42.0
8,hdl,m,23,r,2,(-121.76378772032348, 121.76378772032349),24,25,4,no,m,6,m,0.7880965000076685,1,66,test1,3,0.7881999999954132,-42.0
8,hdl,m,23,r,2,(-121.76378772032348, 121.76378772032349),24,-5,12,no,m,6,m,0.8331715000094846,1,67,test1,3,0.8332914000056917,-42.0
8,hdl,m,23,r,2,(1.0544208940658713e-14, 172.20000000000002),23,-3,11,no,m,6,m,0.8577031999884639,1,68,test1,3,0.8579372999956831,-42.0
8,hdl,m,23,r,2,(-121.76378772032352, -121.76378772032348),26,-5,12,no,m,6,m,0.8206593000068096,1,69,test1,3,0.8208758999971906,-42.0
8,hdl,m,23,r,2,(-121.76378772032348, 121.76378772032349),24,-25,14,yes,x,5,x,0.4596791999938432,1,70,test1,3,0.4599153000017395,-70.0
8,hdl,m,23,r,2,(-172.20000000000002, 2.1088417881317425e-14),25,25,4,yes,x,5,x,0.5022950999991735,1,71,test1,3,0.5024076999980025,-20.0
8,hdl,m,23,r,2,(172.20000000000002, 0.0),21,3,1,yes,x,5,x,1.3020857000083197,1,72,test1,3,1.3022151999903144,-42.0
8,hdl,m,23,r,2,(121.76378772032346, -121.76378772032352),28,-7,13,yes,x,5,x,0.6784162000112701,1,73,test1,3,0.6785475999931805,-52.0
8,hdl,m,23,r,2,(-121.76378772032352, -121.76378772032348),26,-3,11,yes,x,5,x,1.038515300009749,1,74,test1,3,1.038823599999887,-48.0
8,hdl,m,23,r,2,(172.20000000000002, 0.0),21,-5,12,no,m,6,m,0.9226345999923069,1,75,test1,3,0.922805000009248,-48.0
8,hdl,m,23,r,2,(1.0544208940658713e-14, 172.20000000000002),23,-5,12,yes,x,5,x,0.5302168000052916,1,76,test1,3,0.5309022000001278,-50.0
8,hdl,m,23,r,2,(172.20000000000002, 0.0),21,7,3,yes,x,5,x,0.5922168000106467,1,77,test1,3,0.5924429999868153,-38.0
8,hdl,m,23,r,2,(-3.163262682197613e-14, -172.20000000000002),27,7,3,yes,x,5,x,0.9871841000131099,1,78,test1,3,0.9872842000040691,-38.0
8,hdl,m,23,r,2,(-121.76378772032352, -121.76378772032348),26,-3,11,no,m,6,m,1.1281110000127228,1,79,test1,3,1.128293500005384,-38.0
8,hdl,m,23,r,2,(121.76378772032346, -121.76378772032352),28,5,2,yes,x,5,x,0.7123011999938171,1,80,test1,3,0.7124222999991616,-40.0
8,hdl,m,23,r,2,(-3.163262682197613e-14, -172.20000000000002),27,5,2,yes,x,5,x,0.44592009999905713,1,81,test1,3,0.4460447000019485,-40.0
8,hdl,m,23,r,2,(1.0544208940658713e-14, 172.20000000000002),23,25,4,yes,x,5,x,0.49835650000022724,1,82,test1,3,0.4986116000072798,-20.0
8,hdl,m,23,r,2,(172.20000000000002, 0.0),21,-5,12,yes,x,5,x,0.675042000002577,1,83,test1,3,0.6751449000003049,-50.0
8,hdl,m,23,r,2,(-121.76378772032352, -121.76378772032348),26,-5,12,yes,x,5,x,0.5361452999932226,1,84,test1,3,0.5363616999966325,-50.0
8,hdl,m,23,r,2,(-121.76378772032348, 121.76378772032349),24,25,4,yes,x,5,x,0.5655239999905461,1,85,test1,3,0.5656206000130624,-20.0
8,hdl,m,23,r,2,(1.0544208940658713e-14, 172.20000000000002),23,7,3,yes,x,5,x,0.4762602999981027,1,86,test1,3,0.4763803999958327,-38.0
8,hdl,m,23,r,2,(121.76378772032349, 121.76378772032349),22,-3,11,yes,x,5,x,0.8596753000019817,1,87,test1,3,0.8597755000082543,-48.0
8,hdl,m,23,r,2,(-3.163262682197613e-14, -172.20000000000002),27,-3,11,yes,x,5,x,0.9464162999938708,1,88,test1,3,0.946765000000596,-48.0
8,hdl,m,23,r,2,(1.0544208940658713e-14, 172.20000000000002),23,3,1,no,m,6,m,1.0510110999894096,1,89,test1,3,1.0512968999973964,-48.0
8,hdl,m,23,r,2,(121.76378772032346, -121.76378772032352),28,-3,11,no,m,6,m,0.8353314000123646,1,90,test1,3,0.8355544000078226,-48.0
8,hdl,m,23,r,2,(-121.76378772032352, -121.76378772032348),26,5,2,yes,x,5,x,0.5974583999923198,1,91,test1,3,0.5980748000001768,-40.0
8,hdl,m,23,r,2,(-121.76378772032348, 121.76378772032349),24,7,3,no,m,6,m,0.7038873999990756,1,92,test1,3,0.7041659999958938,-40.0
8,hdl,m,23,r,2,(-121.76378772032352, -121.76378772032348),26,3,1,yes,x,5,x,0.8133865999989212,1,93,test1,3,0.813786099999561,-42.0
8,hdl,m,23,r,2,(-172.20000000000002, 2.1088417881317425e-14),25,5,2,no,m,6,m,0.6770160000014585,1,94,test1,3,0.677301300005638,-42.0
8,hdl,m,23,r,2,(121.76378772032346, -121.76378772032352),28,3,1,yes,x,5,x,1.152082699991297,1,95,test1,3,1.1522856000083266,-42.0
8,hdl,m,23,r,2,(172.20000000000002, 0.0),21,-7,13,yes,x,5,x,0.5054889000020921,1,96,test1,3,0.506077500001993,-52.0
8,hdl,m,23,r,2,(-121.76378772032348, 121.76378772032349),24,-25,14,no,m,6,m,1.1015342000027886,1,1,test2,3,1.1019558999978472,-52.0
8,hdl,m,23,r,2,(1.0544208940658713e-14, 172.20000000000002),23,7,3,yes,x,5,x,0.3382222000072943,1,2,test2,3,0.33844939999107737,-38.0
8,hdl,m,23,r,2,(-172.20000000000002, 2.1088417881317425e-14),25,-25,14,yes,x,5,x,0.38341540000692476,1,3,test2,3,0.38355119999323506,-70.0
8,hdl,m,23,r,2,(-3.163262682197613e-14, -172.20000000000002),27,25,4,yes,x,5,x,0.45036180000170134,1,4,test2,3,0.4504587999981595,-20.0
8,hdl,m,23,r,2,(121.76378772032346, -121.76378772032352),28,-3,11,yes,x,5,m,0.790636399993673,0,5,test2,3,0.7911127999977907,-48.0
8,hdl,m,23,r,2,(-3.163262682197613e-14, -172.20000000000002),27,-25,14,no,m,6,m,0.9090810999914538,1,6,test2,3,0.909202800001367,-48.0
8,hdl,m,23,r,2,(1.0544208940658713e-14, 172.20000000000002),23,-25,14,yes,x,5,x,0.3649067000078503,1,7,test2,3,0.36506379999627825,-70.0
8,hdl,m,23,r,2,(-172.20000000000002, 2.1088417881317425e-14),25,-5,12,no,m,6,m,0.722755299997516,1,8,test2,3,0.722897900006501,-70.0
8,hdl,m,23,r,2,(121.76378772032346, -121.76378772032352),28,5,2,no,m,6,m,0.7607675999897765,1,9,test2,3,0.7610647999972571,-70.0
8,hdl,m,23,r,2,(-121.76378772032348, 121.76378772032349),24,-7,13,yes,x,5,x,0.45745159999933094,1,10,test2,3,0.45756349999282975,-52.0
8,hdl,m,23,r,2,(-172.20000000000002, 2.1088417881317425e-14),25,25,4,yes,x,5,x,0.39223940001102164,1,11,test2,3,0.39234260001103394,-20.0
8,hdl,m,23,r,2,(121.76378772032349, 121.76378772032349),22,-3,11,yes,x,5,x,0.6547878999990644,1,12,test2,3,0.6548859999893466,-48.0
8,hdl,m,23,r,2,(-121.76378772032352, -121.76378772032348),26,-7,13,no,m,6,m,0.6972862999973586,1,13,test2,3,0.6974654999939958,-48.0
8,hdl,m,23,r,2,(-172.20000000000002, 2.1088417881317425e-14),25,7,3,no,m,6,m,0.6924621000071056,1,14,test2,3,0.6927494999981718,-48.0
8,hdl,m,23,r,2,(-121.76378772032348, 121.76378772032349),24,-7,13,no,m,6,m,1.1836008000100264,1,15,test2,3,1.1838178999896627,-48.0
8,hdl,m,23,r,2,(121.76378772032349, 121.76378772032349),22,25,4,yes,x,5,x,0.4462299000006169,1,16,test2,3,0.4464358999975957,-20.0
8,hdl,m,23,r,2,(-172.20000000000002, 2.1088417881317425e-14),25,-3,11,yes,x,5,x,0.5939389000122901,1,17,test2,3,0.5941018000012264,-48.0
8,hdl,m,23,r,2,(-172.20000000000002, 2.1088417881317425e-14),25,-7,13,yes,x,5,x,0.44992889999412,1,18,test2,3,0.4501433999976143,-52.0
8,hdl,m,23,r,2,(-3.163262682197613e-14, -172.20000000000002),27,3,1,yes,x,5,x,0.6426506999996491,1,19,test2,3,0.642753599997377,-42.0
8,hdl,m,23,r,2,(-121.76378772032352, -121.76378772032348),26,7,3,yes,x,5,x,0.49719110000296496,1,20,test2,3,0.4972930000076303,-38.0
8,hdl,m,23,r,2,(121.76378772032349, 121.76378772032349),22,-25,14,no,m,6,m,0.8849336999992374,1,21,test2,3,0.8851639999920735,-38.0
8,hdl,m,23,r,2,(121.76378772032349, 121.76378772032349),22,5,2,yes,x,5,x,0.9353222000063397,1,22,test2,3,0.9354235999926459,-40.0
8,hdl,m,23,r,2,(121.76378772032346, -121.76378772032352),28,-7,13,yes,x,5,x,0.45763599999190774,1,23,test2,3,0.45820749999256805,-52.0
8,hdl,m,23,r,2,(121.76378772032349, 121.76378772032349),22,3,1,no,m,6,x,0.8813071999902604,0,24,test2,3,0.8816136999957962,-52.0
8,hdl,m,23,r,2,(-3.163262682197613e-14, -172.20000000000002),27,-3,11,yes,x,5,x,1.0985929000016768,1,25,test2,3,1.0986934000102337,-48.0
8,hdl,m,23,r,2,(121.76378772032346, -121.76378772032352),28,-7,13,no,m,6,m,0.9724392999924021,1,26,test2,3,0.9725944999954663,-48.0
8,hdl,m,23,r,2,(-172.20000000000002, 2.1088417881317425e-14),25,3,1,yes,x,5,x,0.8782147000019904,1,27,test2,3,0.8784241999965161,-42.0
8,hdl,m,23,r,2,(-172.20000000000002, 2.1088417881317425e-14),25,7,3,yes,x,5,x,0.4837990000087302,1,28,test2,3,0.48407840001164004,-38.0
8,hdl,m,23,r,2,(-121.76378772032352, -121.76378772032348),26,25,4,yes,x,5,x,0.459919799992349,1,29,test2,3,0.4601472000067588,-20.0
8,hdl,m,23,r,2,(-121.76378772032348, 121.76378772032349),24,3,1,yes,x,5,x,0.6382439000008162,1,30,test2,3,0.6383555000065826,-42.0
8,hdl,m,23,r,2,(-172.20000000000002, 2.1088417881317425e-14),25,7,3,yes,x,5,x,0.4071825999999419,1,31,test2,3,0.4072885000059614,-38.0
8,hdl,m,23,r,2,(1.0544208940658713e-14, 172.20000000000002),23,5,2,yes,x,5,x,0.48032489999604877,1,32,test2,3,0.48045590000401717,-40.0
8,hdl,m,23,r,2,(121.76378772032346, -121.76378772032352),28,3,1,no,m,6,m,1.1512798000039766,1,33,test2,3,1.1517418999865185,-40.0
8,hdl,m,23,r,2,(172.20000000000002, 0.0),21,-7,13,no,m,6,m,1.0287129000062123,1,34,test2,3,1.0293002999969758,-40.0
8,hdl,m,23,r,2,(-3.163262682197613e-14, -172.20000000000002),27,5,2,no,m,6,m,1.0364089999930002,1,35,test2,3,1.0367153999977745,-40.0
8,hdl,m,23,r,2,(-172.20000000000002, 2.1088417881317425e-14),25,-3,11,yes,x,5,x,0.9065431999915745,1,36,test2,3,0.9067769999965094,-48.0
8,hdl,m,23,r,2,(-121.76378772032352, -121.76378772032348),26,3,1,yes,x,5,x,0.9517588000016985,1,37,test2,3,0.9519585000089137,-42.0
8,hdl,m,23,r,2,(121.76378772032346, -121.76378772032352),28,7,3,no,m,6,m,0.9774114000028931,1,38,test2,3,0.9776256999903126,-42.0
8,hdl,m,23,r,2,(-172.20000000000002, 2.1088417881317425e-14),25,25,4,no,m,6,m,0.9867590999929234,1,39,test2,3,0.9869774999970105,-42.0
8,hdl,m,23,r,2,(121.76378772032349, 121.76378772032349),22,25,4,yes,x,5,x,0.5683608000108507,1,40,test2,3,0.568585399989388,-20.0
8,hdl,m,23,r,2,(-3.163262682197613e-14, -172.20000000000002),27,25,4,yes,x,5,x,0.5600716000044486,1,41,test2,3,0.560306400002446,-20.0
8,hdl,m,23,r,2,(1.0544208940658713e-14, 172.20000000000002),23,-3,11,yes,x,5,x,0.8389905999938492,1,42,test2,3,0.8393245999905048,-48.0
8,hdl,m,23,r,2,(-172.20000000000002, 2.1088417881317425e-14),25,3,1,yes,x,5,x,0.6741753000096651,1,43,test2,3,0.6744407999940449,-42.0
8,hdl,m,23,r,2,(-121.76378772032352, -121.76378772032348),26,-25,14,no,m,6,m,1.2229960999975447,1,44,test2,3,1.2230940000008559,-42.0
8,hdl,m,23,r,2,(121.76378772032349, 121.76378772032349),22,-7,13,yes,x,5,x,0.48288830000092275,1,45,test2,3,0.4833357000024989,-52.0
8,hdl,m,23,r,2,(-172.20000000000002, 2.1088417881317425e-14),25,-3,11,no,m,6,m,1.0103472000046168,1,46,test2,3,1.0106520999979693,-52.0
8,hdl,m,23,r,2,(1.0544208940658713e-14, 172.20000000000002),23,-25,14,yes,x,5,x,0.3823995999991894,1,47,test2,3,0.38264859998889733,-70.0
8,hdl,m,23,r,2,(-121.76378772032348, 121.76378772032349),24,3,1,yes,x,5,x,0.6222077999991598,1,48,test2,3,0.6224269000085769,-42.0
8,hdl,m,23,r,2,(1.0544208940658713e-14, 172.20000000000002),23,25,4,yes,x,5,x,0.4689926999999443,1,49,test2,3,0.46921859998838045,-20.0
8,hdl,m,23,r,2,(-3.163262682197613e-14, -172.20000000000002),27,-7,13,yes,x,5,x,0.5471651999978349,1,50,test2,3,0.547405000004801,-52.0
8,hdl,m,23,r,2,(1.0544208940658713e-14, 172.20000000000002),23,-25,14,no,m,6,m,0.8708964000106789,1,51,test2,3,0.8710460000002058,-52.0
8,hdl,m,23,r,2,(-121.76378772032352, -121.76378772032348),26,5,2,no,m,6,m,0.9441182000009576,1,52,test2,3,0.9442583000054583,-52.0
8,hdl,m,23,r,2,(172.20000000000002, 0.0),21,-7,13,yes,x,5,x,0.603000900009647,1,53,test2,3,0.6030982000083895,-52.0
8,hdl,m,23,r,2,(-121.76378772032352, -121.76378772032348),26,-3,11,yes,x,5,x,0.9596057000017026,1,54,test2,3,0.9598627999948803,-48.0
8,hdl,m,23,r,2,(-3.163262682197613e-14, -172.20000000000002),27,-5,12,yes,x,5,x,0.6058426999952644,1,55,test2,3,0.6059547000040766,-50.0
8,hdl,m,23,r,2,(172.20000000000002, 0.0),21,-25,14,yes,x,5,x,0.5192021999973804,1,56,test2,3,0.519841200002702,-70.0
8,hdl,m,23,r,2,(121.76378772032349, 121.76378772032349),22,-7,13,no,m,6,m,0.8464548000047216,1,57,test2,3,0.8468351000046823,-70.0
8,hdl,m,23,r,2,(1.0544208940658713e-14, 172.20000000000002),23,25,4,no,m,6,m,0.985889200004749,1,58,test2,3,0.9860561000095913,-70.0
8,hdl,m,23,r,2,(121.76378772032346, -121.76378772032352),28,-3,11,yes,x,5,x,0.7796254999993835,1,59,test2,3,0.7798202999983914,-48.0
8,hdl,m,23,r,2,(-121.76378772032348, 121.76378772032349),24,3,1,no,m,6,m,0.7095043000008445,1,60,test2,3,0.7096003000042401,-48.0
8,hdl,m,23,r,2,(121.76378772032349, 121.76378772032349),22,-25,14,yes,x,5,x,0.4956133000086993,1,61,test2,3,0.4957107999944128,-70.0
8,hdl,m,23,r,2,(-121.76378772032352, -121.76378772032348),26,-5,12,yes,x,5,x,0.561384899992845,1,62,test2,3,0.5621457000088412,-50.0
8,hdl,m,23,r,2,(-121.76378772032352, -121.76378772032348),26,3,1,no,m,6,m,0.8165597000042908,1,63,test2,3,0.8167706999956863,-50.0
8,hdl,m,23,r,2,(121.76378772032349, 121.76378772032349),22,5,2,no,m,6,m,0.934940999999526,1,64,test2,3,0.9352575000084471,-50.0
8,hdl,m,23,r,2,(1.0544208940658713e-14, 172.20000000000002),23,3,1,yes,x,5,m,0.8687213000084739,0,65,test2,3,0.8690212000074098,-42.0
8,hdl,m,23,r,2,(121.76378772032346, -121.76378772032352),28,7,3,yes,x,5,x,0.613769699994009,1,66,test2,3,0.6142429000028642,-38.0
8,hdl,m,23,r,2,(-121.76378772032348, 121.76378772032349),24,-5,12,yes,x,5,x,0.6135341999906814,1,67,test2,3,0.6139480999991065,-50.0
8,hdl,m,23,r,2,(-3.163262682197613e-14, -172.20000000000002),27,3,1,yes,x,5,x,1.1048860999871977,1,68,test2,3,1.104987099999562,-42.0
8,hdl,m,23,r,2,(1.0544208940658713e-14, 172.20000000000002),23,-5,12,no,m,6,m,1.1186203999968711,1,69,test2,3,1.1187468999996781,-42.0
8,hdl,m,23,r,2,(172.20000000000002, 0.0),21,7,3,no,m,6,m,0.9740276999946218,1,70,test2,3,0.9744472000020323,-42.0
8,hdl,m,23,r,2,(-121.76378772032348, 121.76378772032349),24,-5,12,yes,x,5,x,0.5002253999991808,1,71,test2,3,0.501029799997923,-50.0
8,hdl,m,23,r,2,(172.20000000000002, 0.0),21,5,2,no,m,6,m,0.7707669000083115,1,72,test2,3,0.7710723999916809,-50.0
8,hdl,m,23,r,2,(-3.163262682197613e-14, -172.20000000000002),27,25,4,no,m,6,m,0.9713421999913407,1,73,test2,3,0.9715741999971215,-50.0
8,hdl,m,23,r,2,(172.20000000000002, 0.0),21,-3,11,yes,x,5,x,0.8233536000043387,1,74,test2,3,0.8237664000043878,-48.0
8,hdl,m,23,r,2,(121.76378772032346, -121.76378772032352),28,-5,12,yes,x,5,x,0.7467711999925086,1,75,test2,3,0.7468977999960771,-50.0
8,hdl,m,23,r,2,(172.20000000000002, 0.0),21,5,2,yes,x,5,x,0.624320600007195,1,76,test2,3,0.6244329000037396,-40.0
8,hdl,m,23,r,2,(-3.163262682197613e-14, -172.20000000000002),27,-25,14,yes,x,5,x,0.46147199999541044,1,77,test2,3,0.4615966999990633,-70.0
8,hdl,m,23,r,2,(-121.76378772032352, -121.76378772032348),26,25,4,yes,x,5,x,0.4905935999995563,1,78,test2,3,0.49073459999635816,-20.0
8,hdl,m,23,r,2,(1.0544208940658713e-14, 172.20000000000002),23,-7,13,yes,x,5,x,0.5232510999921942,1,79,test2,3,0.5236108000099193,-52.0
8,hdl,m,23,r,2,(121.76378772032349, 121.76378772032349),22,-7,13,yes,x,5,x,0.5699137000046903,1,80,test2,3,0.5700154999940423,-52.0
8,hdl,m,23,r,2,(121.76378772032346, -121.76378772032352),28,-25,14,no,m,6,m,1.0303932999959216,1,81,test2,3,1.0306224999949336,-52.0
8,hdl,m,23,r,2,(121.76378772032346, -121.76378772032352),28,-25,14,yes,x,5,x,0.47919630000251345,1,82,test2,3,0.4792989999987185,-70.0
8,hdl,m,23,r,2,(172.20000000000002, 0.0),21,25,4,no,m,6,m,0.7358270999975502,1,83,test2,3,0.7359479000006104,-70.0
8,hdl,m,23,r,2,(-172.20000000000002, 2.1088417881317425e-14),25,-7,13,yes,x,5,x,0.4882606000028318,1,84,test2,3,0.48844840000674594,-52.0
8,hdl,m,23,r,2,(1.0544208940658713e-14, 172.20000000000002),23,-7,13,no,m,6,m,1.0594758999941405,1,85,test2,3,1.0601001000031829,-52.0
8,hdl,m,23,r,2,(121.76378772032349, 121.76378772032349),22,-3,11,no,m,6,m,0.9785857999959262,1,86,test2,3,0.978743100000429,-52.0
8,hdl,m,23,r,2,(121.76378772032349, 121.76378772032349),22,7,3,yes,x,5,x,0.4593038000020897,1,87,test2,3,0.45950969999830704,-38.0
8,hdl,m,23,r,2,(-121.76378772032348, 121.76378772032349),24,-7,13,yes,x,5,x,0.5157151000021258,1,88,test2,3,0.5160831999965012,-52.0
8,hdl,m,23,r,2,(-3.163262682197613e-14, -172.20000000000002),27,-7,13,no,m,6,m,0.7544131000031484,1,89,test2,3,0.7545132000086596,-52.0
8,hdl,m,23,r,2,(121.76378772032346, -121.76378772032352),28,25,4,yes,x,5,x,0.39029710000613704,1,90,test2,3,0.39048600000387523,-20.0
8,hdl,m,23,r,2,(172.20000000000002, 0.0),21,-5,12,yes,x,5,x,0.6422257000085665,1,91,test2,3,0.6424406000005547,-50.0
8,hdl,m,23,r,2,(-121.76378772032352, -121.76378772032348),26,5,2,yes,x,5,x,0.5271495999913896,1,92,test2,3,0.5274432000005618,-40.0
8,hdl,m,23,r,2,(-121.76378772032352, -121.76378772032348),26,7,3,yes,x,5,x,0.477899499994237,1,93,test2,3,0.47822620000806637,-38.0
8,hdl,m,23,r,2,(172.20000000000002, 0.0),21,-3,11,yes,x,5,x,1.1948532999958843,1,94,test2,3,1.1949578000057954,-48.0
8,hdl,m,23,r,2,(-172.20000000000002, 2.1088417881317425e-14),25,-25,14,yes,x,5,x,0.40428180000162683,1,95,test2,3,0.4045699999987846,-70.0
8,hdl,m,23,r,2,(121.76378772032349, 121.76378772032349),22,3,1,yes,x,5,m,0.7485861000022851,0,96,test2,3,0.7488128999975743,-42.0
8,hdl,m,23,r,2,(-121.76378772032348, 121.76378772032349),24,-25,14,yes,x,5,x,0.5311342000059085,1,1,test1,4,0.5313395999983186,-70.0
8,hdl,m,23,r,2,(1.0544208940658713e-14, 172.20000000000002),23,-5,12,yes,x,5,x,0.5779002000053879,1,2,test1,4,0.5781759000092279,-50.0
8,hdl,m,23,r,2,(-121.76378772032348, 121.76378772032349),24,-3,11,yes,x,5,x,0.7135738000069978,1,3,test1,4,0.7138551000098232,-48.0
8,hdl,m,23,r,2,(-3.163262682197613e-14, -172.20000000000002),27,-7,13,yes,x,5,x,0.4610635999997612,1,4,test1,4,0.4612706000043545,-52.0
8,hdl,m,23,r,2,(172.20000000000002, 0.0),21,25,4,yes,x,5,x,0.462104599995655,1,5,test1,4,0.4623242000088794,-20.0
8,hdl,m,23,r,2,(-172.20000000000002, 2.1088417881317425e-14),25,3,1,no,m,6,m,1.0752475000044797,1,6,test1,4,1.075634299995727,-20.0
8,hdl,m,23,r,2,(121.76378772032349, 121.76378772032349),22,-5,12,yes,x,5,x,0.546364599998924,1,7,test1,4,0.5464927000139141,-50.0
8,hdl,m,23,r,2,(-121.76378772032348, 121.76378772032349),24,-3,11,yes,x,5,x,1.1117943999997806,1,8,test1,4,1.1120110000047134,-48.0
8,hdl,m,23,r,2,(172.20000000000002, 0.0),21,-25,14,no,m,6,m,0.8018392999947537,1,9,test1,4,0.8021138000040082,-48.0
8,hdl,m,23,r,2,(-3.163262682197613e-14, -172.20000000000002),27,-25,14,yes,x,5,x,0.38573180000821594,1,10,test1,4,0.38596939999843016,-70.0
8,hdl,m,23,r,2,(-121.76378772032352, -121.76378772032348),26,-7,13,yes,x,5,x,0.5094547000044258,1,11,test1,4,0.5096170999895548,-52.0
8,hdl,m,23,r,2,(-121.76378772032348, 121.76378772032349),24,25,4,yes,x,5,x,0.3998014999961015,1,12,test1,4,0.40033499999844935,-20.0
8,hdl,m,23,r,2,(121.76378772032349, 121.76378772032349),22,7,3,no,m,6,m,1.0140960999997333,1,13,test1,4,1.0142758000001777,-20.0
8,hdl,m,23,r,2,(121.76378772032346, -121.76378772032352),28,-5,12,yes,x,5,x,0.4719860999903176,1,14,test1,4,0.4722877000021981,-50.0
8,hdl,m,23,r,2,(1.0544208940658713e-14, 172.20000000000002),23,5,2,yes,x,5,x,0.4459037999913562,1,15,test1,4,0.44621929999266285,-40.0
8,hdl,m,23,r,2,(121.76378772032349, 121.76378772032349),22,3,1,yes,x,5,x,0.6183453999983612,1,16,test1,4,0.6184408999979496,-42.0
8,hdl,m,23,r,2,(1.0544208940658713e-14, 172.20000000000002),23,-7,13,yes,x,5,x,0.42761410000093747,1,17,test1,4,0.42829619999974966,-52.0
8,hdl,m,23,r,2,(172.20000000000002, 0.0),21,-3,11,no,m,6,m,0.80341550000594,1,18,test1,4,0.8036191999999573,-52.0
8,hdl,m,23,r,2,(-3.163262682197613e-14, -172.20000000000002),27,7,3,no,m,6,m,0.9098398000060115,1,19,test1,4,0.9099735999916447,-52.0
8,hdl,m,23,r,2,(-121.76378772032352, -121.76378772032348),26,-7,13,yes,x,5,x,0.46241579999332316,1,20,test1,4,0.46253459999570623,-52.0
8,hdl,m,23,r,2,(-121.76378772032352, -121.76378772032348),26,-25,14,yes,x,5,x,0.43245730000489857,1,21,test1,4,0.43266720000247005,-70.0
8,hdl,m,23,r,2,(-3.163262682197613e-14, -172.20000000000002),27,3,1,no,m,6,m,0.6382949999970151,1,22,test1,4,0.6384224000066752,-70.0
8,hdl,m,23,r,2,(-3.163262682197613e-14, -172.20000000000002),27,-3,11,no,m,6,m,1.0561558000044897,1,23,test1,4,1.0562897000054363,-70.0
8,hdl,m,23,r,2,(-121.76378772032348, 121.76378772032349),24,-3,11,no,m,6,m,0.8717114000028232,1,24,test1,4,0.8718121999991126,-70.0
8,hdl,m,23,r,2,(1.0544208940658713e-14, 172.20000000000002),23,7,3,no,m,6,m,0.5940909000055399,1,25,test1,4,0.5942177999968408,-70.0
8,hdl,m,23,r,2,(-3.163262682197613e-14, -172.20000000000002),27,5,2,yes,x,5,x,0.5182107000000542,1,26,test1,4,0.5183109000063268,-40.0
8,hdl,m,23,r,2,(-172.20000000000002, 2.1088417881317425e-14),25,-5,12,yes,x,5,x,0.4636185999988811,1,27,test1,4,0.46374829999695066,-50.0
8,hdl,m,23,r,2,(121.76378772032346, -121.76378772032352),28,-5,12,no,m,6,m,0.8294765000027837,1,28,test1,4,0.8299351000023307,-50.0
8,hdl,m,23,r,2,(-3.163262682197613e-14, -172.20000000000002),27,-5,12,yes,x,5,x,0.5809996000025421,1,29,test1,4,0.5812104000069667,-50.0
8,hdl,m,23,r,2,(-172.20000000000002, 2.1088417881317425e-14),25,-5,12,yes,x,5,x,0.5800206999992952,1,30,test1,4,0.5801446999976179,-50.0
8,hdl,m,23,r,2,(172.20000000000002, 0.0),21,25,4,yes,x,5,x,0.46379460000025574,1,31,test1,4,0.46399139999994077,-20.0
8,hdl,m,23,r,2,(172.20000000000002, 0.0),21,-25,14,yes,x,5,x,0.4413572000048589,1,32,test1,4,0.4422218000108842,-70.0
8,hdl,m,23,r,2,(121.76378772032346, -121.76378772032352),28,5,2,yes,x,5,x,0.521421299999929,1,33,test1,4,0.5217542000027606,-40.0
8,hdl,m,23,r,2,(-121.76378772032348, 121.76378772032349),24,5,2,yes,x,5,x,0.4530598999990616,1,34,test1,4,0.4533890999882715,-40.0
8,hdl,m,23,r,2,(172.20000000000002, 0.0),21,3,1,yes,x,5,x,0.7990354000066873,1,35,test1,4,0.7996826000016881,-42.0
8,hdl,m,23,r,2,(121.76378772032349, 121.76378772032349),22,-25,14,yes,x,5,x,0.44699080000282265,1,36,test1,4,0.447092899994459,-70.0
8,hdl,m,23,r,2,(1.0544208940658713e-14, 172.20000000000002),23,5,2,no,m,6,m,1.1101478999917163,1,37,test1,4,1.1102878999954555,-70.0
8,hdl,m,23,r,2,(-121.76378772032348, 121.76378772032349),24,7,3,yes,x,5,x,0.5064931999950204,1,38,test1,4,0.5066177000117023,-38.0
8,hdl,m,23,r,2,(172.20000000000002, 0.0),21,5,2,yes,x,5,x,0.5692248999985168,1,39,test1,4,0.569653800004744,-40.0
8,hdl,m,23,r,2,(121.76378772032346, -121.76378772032352),28,-25,14,yes,x,5,x,0.4437218000093708,1,40,test1,4,0.443933400005335,-70.0
8,hdl,m,23,r,2,(121.76378772032346, -121.76378772032352),28,7,3,yes,x,5,x,0.6208608000015374,1,41,test1,4,0.6210489000077359,-38.0
8,hdl,m,23,r,2,(-172.20000000000002, 2.1088417881317425e-14),25,-25,14,no,m,6,m,0.8356148000020767,1,42,test1,4,0.8357469999900786,-38.0
8,hdl,m,23,r,2,(121.76378772032349, 121.76378772032349),22,25,4,no,m,6,m,0.9812246000074083,1,43,test1,4,0.9816404000011971,-38.0
8,hdl,m,23,r,2,(-121.76378772032348, 121.76378772032349),24,5,2,yes,x,5,x,0.4339114000031259,1,44,test1,4,0.4344222999934573,-40.0
8,hdl,m,23,r,2,(-172.20000000000002, 2.1088417881317425e-14),25,5,2,yes,x,5,x,0.4617348000028869,1,45,test1,4,0.461867699996219,-40.0
8,hdl,m,23,r,2,(-121.76378772032352, -121.76378772032348),26,25,4,no,m,6,m,0.7817083999980241,1,46,test1,4,0.782067799998913,-40.0
8,hdl,m,23,r,2,(1.0544208940658713e-14, 172.20000000000002),23,-3,11,yes,x,5,x,0.7818612999981269,1,47,test1,4,0.7821039999980712,-48.0
8,hdl,m,23,r,2,(172.20000000000002, 0.0),21,3,1,no,m,6,m,1.1305627999972785,1,48,test1,4,1.130884900005185,-48.0
8,hdl,m,23,r,2,(121.76378772032349, 121.76378772032349),22,7,3,yes,x,5,x,0.47865819999424275,1,49,test1,4,0.47889659999054857,-38.0
8,hdl,m,23,r,2,(-172.20000000000002, 2.1088417881317425e-14),25,5,2,yes,x,5,x,0.5430479999922682,1,50,test1,4,0.5433817000011913,-40.0
8,hdl,m,23,r,2,(-121.76378772032348, 121.76378772032349),24,5,2,no,m,6,m,1.0373271999997087,1,51,test1,4,1.0374312000058126,-40.0
8,hdl,m,23,r,2,(-3.163262682197613e-14, -172.20000000000002),27,7,3,yes,x,5,x,0.5417867000069236,1,52,test1,4,0.5418847000109963,-38.0
8,hdl,m,23,r,2,(121.76378772032349, 121.76378772032349),22,-5,12,yes,x,5,x,0.6449365999869769,1,53,test1,4,0.6451262999908067,-50.0
8,hdl,m,23,r,2,(121.76378772032349, 121.76378772032349),22,5,2,yes,x,5,x,0.4257711000100244,1,54,test1,4,0.42609660000016447,-40.0
8,hdl,m,23,r,2,(-121.76378772032348, 121.76378772032349),24,7,3,yes,x,5,x,0.4864822999952594,1,55,test1,4,0.48663490000762977,-38.0
8,hdl,m,23,r,2,(1.0544208940658713e-14, 172.20000000000002),23,3,1,yes,x,5,x,0.769634500000393,1,56,test1,4,0.7698614999972051,-42.0
8,hdl,m,23,r,2,(121.76378772032346, -121.76378772032352),28,25,4,yes,x,5,x,0.42133350000949576,1,57,test1,4,0.4218544000032125,-20.0
8,hdl,m,23,r,2,(-172.20000000000002, 2.1088417881317425e-14),25,-7,13,no,m,6,m,0.8451930000010179,1,58,test1,4,0.8454922999953851,-20.0
8,hdl,m,23,r,2,(-121.76378772032352, -121.76378772032348),26,-25,14,yes,x,5,x,0.4335286999994423,1,59,test1,4,0.4337396000046283,-70.0
8,hdl,m,23,r,2,(172.20000000000002, 0.0),21,7,3,yes,x,5,x,0.5098717999935616,1,60,test1,4,0.5099744000035571,-38.0
8,hdl,m,23,r,2,(-3.163262682197613e-14, -172.20000000000002),27,-5,12,no,m,6,m,0.7683050000050571,1,61,test1,4,0.7685425000090618,-38.0
8,hdl,m,23,r,2,(121.76378772032346, -121.76378772032352),28,25,4,no,m,6,m,0.8316391999978805,1,62,test1,4,0.8318533999990905,-38.0
8,hdl,m,23,r,2,(121.76378772032346, -121.76378772032352),28,3,1,yes,x,5,x,0.664045299999998,1,63,test1,4,0.6641398999927333,-42.0
8,hdl,m,23,r,2,(121.76378772032349, 121.76378772032349),22,-5,12,no,m,6,m,0.7285070000070846,1,64,test1,4,0.7286343000014313,-42.0
8,hdl,m,23,r,2,(-121.76378772032352, -121.76378772032348),26,7,3,no,m,6,m,0.8467437000072096,1,65,test1,4,0.8469858000025852,-42.0
8,hdl,m,23,r,2,(-121.76378772032348, 121.76378772032349),24,25,4,no,m,6,m,0.5573786000022665,1,66,test1,4,0.5578451999899698,-42.0
8,hdl,m,23,r,2,(-121.76378772032348, 121.76378772032349),24,-5,12,no,m,6,m,0.8331824999913806,1,67,test1,4,0.8332987000030698,-42.0
8,hdl,m,23,r,2,(1.0544208940658713e-14, 172.20000000000002),23,-3,11,no,m,6,m,0.8061296999949263,1,68,test1,4,0.8063429000030737,-42.0
8,hdl,m,23,r,2,(-121.76378772032352, -121.76378772032348),26,-5,12,no,m,6,m,0.7924557999940589,1,69,test1,4,0.792631899996195,-42.0
8,hdl,m,23,r,2,(-121.76378772032348, 121.76378772032349),24,-25,14,yes,x,5,x,0.476116899997578,1,70,test1,4,0.47635579999769107,-70.0
8,hdl,m,23,r,2,(-172.20000000000002, 2.1088417881317425e-14),25,25,4,yes,x,5,x,0.376714300000458,1,71,test1,4,0.3768175000004703,-20.0
8,hdl,m,23,r,2,(172.20000000000002, 0.0),21,3,1,yes,x,5,m,1.2889366000017617,0,72,test1,4,1.289243000006536,-42.0
8,hdl,m,23,r,2,(121.76378772032346, -121.76378772032352),28,-7,13,yes,x,5,x,0.6756514000007883,1,73,test1,4,0.6758746999985306,-52.0
8,hdl,m,23,r,2,(-121.76378772032352, -121.76378772032348),26,-3,11,yes,x,5,x,1.0702086000092095,1,74,test1,4,1.0704546999913873,-48.0
8,hdl,m,23,r,2,(172.20000000000002, 0.0),21,-5,12,no,m,6,m,1.042123699997319,1,75,test1,4,1.0423874000116484,-48.0
8,hdl,m,23,r,2,(1.0544208940658713e-14, 172.20000000000002),23,-5,12,yes,x,5,x,0.4817352999962168,1,76,test1,4,0.48183679999783635,-50.0
8,hdl,m,23,r,2,(172.20000000000002, 0.0),21,7,3,yes,x,5,x,0.536637500001234,1,77,test1,4,0.5368642999965232,-38.0
8,hdl,m,23,r,2,(-3.163262682197613e-14, -172.20000000000002),27,7,3,yes,x,5,x,0.46379069999966305,1,78,test1,4,0.46438669999770354,-38.0
8,hdl,m,23,r,2,(-121.76378772032352, -121.76378772032348),26,-3,11,no,m,6,m,1.0591298999934224,1,79,test1,4,1.0592612000036752,-38.0
8,hdl,m,23,r,2,(121.76378772032346, -121.76378772032352),28,5,2,yes,x,5,x,0.6959752999973716,1,80,test1,4,0.6963093999947887,-40.0
8,hdl,m,23,r,2,(-3.163262682197613e-14, -172.20000000000002),27,5,2,yes,x,5,x,0.8618437999975868,1,81,test1,4,0.8619663999998011,-40.0
8,hdl,m,23,r,2,(1.0544208940658713e-14, 172.20000000000002),23,25,4,yes,x,5,x,0.42954830000235233,1,82,test1,4,0.4298828000028152,-20.0
8,hdl,m,23,r,2,(172.20000000000002, 0.0),21,-5,12,yes,x,5,x,0.8159097000025213,1,83,test1,4,0.8160320000024512,-50.0
8,hdl,m,23,r,2,(-121.76378772032352, -121.76378772032348),26,-5,12,yes,x,5,x,0.6700359999958891,1,84,test1,4,0.6701661999977659,-50.0
8,hdl,m,23,r,2,(-121.76378772032348, 121.76378772032349),24,25,4,yes,x,5,x,0.4398878999927547,1,85,test1,4,0.4401806999958353,-20.0
8,hdl,m,23,r,2,(1.0544208940658713e-14, 172.20000000000002),23,7,3,yes,x,5,x,0.42943380000360776,1,86,test1,4,0.42953389999456704,-38.0
8,hdl,m,23,r,2,(121.76378772032349, 121.76378772032349),22,-3,11,yes,x,5,m,1.0670976000110386,0,87,test1,4,1.0675521999946795,-48.0
8,hdl,m,23,r,2,(-3.163262682197613e-14, -172.20000000000002),27,-3,11,yes,x,5,x,0.7159080999990692,1,88,test1,4,0.7162280000047758,-48.0
8,hdl,m,23,r,2,(1.0544208940658713e-14, 172.20000000000002),23,3,1,no,m,6,m,1.159726199999568,1,89,test1,4,1.1598805999965407,-48.0
8,hdl,m,23,r,2,(121.76378772032346, -121.76378772032352),28,-3,11,no,m,6,m,0.8048914999963017,1,90,test1,4,0.805044300010195,-48.0
8,hdl,m,23,r,2,(-121.76378772032352, -121.76378772032348),26,5,2,yes,x,5,x,0.7178362999984529,1,91,test1,4,0.7181263999955263,-40.0
8,hdl,m,23,r,2,(-121.76378772032348, 121.76378772032349),24,7,3,no,m,6,m,1.1530582000123104,1,92,test1,4,1.1531612000107998,-40.0
8,hdl,m,23,r,2,(-121.76378772032352, -121.76378772032348),26,3,1,yes,x,5,x,0.666028899999219,1,93,test1,4,0.6661446999933105,-42.0
8,hdl,m,23,r,2,(-172.20000000000002, 2.1088417881317425e-14),25,5,2,no,m,6,m,0.956721499998821,1,94,test1,4,0.9569565999991028,-42.0
8,hdl,m,23,r,2,(121.76378772032346, -121.76378772032352),28,3,1,yes,x,5,x,0.6504359000100521,1,95,test1,4,0.6505390999955125,-42.0
8,hdl,m,23,r,2,(172.20000000000002, 0.0),21,-7,13,yes,x,5,x,0.540019799998845,1,96,test1,4,0.540148300002329,-52.0
8,hdl,m,23,r,2,(-121.76378772032348, 121.76378772032349),24,-25,14,no,m,6,m,0.7834216000046581,1,1,test2,4,0.7841080000071088,-52.0
8,hdl,m,23,r,2,(1.0544208940658713e-14, 172.20000000000002),23,7,3,yes,x,5,x,0.43642490000638645,1,2,test2,4,0.4369460000016261,-38.0
8,hdl,m,23,r,2,(-172.20000000000002, 2.1088417881317425e-14),25,-25,14,yes,x,5,x,0.3986730000033276,1,3,test2,4,0.3987743999896338,-70.0
8,hdl,m,23,r,2,(-3.163262682197613e-14, -172.20000000000002),27,25,4,yes,x,5,x,0.40005500000552274,1,4,test2,4,0.4002024000074016,-20.0
8,hdl,m,23,r,2,(121.76378772032346, -121.76378772032352),28,-3,11,yes,x,5,x,0.6560003000049619,1,5,test2,4,0.6562006000021938,-48.0
8,hdl,m,23,r,2,(-3.163262682197613e-14, -172.20000000000002),27,-25,14,no,m,6,m,0.8171709000016563,1,6,test2,4,0.8173304999945685,-48.0
8,hdl,m,23,r,2,(1.0544208940658713e-14, 172.20000000000002),23,-25,14,yes,x,5,x,0.45359580000513233,1,7,test2,4,0.4538822999893455,-70.0
8,hdl,m,23,r,2,(-172.20000000000002, 2.1088417881317425e-14),25,-5,12,no,m,6,m,0.6512038000073517,1,8,test2,4,0.6513276000041515,-70.0
8,hdl,m,23,r,2,(121.76378772032346, -121.76378772032352),28,5,2,no,m,6,m,0.8764242000033846,1,9,test2,4,0.8765385000006063,-70.0
8,hdl,m,23,r,2,(-121.76378772032348, 121.76378772032349),24,-7,13,yes,x,5,x,0.46740989999671,1,10,test2,4,0.46765269999741577,-52.0
8,hdl,m,23,r,2,(-172.20000000000002, 2.1088417881317425e-14),25,25,4,yes,x,5,x,0.40841780000482686,1,11,test2,4,0.4087011000083294,-20.0
8,hdl,m,23,r,2,(121.76378772032349, 121.76378772032349),22,-3,11,yes,x,5,x,0.7219012999994447,1,12,test2,4,0.7220302000059746,-48.0
8,hdl,m,23,r,2,(-121.76378772032352, -121.76378772032348),26,-7,13,no,m,6,m,1.1035577000002377,1,13,test2,4,1.10365869999805,-48.0
8,hdl,m,23,r,2,(-172.20000000000002, 2.1088417881317425e-14),25,7,3,no,m,6,m,0.7791204999957699,1,14,test2,4,0.779335600003833,-48.0
8,hdl,m,23,r,2,(-121.76378772032348, 121.76378772032349),24,-7,13,no,m,6,m,1.0933485999994446,1,15,test2,4,1.093954500000109,-48.0
8,hdl,m,23,r,2,(121.76378772032349, 121.76378772032349),22,25,4,yes,x,5,x,0.4359117999993032,1,16,test2,4,0.43629260000307113,-20.0
8,hdl,m,23,r,2,(-172.20000000000002, 2.1088417881317425e-14),25,-3,11,yes,x,5,x,0.7157912999973632,1,17,test2,4,0.7164429999975255,-48.0
8,hdl,m,23,r,2,(-172.20000000000002, 2.1088417881317425e-14),25,-7,13,yes,x,5,x,0.4862544999923557,1,18,test2,4,0.4865611999994144,-52.0
8,hdl,m,23,r,2,(-3.163262682197613e-14, -172.20000000000002),27,3,1,yes,x,5,m,1.0140917999960948,0,19,test2,4,1.0145179999963148,-42.0
8,hdl,m,23,r,2,(-121.76378772032352, -121.76378772032348),26,7,3,yes,x,5,x,0.4256374999968102,1,20,test2,4,0.42595319999963976,-38.0
8,hdl,m,23,r,2,(121.76378772032349, 121.76378772032349),22,-25,14,no,m,6,m,0.833009599999059,1,21,test2,4,0.8332190999935847,-38.0
8,hdl,m,23,r,2,(121.76378772032349, 121.76378772032349),22,5,2,yes,x,5,x,0.6428933999995934,1,22,test2,4,0.6431568999978481,-40.0
8,hdl,m,23,r,2,(121.76378772032346, -121.76378772032352),28,-7,13,yes,x,5,x,0.49465940000663977,1,23,test2,4,0.4947605999914231,-52.0
8,hdl,m,23,r,2,(121.76378772032349, 121.76378772032349),22,3,1,no,m,6,m,0.8048945000045933,1,24,test2,4,0.8051245000096969,-52.0
8,hdl,m,23,r,2,(-3.163262682197613e-14, -172.20000000000002),27,-3,11,yes,x,5,m,0.7347539000038523,0,25,test2,4,0.7348932000022614,-48.0
8,hdl,m,23,r,2,(121.76378772032346, -121.76378772032352),28,-7,13,no,m,6,m,0.8291786000045249,1,26,test2,4,0.8294746999890776,-48.0
8,hdl,m,23,r,2,(-172.20000000000002, 2.1088417881317425e-14),25,3,1,yes,x,5,x,1.1385594000021229,1,27,test2,4,1.1386757000000216,-42.0
8,hdl,m,23,r,2,(-172.20000000000002, 2.1088417881317425e-14),25,7,3,yes,x,5,x,0.47888170000805985,1,28,test2,4,0.4792271000042092,-38.0
8,hdl,m,23,r,2,(-121.76378772032352, -121.76378772032348),26,25,4,yes,x,5,x,0.45128709998971317,1,29,test2,4,0.4514130000025034,-20.0
8,hdl,m,23,r,2,(-121.76378772032348, 121.76378772032349),24,3,1,yes,x,5,x,0.9642161999945529,1,30,test2,4,0.9643380000052275,-42.0
8,hdl,m,23,r,2,(-172.20000000000002, 2.1088417881317425e-14),25,7,3,yes,x,5,x,0.5934598999883747,1,31,test2,4,0.5938902999914717,-38.0
8,hdl,m,23,r,2,(1.0544208940658713e-14, 172.20000000000002),23,5,2,yes,x,5,x,0.5330718999903183,1,32,test2,4,0.5331802000000607,-40.0
8,hdl,m,23,r,2,(121.76378772032346, -121.76378772032352),28,3,1,no,m,6,m,1.4320401000004495,1,33,test2,4,1.4322494999942137,-40.0
8,hdl,m,23,r,2,(172.20000000000002, 0.0),21,-7,13,no,m,6,x,1.5604928999964613,0,34,test2,4,1.5607708000025013,-40.0
8,hdl,m,23,r,2,(-3.163262682197613e-14, -172.20000000000002),27,5,2,no,m,6,m,1.26398610000615,1,35,test2,4,1.2641490999958478,-40.0
8,hdl,m,23,r,2,(-172.20000000000002, 2.1088417881317425e-14),25,-3,11,yes,x,5,x,0.7018262000055984,1,36,test2,4,0.7020557000068948,-48.0
8,hdl,m,23,r,2,(-121.76378772032352, -121.76378772032348),26,3,1,yes,x,5,x,0.6588068999990355,1,37,test2,4,0.658937899992452,-42.0
8,hdl,m,23,r,2,(121.76378772032346, -121.76378772032352),28,7,3,no,m,6,m,1.4903610000037588,1,38,test2,4,1.4909111999877496,-42.0
8,hdl,m,23,r,2,(-172.20000000000002, 2.1088417881317425e-14),25,25,4,no,m,6,m,1.3215930000005756,1,39,test2,4,1.322155699992436,-42.0
8,hdl,m,23,r,2,(121.76378772032349, 121.76378772032349),22,25,4,yes,x,5,x,0.5728885999997146,1,40,test2,4,0.5730175000062445,-20.0
8,hdl,m,23,r,2,(-3.163262682197613e-14, -172.20000000000002),27,25,4,yes,x,5,x,0.5789627000049222,1,41,test2,4,0.5793761999957496,-20.0
8,hdl,m,23,r,2,(1.0544208940658713e-14, 172.20000000000002),23,-3,11,yes,x,5,x,0.6096850999892922,1,42,test2,4,0.6097841000009794,-48.0
8,hdl,m,23,r,2,(-172.20000000000002, 2.1088417881317425e-14),25,3,1,yes,x,5,x,0.6014782999991439,1,43,test2,4,0.6015953000023728,-42.0
8,hdl,m,23,r,2,(-121.76378772032352, -121.76378772032348),26,-25,14,no,m,6,m,0.8780454999941867,1,44,test2,4,0.878178900005878,-42.0
8,hdl,m,23,r,2,(121.76378772032349, 121.76378772032349),22,-7,13,yes,x,5,x,0.6149692999897525,1,45,test2,4,0.6151878999953624,-52.0
8,hdl,m,23,r,2,(-172.20000000000002, 2.1088417881317425e-14),25,-3,11,no,m,6,m,0.8181364000047324,1,46,test2,4,0.8182360999926459,-52.0
8,hdl,m,23,r,2,(1.0544208940658713e-14, 172.20000000000002),23,-25,14,yes,x,5,x,0.5484399999986636,1,47,test2,4,0.5488356999994721,-70.0
8,hdl,m,23,r,2,(-121.76378772032348, 121.76378772032349),24,3,1,yes,x,5,x,0.6392813999991631,1,48,test2,4,0.639502200006973,-42.0
8,hdl,m,23,r,2,(1.0544208940658713e-14, 172.20000000000002),23,25,4,yes,x,5,x,0.4574811999918893,1,49,test2,4,0.4577078000002075,-20.0
8,hdl,m,23,r,2,(-3.163262682197613e-14, -172.20000000000002),27,-7,13,yes,x,5,x,0.6355391000106465,1,50,test2,4,0.6359364999952959,-52.0
8,hdl,m,23,r,2,(1.0544208940658713e-14, 172.20000000000002),23,-25,14,no,m,6,m,0.7350890999950934,1,51,test2,4,0.7353059000015492,-52.0
8,hdl,m,23,r,2,(-121.76378772032352, -121.76378772032348),26,5,2,no,m,6,m,0.9562223000102676,1,52,test2,4,0.9563238000118872,-52.0
8,hdl,m,23,r,2,(172.20000000000002, 0.0),21,-7,13,yes,x,5,x,0.48698410000361037,1,53,test2,4,0.487085599990678,-52.0
8,hdl,m,23,r,2,(-121.76378772032352, -121.76378772032348),26,-3,11,yes,x,5,x,0.8920901000092272,1,54,test2,4,0.8923948000010569,-48.0
8,hdl,m,23,r,2,(-3.163262682197613e-14, -172.20000000000002),27,-5,12,yes,x,5,x,0.561266999997315,1,55,test2,4,0.561608799995156,-50.0
8,hdl,m,23,r,2,(172.20000000000002, 0.0),21,-25,14,yes,x,5,x,0.43339279999781866,1,56,test2,4,0.4339276999962749,-70.0
8,hdl,m,23,r,2,(121.76378772032349, 121.76378772032349),22,-7,13,no,m,6,m,0.9059906000038609,1,57,test2,4,0.906497699994361,-70.0
8,hdl,m,23,r,2,(1.0544208940658713e-14, 172.20000000000002),23,25,4,no,m,6,m,0.6724116999976104,1,58,test2,4,0.6727427000005264,-70.0
8,hdl,m,23,r,2,(121.76378772032346, -121.76378772032352),28,-3,11,yes,x,5,x,1.1020856999966782,1,59,test2,4,1.1027151000016602,-48.0
8,hdl,m,23,r,2,(-121.76378772032348, 121.76378772032349),24,3,1,no,m,6,m,0.8203408999979729,1,60,test2,4,0.8205589999997756,-48.0
8,hdl,m,23,r,2,(121.76378772032349, 121.76378772032349),22,-25,14,yes,x,5,x,0.5259346999955596,1,61,test2,4,0.526035500006401,-70.0
8,hdl,m,23,r,2,(-121.76378772032352, -121.76378772032348),26,-5,12,yes,x,5,x,0.589906900000642,1,62,test2,4,0.5902387000096496,-50.0
8,hdl,m,23,r,2,(-121.76378772032352, -121.76378772032348),26,3,1,no,m,6,m,0.684684499996365,1,63,test2,4,0.684782999989693,-50.0
8,hdl,m,23,r,2,(121.76378772032349, 121.76378772032349),22,5,2,no,m,6,m,0.8658890999940922,1,64,test2,4,0.8660627999925055,-50.0
8,hdl,m,23,r,2,(1.0544208940658713e-14, 172.20000000000002),23,3,1,yes,x,5,x,0.6412981000030413,1,65,test2,4,0.6415320999949472,-42.0
8,hdl,m,23,r,2,(121.76378772032346, -121.76378772032352),28,7,3,yes,x,5,x,0.5104121000040323,1,66,test2,4,0.5106494999927236,-38.0
8,hdl,m,23,r,2,(-121.76378772032348, 121.76378772032349),24,-5,12,yes,x,5,x,0.5105616000073496,1,67,test2,4,0.5109158999985084,-50.0
8,hdl,m,23,r,2,(-3.163262682197613e-14, -172.20000000000002),27,3,1,yes,x,5,x,0.5953401000006124,1,68,test2,4,0.595620100008091,-42.0
8,hdl,m,23,r,2,(1.0544208940658713e-14, 172.20000000000002),23,-5,12,no,m,6,m,1.2024863999977242,1,69,test2,4,1.2028391999920132,-42.0
8,hdl,m,23,r,2,(172.20000000000002, 0.0),21,7,3,no,m,6,m,0.866862900002161,1,70,test2,4,0.8669821999937994,-42.0
8,hdl,m,23,r,2,(-121.76378772032348, 121.76378772032349),24,-5,12,yes,x,5,x,0.649988699995447,1,71,test2,4,0.6502593000041088,-50.0
8,hdl,m,23,r,2,(172.20000000000002, 0.0),21,5,2,no,m,6,m,1.2434854000021005,1,72,test2,4,1.2439626999985194,-50.0
8,hdl,m,23,r,2,(-3.163262682197613e-14, -172.20000000000002),27,25,4,no,m,6,m,1.0826035000063712,1,73,test2,4,1.0828318999992916,-50.0
8,hdl,m,23,r,2,(172.20000000000002, 0.0),21,-3,11,yes,x,5,x,1.4841171000007307,1,74,test2,4,1.4847983999934513,-48.0
8,hdl,m,23,r,2,(121.76378772032346, -121.76378772032352),28,-5,12,yes,x,5,x,0.9091402999911224,1,75,test2,4,0.9092716000013752,-50.0
8,hdl,m,23,r,2,(172.20000000000002, 0.0),21,5,2,yes,x,5,x,1.1801309999864316,1,76,test2,4,1.180231799997273,-40.0
8,hdl,m,23,r,2,(-3.163262682197613e-14, -172.20000000000002),27,-25,14,yes,x,5,x,0.42389940000430215,1,77,test2,4,0.42424550000578165,-70.0
8,hdl,m,23,r,2,(-121.76378772032352, -121.76378772032348),26,25,4,yes,x,5,x,0.4622486000007484,1,78,test2,4,0.4623676000046544,-20.0
8,hdl,m,23,r,2,(1.0544208940658713e-14, 172.20000000000002),23,-7,13,yes,x,5,x,0.4917286999989301,1,79,test2,4,0.49188989998947363,-52.0
8,hdl,m,23,r,2,(121.76378772032349, 121.76378772032349),22,-7,13,yes,x,5,x,0.4809620000014547,1,80,test2,4,0.4811026999959722,-52.0
8,hdl,m,23,r,2,(121.76378772032346, -121.76378772032352),28,-25,14,no,m,6,m,0.9830752999987453,1,81,test2,4,0.9833146000019042,-52.0
8,hdl,m,23,r,2,(121.76378772032346, -121.76378772032352),28,-25,14,yes,x,5,x,0.45377079999889247,1,82,test2,4,0.4540497999987565,-70.0
