subj_id,subj_name,subj_gender ,subj_age,subj_handedness,subj_runNum,tar_l_x,tar_l_y,loc_code,tar_ori,tar_code,tar_pre ,cor_response,pre_code,subj_response,RT,correct,trial_num,type,bloc_num,dur, real_tar
9,pjy,f,19,r,1,(121.76378772032349, 121.76378772032349),22,-3,11,yes,x,5,m,1.0827718000218738,0,1,prac,0,1.0829360999923665,-48.0
9,pjy,f,19,r,1,(121.76378772032349, 121.76378772032349),22,-7,13,yes,x,5,m,0.8195762999821454,0,2,prac,0,0.8196935000014491,-52.0
9,pjy,f,19,r,1,(121.76378772032349, 121.76378772032349),22,-3,11,yes,x,5,m,0.7112811999977566,0,3,prac,0,0.7114085999783128,-48.0
9,pjy,f,19,r,1,(-3.163262682197613e-14, -172.20000000000002),27,-7,13,no,m,6,m,1.384154999977909,1,4,prac,0,1.3842548999818973,-48.0
9,pjy,f,19,r,1,(172.20000000000002, 0.0),21,-5,12,no,m,6,m,0.9320051000104286,1,5,prac,0,0.9321382000052836,-48.0
9,pjy,f,19,r,1,(-121.76378772032348, 121.76378772032349),24,7,3,yes,x,5,x,0.5625163000077009,1,6,prac,0,0.562613300018711,-38.0
9,pjy,f,19,r,1,(1.0544208940658713e-14, 172.20000000000002),23,-7,13,yes,x,5,x,0.4965269999811426,1,7,prac,0,0.49685820000013337,-52.0
9,pjy,f,19,r,1,(172.20000000000002, 0.0),21,-25,14,yes,x,5,x,0.6216751000029035,1,8,prac,0,0.6218369999842253,-70.0
9,pjy,f,19,r,1,(121.76378772032346, -121.76378772032352),28,25,4,yes,x,5,x,0.5426365000021178,1,9,prac,0,0.5430852999852505,-20.0
9,pjy,f,19,r,1,(172.20000000000002, 0.0),21,25,4,no,m,6,x,0.9198262999998406,0,10,prac,0,0.9200404999719467,-20.0
9,pjy,f,19,r,1,(-121.76378772032348, 121.76378772032349),24,7,3,no,m,6,x,0.7731035999895539,0,11,prac,0,0.7732808000000659,-20.0
9,pjy,f,19,r,1,(-3.163262682197613e-14, -172.20000000000002),27,-3,11,no,m,6,m,0.658765999978641,1,12,prac,0,0.6589719000039622,-20.0
9,pjy,f,19,r,1,(-121.76378772032352, -121.76378772032348),26,-3,11,no,m,6,m,0.665709400025662,1,13,prac,0,0.6659961999976076,-20.0
9,pjy,f,19,r,1,(-121.76378772032352, -121.76378772032348),26,-3,11,yes,x,5,m,0.6284904999774881,0,14,prac,0,0.6287146999966353,-48.0
9,pjy,f,19,r,1,(-172.20000000000002, 2.1088417881317425e-14),25,-25,14,no,m,6,m,0.9146685999876354,1,15,prac,0,0.9150265000062063,-48.0
9,pjy,f,19,r,1,(121.76378772032346, -121.76378772032352),28,3,1,yes,x,5,m,0.7737539999943692,0,16,prac,0,0.7739398000121582,-42.0
9,pjy,f,19,r,1,(-121.76378772032352, -121.76378772032348),26,-5,12,no,m,6,m,0.7338507999957073,1,17,prac,0,0.7339830999844708,-42.0
9,pjy,f,19,r,1,(-3.163262682197613e-14, -172.20000000000002),27,5,2,yes,x,5,m,0.8141262000135612,0,18,prac,0,0.8142989000189118,-40.0
9,pjy,f,19,r,1,(-121.76378772032348, 121.76378772032349),24,25,4,no,m,6,m,0.7949872000026517,1,19,prac,0,0.7954761000000872,-40.0
9,pjy,f,19,r,1,(172.20000000000002, 0.0),21,-7,13,yes,x,5,x,0.5820573000237346,1,20,prac,0,0.5823910000035539,-52.0
9,pjy,f,19,r,1,(1.0544208940658713e-14, 172.20000000000002),23,5,2,yes,x,5,x,0.7497224999824539,1,1,test1,1,0.7499544000020251,-40.0
9,pjy,f,19,r,1,(-121.76378772032348, 121.76378772032349),24,7,3,yes,x,5,x,0.5019624000124168,1,2,test1,1,0.5020615999819711,-38.0
9,pjy,f,19,r,1,(-121.76378772032352, -121.76378772032348),26,-5,12,yes,x,5,m,0.796021300018765,0,3,test1,1,0.7962429000181146,-50.0
9,pjy,f,19,r,1,(121.76378772032349, 121.76378772032349),22,3,1,yes,x,5,m,0.8567794999980833,0,4,test1,1,0.8570533999882173,-42.0
9,pjy,f,19,r,1,(-172.20000000000002, 2.1088417881317425e-14),25,7,3,yes,x,5,x,0.5073069000209216,1,5,test1,1,0.5075156000093557,-38.0
9,pjy,f,19,r,1,(1.0544208940658713e-14, 172.20000000000002),23,-25,14,yes,x,5,x,0.5753339999937452,1,6,test1,1,0.5756424000137486,-70.0
9,pjy,f,19,r,1,(172.20000000000002, 0.0),21,3,1,no,m,6,m,0.9094780000159517,1,7,test1,1,0.9096201000211295,-70.0
9,pjy,f,19,r,1,(121.76378772032346, -121.76378772032352),28,-3,11,yes,x,5,m,0.8861097999906633,0,8,test1,1,0.8865028999862261,-48.0
9,pjy,f,19,r,1,(121.76378772032346, -121.76378772032352),28,-5,12,yes,x,5,x,1.15637300000526,1,9,test1,1,1.1565222999779508,-50.0
9,pjy,f,19,r,1,(-3.163262682197613e-14, -172.20000000000002),27,25,4,yes,x,5,x,0.6671940000087488,1,10,test1,1,0.6675198000157252,-20.0
9,pjy,f,19,r,1,(121.76378772032349, 121.76378772032349),22,-25,14,yes,x,5,x,0.5597253000014462,1,11,test1,1,0.5598454999853857,-70.0
9,pjy,f,19,r,1,(121.76378772032349, 121.76378772032349),22,7,3,no,m,6,m,1.0054984999878798,1,12,test1,1,1.0056280000135303,-70.0
9,pjy,f,19,r,1,(-121.76378772032352, -121.76378772032348),26,3,1,yes,x,5,x,1.3286554999940563,1,13,test1,1,1.3287544999911916,-42.0
9,pjy,f,19,r,1,(-3.163262682197613e-14, -172.20000000000002),27,-7,13,no,m,6,m,0.981416700000409,1,14,test1,1,0.9815968000038993,-42.0
9,pjy,f,19,r,1,(172.20000000000002, 0.0),21,-25,14,yes,x,5,x,0.5346722999820486,1,15,test1,1,0.5348644999903627,-70.0
9,pjy,f,19,r,1,(121.76378772032349, 121.76378772032349),22,-3,11,yes,x,5,x,0.9967197000223678,1,16,test1,1,0.9971113000065088,-48.0
9,pjy,f,19,r,1,(121.76378772032349, 121.76378772032349),22,7,3,yes,x,5,x,0.6585457000182942,1,17,test1,1,0.6588331999955699,-38.0
9,pjy,f,19,r,1,(172.20000000000002, 0.0),21,7,3,no,m,6,m,1.2085903999977745,1,18,test1,1,1.2089199000038207,-38.0
9,pjy,f,19,r,1,(-3.163262682197613e-14, -172.20000000000002),27,-25,14,yes,x,5,x,0.5394459000090137,1,19,test1,1,0.539613000000827,-70.0
9,pjy,f,19,r,1,(172.20000000000002, 0.0),21,-5,12,no,m,6,m,1.0217668999976013,1,20,test1,1,1.0218660999962594,-70.0
9,pjy,f,19,r,1,(172.20000000000002, 0.0),21,25,4,no,m,6,m,0.9008608000003733,1,21,test1,1,0.9010979000013322,-70.0
9,pjy,f,19,r,1,(-121.76378772032348, 121.76378772032349),24,3,1,no,m,6,m,1.1602070000080857,1,22,test1,1,1.16032009999617,-70.0
9,pjy,f,19,r,1,(1.0544208940658713e-14, 172.20000000000002),23,7,3,yes,x,5,x,0.6022128000040539,1,23,test1,1,0.6023319000087213,-38.0
9,pjy,f,19,r,1,(-121.76378772032348, 121.76378772032349),24,-25,14,yes,x,5,x,0.4799139999959152,1,24,test1,1,0.4806899999966845,-70.0
9,pjy,f,19,r,1,(1.0544208940658713e-14, 172.20000000000002),23,3,1,no,m,6,m,1.1836330999794882,1,25,test1,1,1.1837471000035293,-70.0
9,pjy,f,19,r,1,(121.76378772032346, -121.76378772032352),28,-7,13,yes,x,5,x,0.7373780999914743,1,26,test1,1,0.7374802000122145,-52.0
9,pjy,f,19,r,1,(-121.76378772032348, 121.76378772032349),24,-7,13,no,m,6,m,0.9792113000003155,1,27,test1,1,0.9793148000026122,-52.0
9,pjy,f,19,r,1,(-3.163262682197613e-14, -172.20000000000002),27,3,1,no,m,6,m,0.8986465000198223,1,28,test1,1,0.8988865000137594,-52.0
9,pjy,f,19,r,1,(-172.20000000000002, 2.1088417881317425e-14),25,-25,14,no,m,6,m,1.013459799985867,1,29,test1,1,1.0138641000085045,-52.0
9,pjy,f,19,r,1,(-3.163262682197613e-14, -172.20000000000002),27,3,1,yes,x,5,m,0.9222967000096105,0,30,test1,1,0.9225360999989789,-42.0
9,pjy,f,19,r,1,(1.0544208940658713e-14, 172.20000000000002),23,25,4,yes,x,5,x,0.5095858999993652,1,31,test1,1,0.5098731000034604,-20.0
9,pjy,f,19,r,1,(-172.20000000000002, 2.1088417881317425e-14),25,7,3,yes,x,5,x,0.5822211999911815,1,32,test1,1,0.5823503999854438,-38.0
9,pjy,f,19,r,1,(121.76378772032349, 121.76378772032349),22,5,2,yes,x,5,x,0.7544028999982402,1,33,test1,1,0.7546429000212811,-40.0
9,pjy,f,19,r,1,(121.76378772032349, 121.76378772032349),22,-25,14,yes,x,5,x,0.5676048000168521,1,34,test1,1,0.5678914999880362,-70.0
9,pjy,f,19,r,1,(-121.76378772032352, -121.76378772032348),26,5,2,yes,x,5,m,0.9612196999951266,0,35,test1,1,0.961426499998197,-40.0
9,pjy,f,19,r,1,(-121.76378772032352, -121.76378772032348),26,7,3,no,m,6,m,0.9842837000032887,1,36,test1,1,0.9843847999873105,-40.0
9,pjy,f,19,r,1,(-121.76378772032348, 121.76378772032349),24,7,3,yes,x,5,x,0.6086023999960162,1,37,test1,1,0.6088691999902949,-38.0
9,pjy,f,19,r,1,(121.76378772032346, -121.76378772032352),28,25,4,no,m,6,m,1.2652050999749918,1,38,test1,1,1.265516999992542,-38.0
9,pjy,f,19,r,1,(121.76378772032349, 121.76378772032349),22,-25,14,no,m,6,m,1.0992944999889005,1,39,test1,1,1.0994885999825783,-38.0
9,pjy,f,19,r,1,(-172.20000000000002, 2.1088417881317425e-14),25,5,2,yes,x,5,x,0.5574357000004966,1,40,test1,1,0.5575345999968704,-40.0
9,pjy,f,19,r,1,(1.0544208940658713e-14, 172.20000000000002),23,-3,11,yes,x,5,x,1.2137868999852799,1,41,test1,1,1.2142411000095308,-48.0
9,pjy,f,19,r,1,(1.0544208940658713e-14, 172.20000000000002),23,-25,14,no,m,6,m,0.9385606000141706,1,42,test1,1,0.9386879000230692,-48.0
9,pjy,f,19,r,1,(-121.76378772032348, 121.76378772032349),24,-5,12,yes,x,5,x,0.7489802000054624,1,43,test1,1,0.74911209999118,-50.0
9,pjy,f,19,r,1,(1.0544208940658713e-14, 172.20000000000002),23,-25,14,yes,x,5,x,0.6239090999879409,1,44,test1,1,0.6242075999907684,-70.0
9,pjy,f,19,r,1,(-3.163262682197613e-14, -172.20000000000002),27,-3,11,no,m,6,m,0.9952858999895398,1,45,test1,1,0.9953838999790605,-70.0
9,pjy,f,19,r,1,(-121.76378772032352, -121.76378772032348),26,-7,13,no,m,6,m,1.011698599992087,1,46,test1,1,1.0118278000154532,-70.0
9,pjy,f,19,r,1,(-121.76378772032348, 121.76378772032349),24,-3,11,yes,x,5,x,0.7356100000033621,1,47,test1,1,0.7358466000005137,-48.0
9,pjy,f,19,r,1,(121.76378772032346, -121.76378772032352),28,-3,11,no,m,6,m,1.0674462000024505,1,48,test1,1,1.0675950000004377,-48.0
9,pjy,f,19,r,1,(-172.20000000000002, 2.1088417881317425e-14),25,25,4,yes,x,5,x,0.6215298000024632,1,49,test1,1,0.6220410999958403,-20.0
9,pjy,f,19,r,1,(121.76378772032346, -121.76378772032352),28,7,3,no,m,6,m,0.9804125999798998,1,50,test1,1,0.9805135999922641,-20.0
9,pjy,f,19,r,1,(1.0544208940658713e-14, 172.20000000000002),23,-3,11,yes,x,5,m,1.0082933999947272,0,51,test1,1,1.0084060999797657,-48.0
9,pjy,f,19,r,1,(121.76378772032346, -121.76378772032352),28,-25,14,yes,x,5,x,0.6407151000166778,1,52,test1,1,0.640951400011545,-70.0
9,pjy,f,19,r,1,(121.76378772032346, -121.76378772032352),28,5,2,yes,x,5,m,0.9213094000006095,0,53,test1,1,0.9215614999993704,-40.0
9,pjy,f,19,r,1,(-121.76378772032348, 121.76378772032349),24,-5,12,no,m,6,m,1.0057497999805491,1,54,test1,1,1.0059695999952964,-40.0
9,pjy,f,19,r,1,(-172.20000000000002, 2.1088417881317425e-14),25,5,2,yes,x,5,x,0.639723900007084,1,55,test1,1,0.639822799974354,-40.0
9,pjy,f,19,r,1,(-121.76378772032348, 121.76378772032349),24,-3,11,no,m,6,m,0.8785644000163302,1,56,test1,1,0.8788605000008829,-40.0
9,pjy,f,19,r,1,(-121.76378772032352, -121.76378772032348),26,7,3,yes,x,5,x,0.6349401000188664,1,57,test1,1,0.6350665999925695,-38.0
9,pjy,f,19,r,1,(-121.76378772032352, -121.76378772032348),26,-3,11,yes,x,5,x,1.076972000009846,1,58,test1,1,1.0770756999845617,-48.0
9,pjy,f,19,r,1,(-121.76378772032352, -121.76378772032348),26,-3,11,yes,x,5,x,0.7996561999898404,1,59,test1,1,0.8010776999872178,-48.0
9,pjy,f,19,r,1,(-172.20000000000002, 2.1088417881317425e-14),25,-5,12,yes,x,5,x,0.7861372999905143,1,60,test1,1,0.7862636999925599,-50.0
9,pjy,f,19,r,1,(1.0544208940658713e-14, 172.20000000000002),23,25,4,no,m,6,m,0.8774766999995336,1,61,test1,1,0.8777163999911863,-50.0
9,pjy,f,19,r,1,(1.0544208940658713e-14, 172.20000000000002),23,-5,12,yes,x,5,x,0.7179351999948267,1,62,test1,1,0.7181694000028074,-50.0
9,pjy,f,19,r,1,(-3.163262682197613e-14, -172.20000000000002),27,7,3,no,m,6,m,0.9653484000009485,1,63,test1,1,0.9660456000128761,-50.0
9,pjy,f,19,r,1,(-172.20000000000002, 2.1088417881317425e-14),25,7,3,no,m,6,m,0.8640304000000469,1,64,test1,1,0.8641278000141028,-50.0
9,pjy,f,19,r,1,(172.20000000000002, 0.0),21,5,2,yes,x,5,x,0.6743819999974221,1,65,test1,1,0.6749615000153426,-40.0
9,pjy,f,19,r,1,(-3.163262682197613e-14, -172.20000000000002),27,5,2,yes,x,5,x,0.7068517000006977,1,66,test1,1,0.7069498000200838,-40.0
9,pjy,f,19,r,1,(-3.163262682197613e-14, -172.20000000000002),27,-25,14,yes,x,5,x,0.6080161999852862,1,67,test1,1,0.60825130000012,-70.0
9,pjy,f,19,r,1,(172.20000000000002, 0.0),21,-3,11,no,m,6,m,0.8169395999866538,1,68,test1,1,0.817421399988234,-70.0
9,pjy,f,19,r,1,(1.0544208940658713e-14, 172.20000000000002),23,-5,12,no,m,6,m,0.9339655000076164,1,69,test1,1,0.9340877000067849,-70.0
9,pjy,f,19,r,1,(-3.163262682197613e-14, -172.20000000000002),27,-7,13,yes,x,5,x,0.6827242999861483,1,70,test1,1,0.6828257000015583,-52.0
9,pjy,f,19,r,1,(121.76378772032346, -121.76378772032352),28,-5,12,yes,x,5,x,0.7980543000157923,1,71,test1,1,0.7986542999860831,-50.0
9,pjy,f,19,r,1,(-121.76378772032352, -121.76378772032348),26,5,2,yes,x,5,x,0.8060110000078566,1,72,test1,1,0.806471199990483,-40.0
9,pjy,f,19,r,1,(-172.20000000000002, 2.1088417881317425e-14),25,-7,13,yes,x,5,x,0.6417713000264484,1,73,test1,1,0.642029900016496,-52.0
9,pjy,f,19,r,1,(172.20000000000002, 0.0),21,-3,11,yes,x,5,x,0.7777586999873165,1,74,test1,1,0.7779834999819286,-48.0
9,pjy,f,19,r,1,(1.0544208940658713e-14, 172.20000000000002),23,7,3,yes,x,5,x,0.6535505000210833,1,75,test1,1,0.6538903999899048,-38.0
9,pjy,f,19,r,1,(-172.20000000000002, 2.1088417881317425e-14),25,-25,14,yes,x,5,x,0.5554061000002548,1,76,test1,1,0.5558893000124954,-70.0
9,pjy,f,19,r,1,(-3.163262682197613e-14, -172.20000000000002),27,25,4,yes,x,5,x,0.5308795000019018,1,77,test1,1,0.5309843000140972,-20.0
9,pjy,f,19,r,1,(121.76378772032346, -121.76378772032352),28,-7,13,no,m,6,m,0.9033078000065871,1,78,test1,1,0.9035146000096574,-20.0
9,pjy,f,19,r,1,(-172.20000000000002, 2.1088417881317425e-14),25,-7,13,no,m,6,m,0.9948016999987885,1,79,test1,1,0.9949825000076089,-20.0
9,pjy,f,19,r,1,(-3.163262682197613e-14, -172.20000000000002),27,-3,11,yes,x,5,x,0.7243971999851055,1,80,test1,1,0.7244979999959469,-48.0
9,pjy,f,19,r,1,(121.76378772032349, 121.76378772032349),22,-3,11,no,m,6,m,0.8947407999949064,1,81,test1,1,0.894854900019709,-48.0
9,pjy,f,19,r,1,(-3.163262682197613e-14, -172.20000000000002),27,7,3,yes,x,5,x,0.7995328999822959,1,82,test1,1,0.7997818999865558,-38.0
9,pjy,f,19,r,1,(121.76378772032349, 121.76378772032349),22,25,4,no,m,6,m,0.8982664000068326,1,83,test1,1,0.8983939999889117,-38.0
9,pjy,f,19,r,1,(-121.76378772032352, -121.76378772032348),26,-25,14,yes,x,5,x,0.6423850000137463,1,84,test1,1,0.6425069000106305,-70.0
9,pjy,f,19,r,1,(-121.76378772032352, -121.76378772032348),26,-5,12,yes,x,5,x,0.6934173000045121,1,85,test1,1,0.6936253999883775,-50.0
9,pjy,f,19,r,1,(1.0544208940658713e-14, 172.20000000000002),23,7,3,no,m,6,m,0.8755655999993905,1,86,test1,1,0.8757642999989912,-50.0
9,pjy,f,19,r,1,(1.0544208940658713e-14, 172.20000000000002),23,5,2,no,m,6,m,0.8763739999849349,1,87,test1,1,0.8769051000126638,-50.0
9,pjy,f,19,r,1,(1.0544208940658713e-14, 172.20000000000002),23,-7,13,no,m,6,m,0.9105050999787636,1,88,test1,1,0.9112347999762278,-50.0
9,pjy,f,19,r,1,(121.76378772032349, 121.76378772032349),22,5,2,no,m,6,m,0.9343648999929428,1,89,test1,1,0.9344888999767136,-50.0
9,pjy,f,19,r,1,(121.76378772032349, 121.76378772032349),22,25,4,yes,x,5,x,0.6570999000105076,1,90,test1,1,0.6572951999842189,-20.0
9,pjy,f,19,r,1,(-3.163262682197613e-14, -172.20000000000002),27,-7,13,yes,x,5,x,0.6845379000005778,1,91,test1,1,0.6847929999930784,-52.0
9,pjy,f,19,r,1,(-121.76378772032352, -121.76378772032348),26,25,4,yes,x,5,x,0.5705027999938466,1,92,test1,1,0.5708483000053093,-20.0
9,pjy,f,19,r,1,(1.0544208940658713e-14, 172.20000000000002),23,-7,13,yes,x,5,x,0.6189850000082515,1,93,test1,1,0.6194163000036497,-52.0
9,pjy,f,19,r,1,(-172.20000000000002, 2.1088417881317425e-14),25,-5,12,no,m,6,m,0.8855768999783322,1,94,test1,1,0.8857277000206523,-52.0
9,pjy,f,19,r,1,(-121.76378772032348, 121.76378772032349),24,3,1,yes,x,5,m,0.9012576999957673,0,95,test1,1,0.9014394999830984,-42.0
9,pjy,f,19,r,1,(-172.20000000000002, 2.1088417881317425e-14),25,-7,13,yes,x,5,x,0.5472464000049513,1,96,test1,1,0.5474842999828979,-52.0
9,pjy,f,19,r,1,(-3.163262682197613e-14, -172.20000000000002),27,5,2,no,m,6,m,0.7526947000005748,1,1,test2,1,0.7529597000102513,-52.0
9,pjy,f,19,r,1,(-121.76378772032348, 121.76378772032349),24,3,1,yes,x,5,x,0.7299620999838226,1,2,test2,1,0.7301746000011917,-42.0
9,pjy,f,19,r,1,(-3.163262682197613e-14, -172.20000000000002),27,7,3,yes,x,5,x,0.5548879999842029,1,3,test2,1,0.5550272000255063,-38.0
9,pjy,f,19,r,1,(172.20000000000002, 0.0),21,-25,14,yes,x,5,x,0.5638234000070952,1,4,test2,1,0.5639208999928087,-70.0
9,pjy,f,19,r,1,(-172.20000000000002, 2.1088417881317425e-14),25,3,1,yes,x,5,x,0.5861536999873351,1,5,test2,1,0.586316100001568,-42.0
9,pjy,f,19,r,1,(121.76378772032346, -121.76378772032352),28,5,2,yes,x,5,x,0.8751461000065319,1,6,test2,1,0.875353899988113,-40.0
9,pjy,f,19,r,1,(-3.163262682197613e-14, -172.20000000000002),27,5,2,yes,x,5,x,0.6508776000118814,1,7,test2,1,0.6512898000073619,-40.0
9,pjy,f,19,r,1,(-172.20000000000002, 2.1088417881317425e-14),25,-25,14,yes,x,5,x,1.8163801000046078,1,8,test2,1,1.8167165000049863,-70.0
9,pjy,f,19,r,1,(121.76378772032346, -121.76378772032352),28,25,4,yes,x,5,x,0.7040572999976575,1,9,test2,1,0.7042536000080872,-20.0
9,pjy,f,19,r,1,(172.20000000000002, 0.0),21,-5,12,yes,x,5,x,0.7459337000036612,1,10,test2,1,0.7460620999918319,-50.0
9,pjy,f,19,r,1,(-121.76378772032348, 121.76378772032349),24,-7,13,yes,x,5,x,0.6359974999795668,1,11,test2,1,0.6361019999894779,-52.0
9,pjy,f,19,r,1,(-121.76378772032348, 121.76378772032349),24,-25,14,yes,x,5,x,0.5651022999954876,1,12,test2,1,0.5652327999996487,-70.0
9,pjy,f,19,r,1,(121.76378772032346, -121.76378772032352),28,25,4,yes,x,5,x,0.5628088999947067,1,13,test2,1,0.5629116999916732,-20.0
9,pjy,f,19,r,1,(-121.76378772032348, 121.76378772032349),24,-5,12,yes,x,5,x,0.7948669999896083,1,14,test2,1,0.7950070000078995,-50.0
9,pjy,f,19,r,1,(-172.20000000000002, 2.1088417881317425e-14),25,-5,12,yes,x,5,x,0.8552523000107612,1,15,test2,1,0.855437600024743,-50.0
9,pjy,f,19,r,1,(121.76378772032346, -121.76378772032352),28,7,3,yes,x,5,x,0.8082929000083823,1,16,test2,1,0.8086559999792371,-38.0
9,pjy,f,19,r,1,(121.76378772032349, 121.76378772032349),22,7,3,yes,x,5,x,0.6538751000189222,1,17,test2,1,0.6542160999961197,-38.0
9,pjy,f,19,r,1,(1.0544208940658713e-14, 172.20000000000002),23,3,1,yes,x,5,x,0.9003169000206981,1,18,test2,1,0.9004455000103917,-42.0
9,pjy,f,19,r,1,(121.76378772032346, -121.76378772032352),28,3,1,yes,x,5,m,0.7432537999993656,0,19,test2,1,0.7435847999877296,-42.0
9,pjy,f,19,r,1,(172.20000000000002, 0.0),21,-7,13,yes,x,5,x,0.6479299000056926,1,20,test2,1,0.6483962000056636,-52.0
9,pjy,f,19,r,1,(-121.76378772032352, -121.76378772032348),26,5,2,no,m,6,m,0.7155624000006355,1,21,test2,1,0.7156647999945562,-52.0
9,pjy,f,19,r,1,(-121.76378772032348, 121.76378772032349),24,-25,14,no,m,6,m,1.2517318000027444,1,22,test2,1,1.2518901999865193,-52.0
9,pjy,f,19,r,1,(-121.76378772032352, -121.76378772032348),26,-7,13,yes,x,5,x,0.6481514999759383,1,23,test2,1,0.6485891999909654,-52.0
9,pjy,f,19,r,1,(-121.76378772032348, 121.76378772032349),24,25,4,yes,x,5,x,0.5856437000038568,1,24,test2,1,0.585801499983063,-20.0
9,pjy,f,19,r,1,(121.76378772032346, -121.76378772032352),28,5,2,no,m,6,m,0.9582530000188854,1,25,test2,1,0.9583753999904729,-20.0
9,pjy,f,19,r,1,(-172.20000000000002, 2.1088417881317425e-14),25,5,2,no,m,6,m,1.0286224999872502,1,26,test2,1,1.028782500012312,-20.0
9,pjy,f,19,r,1,(121.76378772032349, 121.76378772032349),22,-7,13,yes,x,5,x,0.7376554000074975,1,27,test2,1,0.7377466000034474,-52.0
9,pjy,f,19,r,1,(1.0544208940658713e-14, 172.20000000000002),23,-5,12,yes,x,5,x,0.6105376000050455,1,28,test2,1,0.6106344999861903,-50.0
9,pjy,f,19,r,1,(-3.163262682197613e-14, -172.20000000000002),27,-5,12,yes,x,5,x,0.8767125000013039,1,29,test2,1,0.8769463999778964,-50.0
9,pjy,f,19,r,1,(-121.76378772032348, 121.76378772032349),24,-7,13,yes,x,5,x,0.6188361000095028,1,30,test2,1,0.6189790999924298,-52.0
9,pjy,f,19,r,1,(121.76378772032346, -121.76378772032352),28,-25,14,yes,x,5,x,0.6531625000061467,1,31,test2,1,0.6532893999828957,-70.0
9,pjy,f,19,r,1,(172.20000000000002, 0.0),21,3,1,yes,x,5,m,1.1278473999991547,0,32,test2,1,1.128072699997574,-42.0
9,pjy,f,19,r,1,(-121.76378772032348, 121.76378772032349),24,25,4,no,m,6,m,1.2083092000102624,1,33,test2,1,1.2084854999848176,-42.0
9,pjy,f,19,r,1,(121.76378772032346, -121.76378772032352),28,7,3,yes,x,5,x,0.6055122000107076,1,34,test2,1,0.6056332000007387,-38.0
9,pjy,f,19,r,1,(-121.76378772032348, 121.76378772032349),24,5,2,yes,x,5,x,0.6030918999749701,1,35,test2,1,0.6033318999980111,-40.0
9,pjy,f,19,r,1,(121.76378772032346, -121.76378772032352),28,3,1,yes,x,5,x,0.9153023999824654,1,36,test2,1,0.9156947000010405,-42.0
9,pjy,f,19,r,1,(-121.76378772032352, -121.76378772032348),26,-7,13,yes,x,5,x,0.5540666000160854,1,37,test2,1,0.5541611000080593,-52.0
9,pjy,f,19,r,1,(121.76378772032346, -121.76378772032352),28,-7,13,yes,x,5,x,0.6236037999915425,1,38,test2,1,0.6237770000007004,-52.0
9,pjy,f,19,r,1,(121.76378772032346, -121.76378772032352),28,-5,12,no,m,6,m,1.1656959000101779,1,39,test2,1,1.165946900000563,-52.0
9,pjy,f,19,r,1,(-3.163262682197613e-14, -172.20000000000002),27,-5,12,no,m,6,m,1.1403606999956537,1,40,test2,1,1.140460999973584,-52.0
9,pjy,f,19,r,1,(172.20000000000002, 0.0),21,25,4,yes,x,5,x,0.620670499978587,1,41,test2,1,0.6207705000124406,-20.0
9,pjy,f,19,r,1,(121.76378772032346, -121.76378772032352),28,3,1,no,m,6,m,0.7840175000019372,1,42,test2,1,0.7843037999991793,-20.0
9,pjy,f,19,r,1,(1.0544208940658713e-14, 172.20000000000002),23,25,4,yes,x,5,x,0.5989367000001948,1,43,test2,1,0.5990336000104435,-20.0
9,pjy,f,19,r,1,(-121.76378772032348, 121.76378772032349),24,25,4,yes,x,5,x,0.46097690000897273,1,44,test2,1,0.4615975999913644,-20.0
9,pjy,f,19,r,1,(-121.76378772032348, 121.76378772032349),24,7,3,no,m,6,m,0.878997599997092,1,45,test2,1,0.8791564000130165,-20.0
9,pjy,f,19,r,1,(172.20000000000002, 0.0),21,-5,12,yes,x,5,x,0.9237653999880422,1,46,test2,1,0.9242772999859881,-50.0
9,pjy,f,19,r,1,(-121.76378772032352, -121.76378772032348),26,-5,12,no,m,6,m,0.7892942999897059,1,47,test2,1,0.7896116000192706,-50.0
9,pjy,f,19,r,1,(121.76378772032349, 121.76378772032349),22,-7,13,yes,x,5,x,0.6212865999841597,1,48,test2,1,0.6215913000050932,-52.0
9,pjy,f,19,r,1,(121.76378772032349, 121.76378772032349),22,3,1,no,m,6,m,0.854282799991779,1,49,test2,1,0.8543809000111651,-52.0
9,pjy,f,19,r,1,(121.76378772032349, 121.76378772032349),22,-3,11,yes,x,5,x,0.7844496000034269,1,50,test2,1,0.7847848999954294,-48.0
9,pjy,f,19,r,1,(-121.76378772032352, -121.76378772032348),26,-25,14,no,m,6,m,0.8968342000152916,1,51,test2,1,0.897064999997383,-48.0
9,pjy,f,19,r,1,(121.76378772032349, 121.76378772032349),22,3,1,yes,x,5,m,0.9524466000148095,0,52,test2,1,0.952661800023634,-42.0
9,pjy,f,19,r,1,(-3.163262682197613e-14, -172.20000000000002),27,3,1,yes,x,5,m,1.1693781999929342,0,53,test2,1,1.169610900018597,-42.0
9,pjy,f,19,r,1,(121.76378772032349, 121.76378772032349),22,25,4,yes,x,5,x,0.5034620999940671,1,54,test2,1,0.5036574999976438,-20.0
9,pjy,f,19,r,1,(121.76378772032349, 121.76378772032349),22,-7,13,no,m,6,m,1.2373434000182897,1,55,test2,1,1.237442799989367,-20.0
9,pjy,f,19,r,1,(121.76378772032349, 121.76378772032349),22,-5,12,no,m,6,m,0.9161480999900959,1,56,test2,1,0.9163013999932446,-20.0
9,pjy,f,19,r,1,(172.20000000000002, 0.0),21,-7,13,no,m,6,m,1.091530600009719,1,57,test2,1,1.0920648999745026,-20.0
9,pjy,f,19,r,1,(-3.163262682197613e-14, -172.20000000000002),27,-5,12,yes,x,5,x,1.4324436000024434,1,58,test2,1,1.432811300008325,-50.0
9,pjy,f,19,r,1,(-121.76378772032352, -121.76378772032348),26,-25,14,yes,x,5,x,0.5868198999960441,1,59,test2,1,0.5870460000005551,-70.0
9,pjy,f,19,r,1,(1.0544208940658713e-14, 172.20000000000002),23,-3,11,no,m,6,m,0.8541905999882147,1,60,test2,1,0.8543407999968622,-70.0
9,pjy,f,19,r,1,(-121.76378772032348, 121.76378772032349),24,-3,11,yes,x,5,x,0.955956799996784,1,61,test2,1,0.9561265999800526,-48.0
9,pjy,f,19,r,1,(-3.163262682197613e-14, -172.20000000000002),27,-3,11,yes,x,5,x,0.9490680000162683,1,62,test2,1,0.949164000019664,-48.0
9,pjy,f,19,r,1,(-172.20000000000002, 2.1088417881317425e-14),25,25,4,no,m,6,m,1.0093934999895282,1,63,test2,1,1.009495899983449,-48.0
9,pjy,f,19,r,1,(172.20000000000002, 0.0),21,-25,14,no,m,6,m,1.1491141000005882,1,64,test2,1,1.1492169999983162,-48.0
9,pjy,f,19,r,1,(-172.20000000000002, 2.1088417881317425e-14),25,3,1,yes,x,5,x,1.0285864000034053,1,65,test2,1,1.0288654000032693,-42.0
9,pjy,f,19,r,1,(1.0544208940658713e-14, 172.20000000000002),23,-7,13,yes,x,5,x,0.6803311000112444,1,66,test2,1,0.680604699999094,-52.0
9,pjy,f,19,r,1,(-121.76378772032348, 121.76378772032349),24,5,2,no,m,6,m,0.9574230000143871,1,67,test2,1,0.9576876999926753,-52.0
9,pjy,f,19,r,1,(-172.20000000000002, 2.1088417881317425e-14),25,-3,11,yes,x,5,x,0.7524196000013035,1,68,test2,1,0.7526553999923635,-48.0
9,pjy,f,19,r,1,(1.0544208940658713e-14, 172.20000000000002),23,3,1,yes,x,5,x,0.7902899999753572,1,69,test2,1,0.7904019999841694,-42.0
9,pjy,f,19,r,1,(172.20000000000002, 0.0),21,3,1,yes,x,5,m,0.9943672000081278,0,70,test2,1,0.9945353000075556,-42.0
9,pjy,f,19,r,1,(172.20000000000002, 0.0),21,5,2,no,m,6,m,1.4891572000051383,1,71,test2,1,1.4895333999884315,-42.0
9,pjy,f,19,r,1,(-172.20000000000002, 2.1088417881317425e-14),25,3,1,no,m,6,m,1.5518885999917984,1,72,test2,1,1.5522963000112213,-42.0
9,pjy,f,19,r,1,(-3.163262682197613e-14, -172.20000000000002),27,25,4,no,m,6,m,1.471211200027028,1,73,test2,1,1.4713357000146061,-42.0
9,pjy,f,19,r,1,(-172.20000000000002, 2.1088417881317425e-14),25,-3,11,no,m,6,m,0.9772686999931466,1,74,test2,1,0.9774823000188917,-42.0
9,pjy,f,19,r,1,(172.20000000000002, 0.0),21,7,3,yes,x,5,x,0.6491477000236046,1,75,test2,1,0.6493400000035763,-38.0
9,pjy,f,19,r,1,(-172.20000000000002, 2.1088417881317425e-14),25,25,4,yes,x,5,x,0.5283075999759603,1,76,test2,1,0.5285197999910451,-20.0
9,pjy,f,19,r,1,(-121.76378772032352, -121.76378772032348),26,7,3,yes,x,5,x,0.6449007999908645,1,77,test2,1,0.6450673999788705,-38.0
9,pjy,f,19,r,1,(121.76378772032346, -121.76378772032352),28,-3,11,yes,x,5,x,1.1524732999969274,1,78,test2,1,1.1526750000193715,-48.0
9,pjy,f,19,r,1,(172.20000000000002, 0.0),21,25,4,yes,x,5,x,0.5700804000080097,1,79,test2,1,0.5703713000111748,-20.0
9,pjy,f,19,r,1,(-121.76378772032352, -121.76378772032348),26,25,4,no,m,6,m,1.1854670000029728,1,80,test2,1,1.1856905000167899,-20.0
9,pjy,f,19,r,1,(172.20000000000002, 0.0),21,-7,13,yes,x,5,x,0.6212916999938898,1,81,test2,1,0.6213887000048999,-52.0
9,pjy,f,19,r,1,(172.20000000000002, 0.0),21,-3,11,yes,x,5,x,0.7127106999978423,1,82,test2,1,0.7128113000071608,-48.0
9,pjy,f,19,r,1,(121.76378772032349, 121.76378772032349),22,-5,12,yes,x,5,x,0.6787511000002269,1,83,test2,1,0.6788744000077713,-50.0
9,pjy,f,19,r,1,(121.76378772032349, 121.76378772032349),22,5,2,yes,x,5,x,0.6386184000002686,1,84,test2,1,0.6388414000102784,-40.0
9,pjy,f,19,r,1,(-121.76378772032348, 121.76378772032349),24,5,2,yes,x,5,x,0.5758056999766268,1,85,test2,1,0.5759205000067595,-40.0
9,pjy,f,19,r,1,(172.20000000000002, 0.0),21,5,2,yes,x,5,x,0.6926359999924898,1,86,test2,1,0.6928675000090152,-40.0
9,pjy,f,19,r,1,(-121.76378772032352, -121.76378772032348),26,3,1,no,m,6,m,1.1658026999793947,1,87,test2,1,1.1660198000026867,-40.0
9,pjy,f,19,r,1,(121.76378772032346, -121.76378772032352),28,-25,14,no,m,6,m,1.1995857999718282,1,88,test2,1,1.1997030999918934,-40.0
9,pjy,f,19,r,1,(172.20000000000002, 0.0),21,7,3,yes,x,5,x,0.5687082000076771,1,89,test2,1,0.5689488000061829,-38.0
9,pjy,f,19,r,1,(-121.76378772032352, -121.76378772032348),26,3,1,yes,x,5,x,1.1435039000061806,1,90,test2,1,1.1436200000171084,-42.0
9,pjy,f,19,r,1,(-121.76378772032352, -121.76378772032348),26,-3,11,no,m,6,m,1.0653127999976277,1,91,test2,1,1.0654137999808881,-42.0
9,pjy,f,19,r,1,(-121.76378772032352, -121.76378772032348),26,25,4,yes,x,5,x,0.5940757999778725,1,92,test2,1,0.5943211000121664,-20.0
9,pjy,f,19,r,1,(-3.163262682197613e-14, -172.20000000000002),27,-25,14,no,m,6,m,0.7766908000048716,1,93,test2,1,0.7768220999860205,-20.0
9,pjy,f,19,r,1,(1.0544208940658713e-14, 172.20000000000002),23,5,2,yes,x,5,x,0.7058148999931291,1,94,test2,1,0.706190400000196,-40.0
9,pjy,f,19,r,1,(-172.20000000000002, 2.1088417881317425e-14),25,-3,11,yes,x,5,x,1.4776791000040248,1,95,test2,1,1.4778343999932986,-48.0
9,pjy,f,19,r,1,(121.76378772032349, 121.76378772032349),22,-5,12,yes,x,5,x,0.6229315999953542,1,96,test2,1,0.6230947000149172,-50.0
9,pjy,f,19,r,1,(1.0544208940658713e-14, 172.20000000000002),23,5,2,yes,x,5,x,0.7936545000120532,1,1,test1,2,0.7937530000053812,-40.0
9,pjy,f,19,r,1,(-121.76378772032348, 121.76378772032349),24,7,3,yes,x,5,x,0.5196123000059742,1,2,test1,2,0.5198312000138685,-38.0
9,pjy,f,19,r,1,(-121.76378772032352, -121.76378772032348),26,-5,12,yes,x,5,x,0.58182749999105,1,3,test1,2,0.5819285000034142,-50.0
9,pjy,f,19,r,1,(121.76378772032349, 121.76378772032349),22,3,1,yes,x,5,m,0.7123486999771558,0,4,test1,2,0.7126041000010446,-42.0
9,pjy,f,19,r,1,(-172.20000000000002, 2.1088417881317425e-14),25,7,3,yes,x,5,x,0.4967668000026606,1,5,test1,2,0.4968753000139259,-38.0
9,pjy,f,19,r,1,(1.0544208940658713e-14, 172.20000000000002),23,-25,14,yes,x,5,x,0.5069077000080142,1,6,test1,2,0.5074041000043508,-70.0
9,pjy,f,19,r,1,(172.20000000000002, 0.0),21,3,1,no,m,6,m,0.774313899979461,1,7,test1,2,0.7745380999986082,-70.0
9,pjy,f,19,r,1,(121.76378772032346, -121.76378772032352),28,-3,11,yes,x,5,x,1.2573044000018854,1,8,test1,2,1.2579260999918915,-48.0
9,pjy,f,19,r,1,(121.76378772032346, -121.76378772032352),28,-5,12,yes,x,5,x,0.8904047000105493,1,9,test1,2,0.8907586999994237,-50.0
9,pjy,f,19,r,1,(-3.163262682197613e-14, -172.20000000000002),27,25,4,yes,x,5,x,0.6317593999847304,1,10,test1,2,0.6321946000098251,-20.0
9,pjy,f,19,r,1,(121.76378772032349, 121.76378772032349),22,-25,14,yes,x,5,x,0.5635270999919157,1,11,test1,2,0.5640291000017896,-70.0
9,pjy,f,19,r,1,(121.76378772032349, 121.76378772032349),22,7,3,no,m,6,m,1.1756045000220183,1,12,test1,2,1.1757038999930955,-70.0
9,pjy,f,19,r,1,(-121.76378772032352, -121.76378772032348),26,3,1,yes,x,5,x,0.8321049999794923,1,13,test1,2,0.8323849000153132,-42.0
9,pjy,f,19,r,1,(-3.163262682197613e-14, -172.20000000000002),27,-7,13,no,m,6,m,1.0384619999967981,1,14,test1,2,1.0385624000045937,-42.0
9,pjy,f,19,r,1,(172.20000000000002, 0.0),21,-25,14,yes,x,5,x,0.5737678000004962,1,15,test1,2,0.5740004999970552,-70.0
9,pjy,f,19,r,1,(121.76378772032349, 121.76378772032349),22,-3,11,yes,x,5,x,0.9065141000028234,1,16,test1,2,0.9067454999894835,-48.0
9,pjy,f,19,r,1,(121.76378772032349, 121.76378772032349),22,7,3,yes,x,5,x,0.5355918999994174,1,17,test1,2,0.5356894999858923,-38.0
9,pjy,f,19,r,1,(172.20000000000002, 0.0),21,7,3,no,m,6,m,0.9807761000120081,1,18,test1,2,0.980918199988082,-38.0
9,pjy,f,19,r,1,(-3.163262682197613e-14, -172.20000000000002),27,-25,14,yes,x,5,x,0.5692076999985147,1,19,test1,2,0.5698521000158507,-70.0
9,pjy,f,19,r,1,(172.20000000000002, 0.0),21,-5,12,no,m,6,x,0.8645114000246394,0,20,test1,2,0.864774200017564,-70.0
9,pjy,f,19,r,1,(172.20000000000002, 0.0),21,25,4,no,m,6,m,1.1540715000010096,1,21,test1,2,1.154170099995099,-70.0
9,pjy,f,19,r,1,(-121.76378772032348, 121.76378772032349),24,3,1,no,m,6,m,1.1264043999835849,1,22,test1,2,1.1266999999934342,-70.0
9,pjy,f,19,r,1,(1.0544208940658713e-14, 172.20000000000002),23,7,3,yes,x,5,x,0.6482761999941431,1,23,test1,2,0.6484034000022803,-38.0
9,pjy,f,19,r,1,(-121.76378772032348, 121.76378772032349),24,-25,14,yes,x,5,x,0.589595500001451,1,24,test1,2,0.5897294000023976,-70.0
9,pjy,f,19,r,1,(1.0544208940658713e-14, 172.20000000000002),23,3,1,no,m,6,m,1.0107277999923099,1,25,test1,2,1.0108526999829337,-70.0
9,pjy,f,19,r,1,(121.76378772032346, -121.76378772032352),28,-7,13,yes,x,5,x,0.7169618000043556,1,26,test1,2,0.7170735000108834,-52.0
9,pjy,f,19,r,1,(-121.76378772032348, 121.76378772032349),24,-7,13,no,m,6,m,0.9513403999735601,1,27,test1,2,0.9514401000051294,-52.0
9,pjy,f,19,r,1,(-3.163262682197613e-14, -172.20000000000002),27,3,1,no,m,6,m,0.9683616999827791,1,28,test1,2,0.9689022999955341,-52.0
9,pjy,f,19,r,1,(-172.20000000000002, 2.1088417881317425e-14),25,-25,14,no,m,6,m,1.124902400013525,1,29,test1,2,1.1250407000188716,-52.0
9,pjy,f,19,r,1,(-3.163262682197613e-14, -172.20000000000002),27,3,1,yes,x,5,x,1.3737014000071213,1,30,test1,2,1.3738158000051044,-42.0
9,pjy,f,19,r,1,(1.0544208940658713e-14, 172.20000000000002),23,25,4,yes,x,5,x,0.5719269000110216,1,31,test1,2,0.5720289000018965,-20.0
9,pjy,f,19,r,1,(-172.20000000000002, 2.1088417881317425e-14),25,7,3,yes,x,5,x,0.5326931999879889,1,32,test1,2,0.5329418999899644,-38.0
9,pjy,f,19,r,1,(121.76378772032349, 121.76378772032349),22,5,2,yes,x,5,x,0.7838244999875315,1,33,test1,2,0.7839595000259578,-40.0
9,pjy,f,19,r,1,(121.76378772032349, 121.76378772032349),22,-25,14,yes,x,5,x,0.5835340000048745,1,34,test1,2,0.5836974999983795,-70.0
9,pjy,f,19,r,1,(-121.76378772032352, -121.76378772032348),26,5,2,yes,x,5,x,0.7651180999819189,1,35,test1,2,0.7652217999857385,-40.0
9,pjy,f,19,r,1,(-121.76378772032352, -121.76378772032348),26,7,3,no,m,6,m,0.9078135000017937,1,36,test1,2,0.9082083000103012,-40.0
9,pjy,f,19,r,1,(-121.76378772032348, 121.76378772032349),24,7,3,yes,x,5,x,0.6161950000096112,1,37,test1,2,0.6163333999866154,-38.0
9,pjy,f,19,r,1,(121.76378772032346, -121.76378772032352),28,25,4,no,m,6,m,1.2287979999964591,1,38,test1,2,1.2289171000011265,-38.0
9,pjy,f,19,r,1,(121.76378772032349, 121.76378772032349),22,-25,14,no,m,6,m,1.1480393999954686,1,39,test1,2,1.1481674000096973,-38.0
9,pjy,f,19,r,1,(-172.20000000000002, 2.1088417881317425e-14),25,5,2,yes,x,5,x,0.5438283999974374,1,40,test1,2,0.5439250000054017,-40.0
9,pjy,f,19,r,1,(1.0544208940658713e-14, 172.20000000000002),23,-3,11,yes,x,5,x,0.7142097000032663,1,41,test1,2,0.7144530999939889,-48.0
9,pjy,f,19,r,1,(1.0544208940658713e-14, 172.20000000000002),23,-25,14,no,m,6,m,0.9064844000095036,1,42,test1,2,0.9070193000079598,-48.0
9,pjy,f,19,r,1,(-121.76378772032348, 121.76378772032349),24,-5,12,yes,x,5,x,0.7760502999881282,1,43,test1,2,0.7762203000020236,-50.0
9,pjy,f,19,r,1,(1.0544208940658713e-14, 172.20000000000002),23,-25,14,yes,x,5,x,0.5795577999961097,1,44,test1,2,0.5799867000023369,-70.0
9,pjy,f,19,r,1,(-3.163262682197613e-14, -172.20000000000002),27,-3,11,no,m,6,m,0.8473055999784265,1,45,test1,2,0.8477624999941327,-70.0
9,pjy,f,19,r,1,(-121.76378772032352, -121.76378772032348),26,-7,13,no,m,6,m,0.9701924999826588,1,46,test1,2,0.9705816000059713,-70.0
9,pjy,f,19,r,1,(-121.76378772032348, 121.76378772032349),24,-3,11,yes,x,5,x,0.8594622999953572,1,47,test1,2,0.8596637999871746,-48.0
9,pjy,f,19,r,1,(121.76378772032346, -121.76378772032352),28,-3,11,no,m,6,m,1.1174983000091743,1,48,test1,2,1.1179524000035599,-48.0
9,pjy,f,19,r,1,(-172.20000000000002, 2.1088417881317425e-14),25,25,4,yes,x,5,x,0.641412400000263,1,49,test1,2,0.641646900010528,-20.0
9,pjy,f,19,r,1,(121.76378772032346, -121.76378772032352),28,7,3,no,m,6,m,0.8055021000036504,1,50,test1,2,0.8055952999857254,-20.0
9,pjy,f,19,r,1,(1.0544208940658713e-14, 172.20000000000002),23,-3,11,yes,x,5,x,0.8611134999955539,1,51,test1,2,0.8612164999940433,-48.0
9,pjy,f,19,r,1,(121.76378772032346, -121.76378772032352),28,-25,14,yes,x,5,x,0.5919147999957204,1,52,test1,2,0.5922007999906782,-70.0
9,pjy,f,19,r,1,(121.76378772032346, -121.76378772032352),28,5,2,yes,x,5,x,0.6668034000031184,1,53,test1,2,0.666915899986634,-40.0
9,pjy,f,19,r,1,(-121.76378772032348, 121.76378772032349),24,-5,12,no,m,6,m,0.9209278000053018,1,54,test1,2,0.9215427000017371,-40.0
9,pjy,f,19,r,1,(-172.20000000000002, 2.1088417881317425e-14),25,5,2,yes,x,5,x,0.7505265999934636,1,55,test1,2,0.7506452000234276,-40.0
9,pjy,f,19,r,1,(-121.76378772032348, 121.76378772032349),24,-3,11,no,m,6,m,0.7829815000004601,1,56,test1,2,0.7831056000140961,-40.0
9,pjy,f,19,r,1,(-121.76378772032352, -121.76378772032348),26,7,3,yes,x,5,x,0.7455920999927912,1,57,test1,2,0.7460954999842215,-38.0
9,pjy,f,19,r,1,(-121.76378772032352, -121.76378772032348),26,-3,11,yes,x,5,x,1.0095514999993611,1,58,test1,2,1.009873000002699,-48.0
9,pjy,f,19,r,1,(-121.76378772032352, -121.76378772032348),26,-3,11,yes,x,5,x,0.803074800001923,1,59,test1,2,0.803308799979277,-48.0
9,pjy,f,19,r,1,(-172.20000000000002, 2.1088417881317425e-14),25,-5,12,yes,x,5,x,0.730717900005402,1,60,test1,2,0.7311761000019033,-50.0
9,pjy,f,19,r,1,(1.0544208940658713e-14, 172.20000000000002),23,25,4,no,m,6,m,0.9306653999956325,1,61,test1,2,0.9307930000068154,-50.0
9,pjy,f,19,r,1,(1.0544208940658713e-14, 172.20000000000002),23,-5,12,yes,x,5,x,0.6381856000225525,1,62,test1,2,0.6382841000158805,-50.0
9,pjy,f,19,r,1,(-3.163262682197613e-14, -172.20000000000002),27,7,3,no,m,6,m,0.8341301000036765,1,63,test1,2,0.834383399982471,-50.0
9,pjy,f,19,r,1,(-172.20000000000002, 2.1088417881317425e-14),25,7,3,no,m,6,m,0.9444697000144515,1,64,test1,2,0.9449195999768563,-50.0
9,pjy,f,19,r,1,(172.20000000000002, 0.0),21,5,2,yes,x,5,x,0.6838493999966886,1,65,test1,2,0.6839515999890864,-40.0
9,pjy,f,19,r,1,(-3.163262682197613e-14, -172.20000000000002),27,5,2,yes,x,5,x,0.7897247000073548,1,66,test1,2,0.7898369999893475,-40.0
9,pjy,f,19,r,1,(-3.163262682197613e-14, -172.20000000000002),27,-25,14,yes,x,5,x,0.5721681000140961,1,67,test1,2,0.5725062999990769,-70.0
9,pjy,f,19,r,1,(172.20000000000002, 0.0),21,-3,11,no,m,6,m,0.7874480000173207,1,68,test1,2,0.7875694000103977,-70.0
9,pjy,f,19,r,1,(1.0544208940658713e-14, 172.20000000000002),23,-5,12,no,m,6,m,0.9929644000076223,1,69,test1,2,0.9932860000117216,-70.0
9,pjy,f,19,r,1,(-3.163262682197613e-14, -172.20000000000002),27,-7,13,yes,x,5,x,0.592722400004277,1,70,test1,2,0.5932605999987572,-52.0
9,pjy,f,19,r,1,(121.76378772032346, -121.76378772032352),28,-5,12,yes,x,5,x,0.8001252999820281,1,71,test1,2,0.8002254000166431,-50.0
9,pjy,f,19,r,1,(-121.76378772032352, -121.76378772032348),26,5,2,yes,x,5,x,0.7574200999806635,1,72,test1,2,0.7577629000006709,-40.0
9,pjy,f,19,r,1,(-172.20000000000002, 2.1088417881317425e-14),25,-7,13,yes,x,5,x,0.6074460999807343,1,73,test1,2,0.607546099985484,-52.0
9,pjy,f,19,r,1,(172.20000000000002, 0.0),21,-3,11,yes,x,5,x,0.8223581000056583,1,74,test1,2,0.822593599994434,-48.0
9,pjy,f,19,r,1,(1.0544208940658713e-14, 172.20000000000002),23,7,3,yes,x,5,x,0.6389014000014868,1,75,test1,2,0.6391868000209797,-38.0
9,pjy,f,19,r,1,(-172.20000000000002, 2.1088417881317425e-14),25,-25,14,yes,x,5,x,0.5992331000161357,1,76,test1,2,0.5998151000239886,-70.0
9,pjy,f,19,r,1,(-3.163262682197613e-14, -172.20000000000002),27,25,4,yes,x,5,x,0.6783631999860518,1,77,test1,2,0.6786956999858376,-20.0
9,pjy,f,19,r,1,(121.76378772032346, -121.76378772032352),28,-7,13,no,m,6,m,0.7348760000022594,1,78,test1,2,0.7351153999916278,-20.0
9,pjy,f,19,r,1,(-172.20000000000002, 2.1088417881317425e-14),25,-7,13,no,m,6,m,0.8976677999889944,1,79,test1,2,0.8977701000112575,-20.0
9,pjy,f,19,r,1,(-3.163262682197613e-14, -172.20000000000002),27,-3,11,yes,x,5,x,0.8230833999987226,1,80,test1,2,0.8234035999921616,-48.0
9,pjy,f,19,r,1,(121.76378772032349, 121.76378772032349),22,-3,11,no,m,6,m,0.883913500001654,1,81,test1,2,0.8841428000014275,-48.0
9,pjy,f,19,r,1,(-3.163262682197613e-14, -172.20000000000002),27,7,3,yes,x,5,x,0.6349081000080332,1,82,test1,2,0.6352112999884412,-38.0
9,pjy,f,19,r,1,(121.76378772032349, 121.76378772032349),22,25,4,no,m,6,m,0.8182914000062738,1,83,test1,2,0.8184130000008736,-38.0
9,pjy,f,19,r,1,(-121.76378772032352, -121.76378772032348),26,-25,14,yes,x,5,x,0.5805678999749944,1,84,test1,2,0.580721900012577,-70.0
9,pjy,f,19,r,1,(-121.76378772032352, -121.76378772032348),26,-5,12,yes,x,5,x,0.8683251999900676,1,85,test1,2,0.8684259000001475,-50.0
9,pjy,f,19,r,1,(1.0544208940658713e-14, 172.20000000000002),23,7,3,no,m,6,m,0.8404331999772694,1,86,test1,2,0.8406434999778867,-50.0
9,pjy,f,19,r,1,(1.0544208940658713e-14, 172.20000000000002),23,5,2,no,m,6,m,0.8437012000067625,1,87,test1,2,0.843935800017789,-50.0
9,pjy,f,19,r,1,(1.0544208940658713e-14, 172.20000000000002),23,-7,13,no,m,6,m,1.0000742000120226,1,88,test1,2,1.0003043999895453,-50.0
9,pjy,f,19,r,1,(121.76378772032349, 121.76378772032349),22,5,2,no,m,6,m,0.6745965000009164,1,89,test1,2,0.6747100000211503,-50.0
9,pjy,f,19,r,1,(121.76378772032349, 121.76378772032349),22,25,4,yes,x,5,x,0.5233901000174228,1,90,test1,2,0.5240519999933895,-20.0
9,pjy,f,19,r,1,(-3.163262682197613e-14, -172.20000000000002),27,-7,13,yes,x,5,x,0.6342838999989908,1,91,test1,2,0.6344291999994311,-52.0
9,pjy,f,19,r,1,(-121.76378772032352, -121.76378772032348),26,25,4,yes,x,5,x,0.562102900003083,1,92,test1,2,0.5622141000058036,-20.0
9,pjy,f,19,r,1,(1.0544208940658713e-14, 172.20000000000002),23,-7,13,yes,x,5,x,0.6075192999851424,1,93,test1,2,0.6078660000057425,-52.0
9,pjy,f,19,r,1,(-172.20000000000002, 2.1088417881317425e-14),25,-5,12,no,m,6,m,0.806226799992146,1,94,test1,2,0.8065207999898121,-52.0
9,pjy,f,19,r,1,(-121.76378772032348, 121.76378772032349),24,3,1,yes,x,5,x,0.684997000003932,1,95,test1,2,0.6852396999893244,-42.0
9,pjy,f,19,r,1,(-172.20000000000002, 2.1088417881317425e-14),25,-7,13,yes,x,5,x,0.6002332999778446,1,96,test1,2,0.6003614999935962,-52.0
9,pjy,f,19,r,1,(-3.163262682197613e-14, -172.20000000000002),27,5,2,no,m,6,m,1.562134599982528,1,1,test2,2,1.5623681000142824,-52.0
9,pjy,f,19,r,1,(-121.76378772032348, 121.76378772032349),24,3,1,yes,x,5,x,0.662410600023577,1,2,test2,2,0.6625364999927115,-42.0
9,pjy,f,19,r,1,(-3.163262682197613e-14, -172.20000000000002),27,7,3,yes,x,5,x,0.5925952999969013,1,3,test2,2,0.5927206999913324,-38.0
9,pjy,f,19,r,1,(172.20000000000002, 0.0),21,-25,14,yes,x,5,x,0.5582201999786776,1,4,test2,2,0.5584183000028133,-70.0
9,pjy,f,19,r,1,(-172.20000000000002, 2.1088417881317425e-14),25,3,1,yes,x,5,x,0.6920256000012159,1,5,test2,2,0.6922603999846615,-42.0
9,pjy,f,19,r,1,(121.76378772032346, -121.76378772032352),28,5,2,yes,x,5,x,1.0830328000010923,1,6,test2,2,1.0831592000031378,-40.0
9,pjy,f,19,r,1,(-3.163262682197613e-14, -172.20000000000002),27,5,2,yes,x,5,x,0.6560014999995474,1,7,test2,2,0.6562955999979749,-40.0
9,pjy,f,19,r,1,(-172.20000000000002, 2.1088417881317425e-14),25,-25,14,yes,x,5,x,0.5932508999831043,1,8,test2,2,0.5939451000012923,-70.0
9,pjy,f,19,r,1,(121.76378772032346, -121.76378772032352),28,25,4,yes,x,5,x,0.5896896999911405,1,9,test2,2,0.5898391999944579,-20.0
9,pjy,f,19,r,1,(172.20000000000002, 0.0),21,-5,12,yes,x,5,x,0.6539885999809485,1,10,test2,2,0.6541454999824055,-50.0
9,pjy,f,19,r,1,(-121.76378772032348, 121.76378772032349),24,-7,13,yes,x,5,x,0.5247251999971922,1,11,test2,2,0.5248846000176854,-52.0
9,pjy,f,19,r,1,(-121.76378772032348, 121.76378772032349),24,-25,14,yes,x,5,x,0.4711451999901328,1,12,test2,2,0.4712594000156969,-70.0
9,pjy,f,19,r,1,(121.76378772032346, -121.76378772032352),28,25,4,yes,x,5,x,0.5383513999986462,1,13,test2,2,0.5384473000012804,-20.0
9,pjy,f,19,r,1,(-121.76378772032348, 121.76378772032349),24,-5,12,yes,x,5,x,0.6288419000047725,1,14,test2,2,0.6289710999990348,-50.0
9,pjy,f,19,r,1,(-172.20000000000002, 2.1088417881317425e-14),25,-5,12,yes,x,5,x,0.6988379999820609,1,15,test2,2,0.6990007999993395,-50.0
9,pjy,f,19,r,1,(121.76378772032346, -121.76378772032352),28,7,3,yes,x,5,x,0.6758755999908317,1,16,test2,2,0.6759781999862753,-38.0
9,pjy,f,19,r,1,(121.76378772032349, 121.76378772032349),22,7,3,yes,x,5,x,0.6331746999931056,1,17,test2,2,0.63404899998568,-38.0
9,pjy,f,19,r,1,(1.0544208940658713e-14, 172.20000000000002),23,3,1,yes,x,5,m,1.154423100000713,0,18,test2,2,1.1545220999978483,-42.0
9,pjy,f,19,r,1,(121.76378772032346, -121.76378772032352),28,3,1,yes,x,5,x,1.1871879000100307,1,19,test2,2,1.187321899982635,-42.0
9,pjy,f,19,r,1,(172.20000000000002, 0.0),21,-7,13,yes,x,5,x,0.6813017000094987,1,20,test2,2,0.6814354999805801,-52.0
9,pjy,f,19,r,1,(-121.76378772032352, -121.76378772032348),26,5,2,no,m,6,m,0.9654929999960586,1,21,test2,2,0.9656118999992032,-52.0
9,pjy,f,19,r,1,(-121.76378772032348, 121.76378772032349),24,-25,14,no,m,6,m,1.2028072999964934,1,22,test2,2,1.2029743999883067,-52.0
9,pjy,f,19,r,1,(-121.76378772032352, -121.76378772032348),26,-7,13,yes,x,5,x,0.8725276000041049,1,23,test2,2,0.8728062000009231,-52.0
9,pjy,f,19,r,1,(-121.76378772032348, 121.76378772032349),24,25,4,yes,x,5,x,0.6253290000022389,1,24,test2,2,0.6254500999930315,-20.0
9,pjy,f,19,r,1,(121.76378772032346, -121.76378772032352),28,5,2,no,m,6,m,0.8887775000184774,1,25,test2,2,0.889074900012929,-20.0
9,pjy,f,19,r,1,(-172.20000000000002, 2.1088417881317425e-14),25,5,2,no,m,6,m,0.837770999991335,1,26,test2,2,0.8383120000071358,-20.0
9,pjy,f,19,r,1,(121.76378772032349, 121.76378772032349),22,-7,13,yes,x,5,x,0.7186769999971148,1,27,test2,2,0.7197660999954678,-52.0
9,pjy,f,19,r,1,(1.0544208940658713e-14, 172.20000000000002),23,-5,12,yes,x,5,x,0.6452275999763515,1,28,test2,2,0.6453873999998905,-50.0
9,pjy,f,19,r,1,(-3.163262682197613e-14, -172.20000000000002),27,-5,12,yes,x,5,x,0.7945572000171524,1,29,test2,2,0.7946583000011742,-50.0
9,pjy,f,19,r,1,(-121.76378772032348, 121.76378772032349),24,-7,13,yes,x,5,x,0.7274908000254072,1,30,test2,2,0.7277116000186652,-52.0
9,pjy,f,19,r,1,(121.76378772032346, -121.76378772032352),28,-25,14,yes,x,5,x,0.5831343999889214,1,31,test2,2,0.5832380999927409,-70.0
9,pjy,f,19,r,1,(172.20000000000002, 0.0),21,3,1,yes,x,5,m,1.2279519999865443,0,32,test2,2,1.22823690000223,-42.0
9,pjy,f,19,r,1,(-121.76378772032348, 121.76378772032349),24,25,4,no,m,6,m,1.2030989999766462,1,33,test2,2,1.203321099979803,-42.0
9,pjy,f,19,r,1,(121.76378772032346, -121.76378772032352),28,7,3,yes,x,5,x,0.739869400014868,1,34,test2,2,0.7399839999852702,-38.0
9,pjy,f,19,r,1,(-121.76378772032348, 121.76378772032349),24,5,2,yes,x,5,x,0.6785183000029065,1,35,test2,2,0.678797200002009,-40.0
9,pjy,f,19,r,1,(121.76378772032346, -121.76378772032352),28,3,1,yes,x,5,x,0.8518206999870017,1,36,test2,2,0.8520466999907512,-42.0
9,pjy,f,19,r,1,(-121.76378772032352, -121.76378772032348),26,-7,13,yes,x,5,x,0.6285852000000887,1,37,test2,2,0.6287128999829292,-52.0
9,pjy,f,19,r,1,(121.76378772032346, -121.76378772032352),28,-7,13,yes,x,5,x,0.6556534999981523,1,38,test2,2,0.6558756000013091,-52.0
9,pjy,f,19,r,1,(121.76378772032346, -121.76378772032352),28,-5,12,no,m,6,m,0.9746224000118673,1,39,test2,2,0.9747506999992765,-52.0
9,pjy,f,19,r,1,(-3.163262682197613e-14, -172.20000000000002),27,-5,12,no,m,6,m,1.152696700009983,1,40,test2,2,1.152919699990889,-52.0
9,pjy,f,19,r,1,(172.20000000000002, 0.0),21,25,4,yes,x,5,x,0.6785606000048574,1,41,test2,2,0.678699099982623,-20.0
9,pjy,f,19,r,1,(121.76378772032346, -121.76378772032352),28,3,1,no,m,6,m,0.7824801999959163,1,42,test2,2,0.7827143000031356,-20.0
9,pjy,f,19,r,1,(1.0544208940658713e-14, 172.20000000000002),23,25,4,yes,x,5,x,0.6410851000109687,1,43,test2,2,0.6413095999741927,-20.0
9,pjy,f,19,r,1,(-121.76378772032348, 121.76378772032349),24,25,4,yes,x,5,x,0.5539668000128586,1,44,test2,2,0.5540973999886774,-20.0
9,pjy,f,19,r,1,(-121.76378772032348, 121.76378772032349),24,7,3,no,m,6,m,0.8739846000098623,1,45,test2,2,0.8745174999930896,-20.0
9,pjy,f,19,r,1,(172.20000000000002, 0.0),21,-5,12,yes,x,5,x,0.6355001000047196,1,46,test2,2,0.6361136000195984,-50.0
9,pjy,f,19,r,1,(-121.76378772032352, -121.76378772032348),26,-5,12,no,m,6,m,0.9196552000066731,1,47,test2,2,0.9198141999950167,-50.0
9,pjy,f,19,r,1,(121.76378772032349, 121.76378772032349),22,-7,13,yes,x,5,x,0.664019299991196,1,48,test2,2,0.6643233000067994,-52.0
9,pjy,f,19,r,1,(121.76378772032349, 121.76378772032349),22,3,1,no,m,6,m,0.8746991999796592,1,49,test2,2,0.8749067000171635,-52.0
9,pjy,f,19,r,1,(121.76378772032349, 121.76378772032349),22,-3,11,yes,x,5,x,0.6875097999873105,1,50,test2,2,0.6878727000148501,-48.0
9,pjy,f,19,r,1,(-121.76378772032352, -121.76378772032348),26,-25,14,no,m,6,m,0.8868961000116542,1,51,test2,2,0.8870610999874771,-48.0
9,pjy,f,19,r,1,(121.76378772032349, 121.76378772032349),22,3,1,yes,x,5,x,1.333338399999775,1,52,test2,2,1.3334382000030018,-42.0
9,pjy,f,19,r,1,(-3.163262682197613e-14, -172.20000000000002),27,3,1,yes,x,5,m,1.0264882999763358,0,53,test2,2,1.0266909999772906,-42.0
9,pjy,f,19,r,1,(121.76378772032349, 121.76378772032349),22,25,4,yes,x,5,x,0.557146900013322,1,54,test2,2,0.5572685000079218,-20.0
9,pjy,f,19,r,1,(121.76378772032349, 121.76378772032349),22,-7,13,no,m,6,m,1.2609443000110332,1,55,test2,2,1.261261600011494,-20.0
9,pjy,f,19,r,1,(121.76378772032349, 121.76378772032349),22,-5,12,no,m,6,m,0.770998599997256,1,56,test2,2,0.7711209999979474,-20.0
9,pjy,f,19,r,1,(172.20000000000002, 0.0),21,-7,13,no,m,6,m,0.9404384999943431,1,57,test2,2,0.9405538999999408,-20.0
9,pjy,f,19,r,1,(-3.163262682197613e-14, -172.20000000000002),27,-5,12,yes,x,5,x,0.717666399985319,1,58,test2,2,0.7177680000022519,-50.0
9,pjy,f,19,r,1,(-121.76378772032352, -121.76378772032348),26,-25,14,yes,x,5,x,0.5646291000011843,1,59,test2,2,0.5647411000099964,-70.0
9,pjy,f,19,r,1,(1.0544208940658713e-14, 172.20000000000002),23,-3,11,no,m,6,m,0.8761905999854207,1,60,test2,2,0.8763054999872111,-70.0
9,pjy,f,19,r,1,(-121.76378772032348, 121.76378772032349),24,-3,11,yes,x,5,x,1.2653143999923486,1,61,test2,2,1.265518100000918,-48.0
9,pjy,f,19,r,1,(-3.163262682197613e-14, -172.20000000000002),27,-3,11,yes,x,5,x,0.9044439000135753,1,62,test2,2,0.9045458000036888,-48.0
9,pjy,f,19,r,1,(-172.20000000000002, 2.1088417881317425e-14),25,25,4,no,m,6,m,0.8049072999856435,1,63,test2,2,0.8050249999796506,-48.0
9,pjy,f,19,r,1,(172.20000000000002, 0.0),21,-25,14,no,m,6,m,0.9268772999930661,1,64,test2,2,0.9271114000002854,-48.0
9,pjy,f,19,r,1,(-172.20000000000002, 2.1088417881317425e-14),25,3,1,yes,x,5,x,0.602018900011899,1,65,test2,2,0.6021346999914385,-42.0
9,pjy,f,19,r,1,(1.0544208940658713e-14, 172.20000000000002),23,-7,13,yes,x,5,x,0.6922800000174902,1,66,test2,2,0.6925209000182804,-52.0
9,pjy,f,19,r,1,(-121.76378772032348, 121.76378772032349),24,5,2,no,m,6,m,0.9402170999965165,1,67,test2,2,0.9407822999928612,-52.0
9,pjy,f,19,r,1,(-172.20000000000002, 2.1088417881317425e-14),25,-3,11,yes,x,5,x,0.7276965000201017,1,68,test2,2,0.7277977999765426,-48.0
9,pjy,f,19,r,1,(1.0544208940658713e-14, 172.20000000000002),23,3,1,yes,x,5,m,1.1331522000255063,0,69,test2,2,1.133406400011154,-42.0
9,pjy,f,19,r,1,(172.20000000000002, 0.0),21,3,1,yes,x,5,x,1.5114399000012781,1,70,test2,2,1.5115749999822583,-42.0
9,pjy,f,19,r,1,(172.20000000000002, 0.0),21,5,2,no,m,6,m,1.4507477000006475,1,71,test2,2,1.450871000008192,-42.0
9,pjy,f,19,r,1,(-172.20000000000002, 2.1088417881317425e-14),25,3,1,no,m,6,x,1.3706586000043899,0,72,test2,2,1.3707743999839295,-42.0
9,pjy,f,19,r,1,(-3.163262682197613e-14, -172.20000000000002),27,25,4,no,m,6,m,1.0802691999997478,1,73,test2,2,1.080665300018154,-42.0
9,pjy,f,19,r,1,(-172.20000000000002, 2.1088417881317425e-14),25,-3,11,no,m,6,m,1.1128940999915358,1,74,test2,2,1.1130278000200633,-42.0
9,pjy,f,19,r,1,(172.20000000000002, 0.0),21,7,3,yes,x,5,x,0.6348563999927137,1,75,test2,2,0.6353643999900669,-38.0
9,pjy,f,19,r,1,(-172.20000000000002, 2.1088417881317425e-14),25,25,4,yes,x,5,x,0.53317410001182,1,76,test2,2,0.5333946000027936,-20.0
9,pjy,f,19,r,1,(-121.76378772032352, -121.76378772032348),26,7,3,yes,x,5,x,0.7657806999923196,1,77,test2,2,0.7660697000101209,-38.0
9,pjy,f,19,r,1,(121.76378772032346, -121.76378772032352),28,-3,11,yes,x,5,x,1.148230799997691,1,78,test2,2,1.1486162000219338,-48.0
9,pjy,f,19,r,1,(172.20000000000002, 0.0),21,25,4,yes,x,5,x,0.5241838000074495,1,79,test2,2,0.5243099000072107,-20.0
9,pjy,f,19,r,1,(-121.76378772032352, -121.76378772032348),26,25,4,no,m,6,m,0.8970941999868955,1,80,test2,2,0.8972782999917399,-20.0
9,pjy,f,19,r,1,(172.20000000000002, 0.0),21,-7,13,yes,x,5,x,0.7265722999873105,1,81,test2,2,0.72672030000831,-52.0
9,pjy,f,19,r,1,(172.20000000000002, 0.0),21,-3,11,yes,x,5,x,0.6576170999906026,1,82,test2,2,0.6577281999925617,-48.0
9,pjy,f,19,r,1,(121.76378772032349, 121.76378772032349),22,-5,12,yes,x,5,x,0.604061099991668,1,83,test2,2,0.6042145999963395,-50.0
9,pjy,f,19,r,1,(121.76378772032349, 121.76378772032349),22,5,2,yes,x,5,x,0.6802631999889854,1,84,test2,2,0.6805702999990899,-40.0
9,pjy,f,19,r,1,(-121.76378772032348, 121.76378772032349),24,5,2,yes,x,5,x,0.6904716000135522,1,85,test2,2,0.6907020000217017,-40.0
9,pjy,f,19,r,1,(172.20000000000002, 0.0),21,5,2,yes,x,5,x,0.8983976000163238,1,86,test2,2,0.8984944999974687,-40.0
9,pjy,f,19,r,1,(-121.76378772032352, -121.76378772032348),26,3,1,no,m,6,m,1.2240079999901354,1,87,test2,2,1.2244685999758076,-40.0
9,pjy,f,19,r,1,(121.76378772032346, -121.76378772032352),28,-25,14,no,m,6,m,1.2152841000061017,1,88,test2,2,1.2153802000102587,-40.0
9,pjy,f,19,r,1,(172.20000000000002, 0.0),21,7,3,yes,x,5,x,0.6293143999937456,1,89,test2,2,0.6295530999777839,-38.0
9,pjy,f,19,r,1,(-121.76378772032352, -121.76378772032348),26,3,1,yes,x,5,x,1.0962871999945492,1,90,test2,2,1.0963895999884699,-42.0
9,pjy,f,19,r,1,(-121.76378772032352, -121.76378772032348),26,-3,11,no,m,6,m,0.9219501999905333,1,91,test2,2,0.9220814000000246,-42.0
9,pjy,f,19,r,1,(-121.76378772032352, -121.76378772032348),26,25,4,yes,x,5,x,0.551764900010312,1,92,test2,2,0.5518902000039816,-20.0
9,pjy,f,19,r,1,(-3.163262682197613e-14, -172.20000000000002),27,-25,14,no,m,6,x,1.3625623999978416,0,93,test2,2,1.36308260000078,-20.0
9,pjy,f,19,r,1,(1.0544208940658713e-14, 172.20000000000002),23,5,2,yes,x,5,x,0.7052988999930676,1,94,test2,2,0.7055288999981713,-40.0
9,pjy,f,19,r,1,(-172.20000000000002, 2.1088417881317425e-14),25,-3,11,yes,x,5,x,0.7994670999760274,1,95,test2,2,0.7999133999983314,-48.0
9,pjy,f,19,r,1,(121.76378772032349, 121.76378772032349),22,-5,12,yes,x,5,x,0.6839346999768168,1,96,test2,2,0.6840322999923956,-50.0
9,pjy,f,19,r,1,(1.0544208940658713e-14, 172.20000000000002),23,5,2,yes,x,5,x,0.6641723999928217,1,1,test1,3,0.6642858000122942,-40.0
9,pjy,f,19,r,1,(-121.76378772032348, 121.76378772032349),24,7,3,yes,x,5,x,0.4621784999908414,1,2,test1,3,0.4622793000016827,-38.0
9,pjy,f,19,r,1,(-121.76378772032352, -121.76378772032348),26,-5,12,yes,x,5,x,0.5486901999975089,1,3,test1,3,0.5489411000162363,-50.0
9,pjy,f,19,r,1,(121.76378772032349, 121.76378772032349),22,3,1,yes,x,5,m,0.9369409999926575,0,4,test1,3,0.937571599992225,-42.0
9,pjy,f,19,r,1,(-172.20000000000002, 2.1088417881317425e-14),25,7,3,yes,x,5,x,0.5221167000127025,1,5,test1,3,0.5222126000153366,-38.0
9,pjy,f,19,r,1,(1.0544208940658713e-14, 172.20000000000002),23,-25,14,yes,x,5,x,0.47171919999527745,1,6,test1,3,0.4720649999799207,-70.0
9,pjy,f,19,r,1,(172.20000000000002, 0.0),21,3,1,no,m,6,m,0.886808800016297,1,7,test1,3,0.8870682999840938,-70.0
9,pjy,f,19,r,1,(121.76378772032346, -121.76378772032352),28,-3,11,yes,x,5,x,0.9528269000002183,1,8,test1,3,0.952946699981112,-48.0
9,pjy,f,19,r,1,(121.76378772032346, -121.76378772032352),28,-5,12,yes,x,5,x,0.7116014999919571,1,9,test1,3,0.7117585000232793,-50.0
9,pjy,f,19,r,1,(-3.163262682197613e-14, -172.20000000000002),27,25,4,yes,x,5,x,0.4413070000009611,1,10,test1,3,0.4416059000068344,-20.0
9,pjy,f,19,r,1,(121.76378772032349, 121.76378772032349),22,-25,14,yes,x,5,x,0.47466249999706633,1,11,test1,3,0.47478119999868795,-70.0
9,pjy,f,19,r,1,(121.76378772032349, 121.76378772032349),22,7,3,no,m,6,m,1.0393000999756623,1,12,test1,3,1.039537399978144,-70.0
9,pjy,f,19,r,1,(-121.76378772032352, -121.76378772032348),26,3,1,yes,x,5,x,1.0505425999872386,1,13,test1,3,1.0506601000088267,-42.0
9,pjy,f,19,r,1,(-3.163262682197613e-14, -172.20000000000002),27,-7,13,no,m,6,m,1.439455599989742,1,14,test1,3,1.4398398000048473,-42.0
9,pjy,f,19,r,1,(172.20000000000002, 0.0),21,-25,14,yes,x,5,x,0.585727899975609,1,15,test1,3,0.5859799000027124,-70.0
9,pjy,f,19,r,1,(121.76378772032349, 121.76378772032349),22,-3,11,yes,x,5,x,0.8092213000054471,1,16,test1,3,0.8093183000164572,-48.0
9,pjy,f,19,r,1,(121.76378772032349, 121.76378772032349),22,7,3,yes,x,5,x,0.5763914999843109,1,17,test1,3,0.5766171000141185,-38.0
9,pjy,f,19,r,1,(172.20000000000002, 0.0),21,7,3,no,m,6,m,1.0428188999940176,1,18,test1,3,1.042947899986757,-38.0
9,pjy,f,19,r,1,(-3.163262682197613e-14, -172.20000000000002),27,-25,14,yes,x,5,x,0.6464700999786146,1,19,test1,3,0.646886500006076,-70.0
9,pjy,f,19,r,1,(172.20000000000002, 0.0),21,-5,12,no,m,6,m,0.9203676999895833,1,20,test1,3,0.9204897000163328,-70.0
9,pjy,f,19,r,1,(172.20000000000002, 0.0),21,25,4,no,m,6,m,1.0582756000221707,1,21,test1,3,1.0586805999919306,-70.0
9,pjy,f,19,r,1,(-121.76378772032348, 121.76378772032349),24,3,1,no,m,6,m,0.9746512999990955,1,22,test1,3,0.9748012000054587,-70.0
9,pjy,f,19,r,1,(1.0544208940658713e-14, 172.20000000000002),23,7,3,yes,x,5,x,0.6562621999764815,1,23,test1,3,0.6566404000041075,-38.0
9,pjy,f,19,r,1,(-121.76378772032348, 121.76378772032349),24,-25,14,yes,x,5,x,0.6836695999954827,1,24,test1,3,0.6839074000017717,-70.0
9,pjy,f,19,r,1,(1.0544208940658713e-14, 172.20000000000002),23,3,1,no,m,6,m,0.810352000000421,1,25,test1,3,0.8105978000094183,-70.0
9,pjy,f,19,r,1,(121.76378772032346, -121.76378772032352),28,-7,13,yes,x,5,x,0.7179391000245232,1,26,test1,3,0.7180348999972921,-52.0
9,pjy,f,19,r,1,(-121.76378772032348, 121.76378772032349),24,-7,13,no,m,6,m,0.8196133000019472,1,27,test1,3,0.819816000002902,-52.0
9,pjy,f,19,r,1,(-3.163262682197613e-14, -172.20000000000002),27,3,1,no,m,6,m,0.8398500999901444,1,28,test1,3,0.8401663999829907,-52.0
9,pjy,f,19,r,1,(-172.20000000000002, 2.1088417881317425e-14),25,-25,14,no,m,6,m,0.8906499000149779,1,29,test1,3,0.8911356000171509,-52.0
9,pjy,f,19,r,1,(-3.163262682197613e-14, -172.20000000000002),27,3,1,yes,x,5,x,0.8923054000188131,1,30,test1,3,0.8924199000175577,-42.0
9,pjy,f,19,r,1,(1.0544208940658713e-14, 172.20000000000002),23,25,4,yes,x,5,x,0.5663699000142515,1,31,test1,3,0.5670624999911524,-20.0
9,pjy,f,19,r,1,(-172.20000000000002, 2.1088417881317425e-14),25,7,3,yes,x,5,x,0.5001138999941759,1,32,test1,3,0.5003912000101991,-38.0
9,pjy,f,19,r,1,(121.76378772032349, 121.76378772032349),22,5,2,yes,x,5,x,0.6746506000054069,1,33,test1,3,0.6748866999987513,-40.0
9,pjy,f,19,r,1,(121.76378772032349, 121.76378772032349),22,-25,14,yes,x,5,x,0.6078093000105582,1,34,test1,3,0.6080320000182837,-70.0
9,pjy,f,19,r,1,(-121.76378772032352, -121.76378772032348),26,5,2,yes,x,5,x,0.686599299981026,1,35,test1,3,0.6867868999834172,-40.0
9,pjy,f,19,r,1,(-121.76378772032352, -121.76378772032348),26,7,3,no,m,6,m,1.0998224999930244,1,36,test1,3,1.100349800020922,-40.0
9,pjy,f,19,r,1,(-121.76378772032348, 121.76378772032349),24,7,3,yes,x,5,x,0.5472362999862526,1,37,test1,3,0.5473354999849107,-38.0
9,pjy,f,19,r,1,(121.76378772032346, -121.76378772032352),28,25,4,no,m,6,m,0.9683399999921676,1,38,test1,3,0.9685064000077546,-38.0
9,pjy,f,19,r,1,(121.76378772032349, 121.76378772032349),22,-25,14,no,m,6,m,1.2647268000000622,1,39,test1,3,1.26499120000517,-38.0
9,pjy,f,19,r,1,(-172.20000000000002, 2.1088417881317425e-14),25,5,2,yes,x,5,x,0.6775489999854472,1,40,test1,3,0.6778201000124682,-40.0
9,pjy,f,19,r,1,(1.0544208940658713e-14, 172.20000000000002),23,-3,11,yes,x,5,x,0.6355481999926269,1,41,test1,3,0.6356641000020318,-48.0
9,pjy,f,19,r,1,(1.0544208940658713e-14, 172.20000000000002),23,-25,14,no,m,6,m,1.0645241999882273,1,42,test1,3,1.0647381999879144,-48.0
9,pjy,f,19,r,1,(-121.76378772032348, 121.76378772032349),24,-5,12,yes,x,5,x,0.6949817000131588,1,43,test1,3,0.6951103999745101,-50.0
9,pjy,f,19,r,1,(1.0544208940658713e-14, 172.20000000000002),23,-25,14,yes,x,5,x,0.5472842000017408,1,44,test1,3,0.5475255000055768,-70.0
9,pjy,f,19,r,1,(-3.163262682197613e-14, -172.20000000000002),27,-3,11,no,m,6,m,1.0874963999958709,1,45,test1,3,1.0876090000092518,-70.0
9,pjy,f,19,r,1,(-121.76378772032352, -121.76378772032348),26,-7,13,no,m,6,m,1.249577800015686,1,46,test1,3,1.249691700009862,-70.0
9,pjy,f,19,r,1,(-121.76378772032348, 121.76378772032349),24,-3,11,yes,x,5,x,0.5904607999837026,1,47,test1,3,0.5907565999950748,-48.0
9,pjy,f,19,r,1,(121.76378772032346, -121.76378772032352),28,-3,11,no,m,6,m,0.9657948999956716,1,48,test1,3,0.9659072000067681,-48.0
9,pjy,f,19,r,1,(-172.20000000000002, 2.1088417881317425e-14),25,25,4,yes,x,5,x,0.5406928000156768,1,49,test1,3,0.5407916000112891,-20.0
9,pjy,f,19,r,1,(121.76378772032346, -121.76378772032352),28,7,3,no,m,6,m,0.9941651000117417,1,50,test1,3,0.994479599990882,-20.0
9,pjy,f,19,r,1,(1.0544208940658713e-14, 172.20000000000002),23,-3,11,yes,x,5,x,0.7362533000123221,1,51,test1,3,0.7363660999981221,-48.0
9,pjy,f,19,r,1,(121.76378772032346, -121.76378772032352),28,-25,14,yes,x,5,x,0.5549740999995265,1,52,test1,3,0.5550992999924347,-70.0
9,pjy,f,19,r,1,(121.76378772032346, -121.76378772032352),28,5,2,yes,x,5,x,0.7213278000126593,1,53,test1,3,0.7214312000141945,-40.0
9,pjy,f,19,r,1,(-121.76378772032348, 121.76378772032349),24,-5,12,no,m,6,m,0.9452015999995638,1,54,test1,3,0.9453149999899324,-40.0
9,pjy,f,19,r,1,(-172.20000000000002, 2.1088417881317425e-14),25,5,2,yes,x,5,x,0.6524946000135969,1,55,test1,3,0.6527954000048339,-40.0
9,pjy,f,19,r,1,(-121.76378772032348, 121.76378772032349),24,-3,11,no,m,6,m,1.0346653999877162,1,56,test1,3,1.0348077999951784,-40.0
9,pjy,f,19,r,1,(-121.76378772032352, -121.76378772032348),26,7,3,yes,x,5,x,0.6010404000116978,1,57,test1,3,0.6015373000118416,-38.0
9,pjy,f,19,r,1,(-121.76378772032352, -121.76378772032348),26,-3,11,yes,x,5,x,0.5682418000069447,1,58,test1,3,0.568657700001495,-48.0
9,pjy,f,19,r,1,(-121.76378772032352, -121.76378772032348),26,-3,11,yes,x,5,x,0.5732954000122845,1,59,test1,3,0.5735894000099506,-48.0
9,pjy,f,19,r,1,(-172.20000000000002, 2.1088417881317425e-14),25,-5,12,yes,x,5,x,0.5622853999957442,1,60,test1,3,0.5623845999944024,-50.0
9,pjy,f,19,r,1,(1.0544208940658713e-14, 172.20000000000002),23,25,4,no,m,6,m,1.109815100004198,1,61,test1,3,1.1100751000049058,-50.0
9,pjy,f,19,r,1,(1.0544208940658713e-14, 172.20000000000002),23,-5,12,yes,x,5,x,0.644871399999829,1,62,test1,3,0.6450041999923997,-50.0
9,pjy,f,19,r,1,(-3.163262682197613e-14, -172.20000000000002),27,7,3,no,m,6,m,1.1109529999957886,1,63,test1,3,1.1116014999861363,-50.0
9,pjy,f,19,r,1,(-172.20000000000002, 2.1088417881317425e-14),25,7,3,no,m,6,m,0.9788747999991756,1,64,test1,3,0.9796941000095103,-50.0
9,pjy,f,19,r,1,(172.20000000000002, 0.0),21,5,2,yes,x,5,x,0.6056211999966763,1,65,test1,3,0.605723599990597,-40.0
9,pjy,f,19,r,1,(-3.163262682197613e-14, -172.20000000000002),27,5,2,yes,x,5,x,0.5963003000069875,1,66,test1,3,0.5964001000102144,-40.0
9,pjy,f,19,r,1,(-3.163262682197613e-14, -172.20000000000002),27,-25,14,yes,x,5,x,0.57909529999597,1,67,test1,3,0.579333100002259,-70.0
9,pjy,f,19,r,1,(172.20000000000002, 0.0),21,-3,11,no,m,6,m,1.1205185999860987,1,68,test1,3,1.1208417000016198,-70.0
9,pjy,f,19,r,1,(1.0544208940658713e-14, 172.20000000000002),23,-5,12,no,m,6,m,1.1681389999866951,1,69,test1,3,1.168239699996775,-70.0
9,pjy,f,19,r,1,(-3.163262682197613e-14, -172.20000000000002),27,-7,13,yes,x,5,x,0.6701108999841381,1,70,test1,3,0.6704044000071008,-52.0
9,pjy,f,19,r,1,(121.76378772032346, -121.76378772032352),28,-5,12,yes,x,5,x,0.7692908000026364,1,71,test1,3,0.7698288999963552,-50.0
9,pjy,f,19,r,1,(-121.76378772032352, -121.76378772032348),26,5,2,yes,x,5,x,0.599311600002693,1,72,test1,3,0.5995418999809772,-40.0
9,pjy,f,19,r,1,(-172.20000000000002, 2.1088417881317425e-14),25,-7,13,yes,x,5,x,0.6241933999990579,1,73,test1,3,0.6245621000125539,-52.0
9,pjy,f,19,r,1,(172.20000000000002, 0.0),21,-3,11,yes,x,5,x,0.7437626000028104,1,74,test1,3,0.744284600019455,-48.0
9,pjy,f,19,r,1,(1.0544208940658713e-14, 172.20000000000002),23,7,3,yes,x,5,x,0.6202251999930013,1,75,test1,3,0.6203558999986853,-38.0
9,pjy,f,19,r,1,(-172.20000000000002, 2.1088417881317425e-14),25,-25,14,yes,x,5,x,0.5642723999917507,1,76,test1,3,0.5646358000230975,-70.0
9,pjy,f,19,r,1,(-3.163262682197613e-14, -172.20000000000002),27,25,4,yes,x,5,x,0.6305892999807838,1,77,test1,3,0.6309555000043474,-20.0
9,pjy,f,19,r,1,(121.76378772032346, -121.76378772032352),28,-7,13,no,m,6,m,1.166964200005168,1,78,test1,3,1.1670868000073824,-20.0
9,pjy,f,19,r,1,(-172.20000000000002, 2.1088417881317425e-14),25,-7,13,no,m,6,m,1.1318171999882907,1,79,test1,3,1.1324107999971602,-20.0
9,pjy,f,19,r,1,(-3.163262682197613e-14, -172.20000000000002),27,-3,11,yes,x,5,x,1.0355356999789365,1,80,test1,3,1.035789300018223,-48.0
9,pjy,f,19,r,1,(121.76378772032349, 121.76378772032349),22,-3,11,no,m,6,m,1.1598664000048302,1,81,test1,3,1.160487799992552,-48.0
9,pjy,f,19,r,1,(-3.163262682197613e-14, -172.20000000000002),27,7,3,yes,x,5,x,0.6105732999858446,1,82,test1,3,0.6107117000210565,-38.0
9,pjy,f,19,r,1,(121.76378772032349, 121.76378772032349),22,25,4,no,m,6,m,1.0300785999861546,1,83,test1,3,1.0301813000114635,-38.0
9,pjy,f,19,r,1,(-121.76378772032352, -121.76378772032348),26,-25,14,yes,x,5,x,0.5529800000076648,1,84,test1,3,0.5532288000104018,-70.0
9,pjy,f,19,r,1,(-121.76378772032352, -121.76378772032348),26,-5,12,yes,x,5,x,0.6550079000007827,1,85,test1,3,0.6553087999927811,-50.0
9,pjy,f,19,r,1,(1.0544208940658713e-14, 172.20000000000002),23,7,3,no,m,6,m,1.5054667000076734,1,86,test1,3,1.5057536999811418,-50.0
9,pjy,f,19,r,1,(1.0544208940658713e-14, 172.20000000000002),23,5,2,no,m,6,m,1.4581470000266563,1,87,test1,3,1.4584234000067227,-50.0
9,pjy,f,19,r,1,(1.0544208940658713e-14, 172.20000000000002),23,-7,13,no,m,6,m,0.951088300003903,1,88,test1,3,0.9516983999928925,-50.0
9,pjy,f,19,r,1,(121.76378772032349, 121.76378772032349),22,5,2,no,m,6,m,0.7588499000121374,1,89,test1,3,0.7596262999868486,-50.0
9,pjy,f,19,r,1,(121.76378772032349, 121.76378772032349),22,25,4,yes,x,5,x,0.5686336000217125,1,90,test1,3,0.5688538000104018,-20.0
9,pjy,f,19,r,1,(-3.163262682197613e-14, -172.20000000000002),27,-7,13,yes,x,5,x,0.5596182000008412,1,91,test1,3,0.5600792999903206,-52.0
9,pjy,f,19,r,1,(-121.76378772032352, -121.76378772032348),26,25,4,yes,x,5,x,0.5417928000097163,1,92,test1,3,0.5420283999992535,-20.0
9,pjy,f,19,r,1,(1.0544208940658713e-14, 172.20000000000002),23,-7,13,yes,x,5,x,0.6056891000189353,1,93,test1,3,0.6058119999943301,-52.0
9,pjy,f,19,r,1,(-172.20000000000002, 2.1088417881317425e-14),25,-5,12,no,m,6,m,0.9943131000036374,1,94,test1,3,0.9945265999995172,-52.0
9,pjy,f,19,r,1,(-121.76378772032348, 121.76378772032349),24,3,1,yes,x,5,x,0.621120299998438,1,95,test1,3,0.6212766999960877,-42.0
9,pjy,f,19,r,1,(-172.20000000000002, 2.1088417881317425e-14),25,-7,13,yes,x,5,x,0.48804339999333024,1,96,test1,3,0.488405000010971,-52.0
9,pjy,f,19,r,1,(-3.163262682197613e-14, -172.20000000000002),27,5,2,no,m,6,m,1.158323500014376,1,1,test2,3,1.1584522999764886,-52.0
9,pjy,f,19,r,1,(-121.76378772032348, 121.76378772032349),24,3,1,yes,x,5,x,0.4692324999778066,1,2,test2,3,0.46949960000347346,-42.0
9,pjy,f,19,r,1,(-3.163262682197613e-14, -172.20000000000002),27,7,3,yes,x,5,x,0.590520199999446,1,3,test2,3,0.5908102999965195,-38.0
9,pjy,f,19,r,1,(172.20000000000002, 0.0),21,-25,14,yes,x,5,x,0.5970613999816123,1,4,test2,3,0.5976938999956474,-70.0
9,pjy,f,19,r,1,(-172.20000000000002, 2.1088417881317425e-14),25,3,1,yes,x,5,x,0.6247426999907475,1,5,test2,3,0.6248701000004075,-42.0
9,pjy,f,19,r,1,(121.76378772032346, -121.76378772032352),28,5,2,yes,x,5,x,0.8653007000102662,1,6,test2,3,0.8654042999842204,-40.0
9,pjy,f,19,r,1,(-3.163262682197613e-14, -172.20000000000002),27,5,2,yes,x,5,x,0.604301299987128,1,7,test2,3,0.6049495000042953,-40.0
9,pjy,f,19,r,1,(-172.20000000000002, 2.1088417881317425e-14),25,-25,14,yes,x,5,x,0.5018019999843091,1,8,test2,3,0.5019043999782298,-70.0
9,pjy,f,19,r,1,(121.76378772032346, -121.76378772032352),28,25,4,yes,x,5,x,0.4636385999910999,1,9,test2,3,0.46393719999468885,-20.0
9,pjy,f,19,r,1,(172.20000000000002, 0.0),21,-5,12,yes,x,5,x,0.5724606000003405,1,10,test2,3,0.5727869000111241,-50.0
9,pjy,f,19,r,1,(-121.76378772032348, 121.76378772032349),24,-7,13,yes,x,5,x,0.5112769000115804,1,11,test2,3,0.5115650000225287,-52.0
9,pjy,f,19,r,1,(-121.76378772032348, 121.76378772032349),24,-25,14,yes,x,5,x,0.44253369999933057,1,12,test2,3,0.44278539999504574,-70.0
9,pjy,f,19,r,1,(121.76378772032346, -121.76378772032352),28,25,4,yes,x,5,x,0.5255723999871407,1,13,test2,3,0.525968500005547,-20.0
9,pjy,f,19,r,1,(-121.76378772032348, 121.76378772032349),24,-5,12,yes,x,5,x,0.5565441000217106,1,14,test2,3,0.5572209000238217,-50.0
9,pjy,f,19,r,1,(-172.20000000000002, 2.1088417881317425e-14),25,-5,12,yes,x,5,x,0.7843433000089135,1,15,test2,3,0.7845517999958247,-50.0
9,pjy,f,19,r,1,(121.76378772032346, -121.76378772032352),28,7,3,yes,x,5,x,0.6422786999901291,1,16,test2,3,0.6426535000209697,-38.0
9,pjy,f,19,r,1,(121.76378772032349, 121.76378772032349),22,7,3,yes,x,5,x,0.6179852999921422,1,17,test2,3,0.6180843000183813,-38.0
9,pjy,f,19,r,1,(1.0544208940658713e-14, 172.20000000000002),23,3,1,yes,x,5,x,0.7952907000144478,1,18,test2,3,0.795520999992732,-42.0
9,pjy,f,19,r,1,(121.76378772032346, -121.76378772032352),28,3,1,yes,x,5,x,0.9928718000010122,1,19,test2,3,0.9930330000061076,-42.0
9,pjy,f,19,r,1,(172.20000000000002, 0.0),21,-7,13,yes,x,5,x,0.5481386999890674,1,20,test2,3,0.5484399999841116,-52.0
9,pjy,f,19,r,1,(-121.76378772032352, -121.76378772032348),26,5,2,no,m,6,m,0.815019100002246,1,21,test2,3,0.8151153000071645,-52.0
9,pjy,f,19,r,1,(-121.76378772032348, 121.76378772032349),24,-25,14,no,m,6,m,0.7844479999912437,1,22,test2,3,0.784663600003114,-52.0
9,pjy,f,19,r,1,(-121.76378772032352, -121.76378772032348),26,-7,13,yes,x,5,x,0.5115589000051841,1,23,test2,3,0.5120595000043977,-52.0
9,pjy,f,19,r,1,(-121.76378772032348, 121.76378772032349),24,25,4,yes,x,5,x,0.47682919999351725,1,24,test2,3,0.4773753999907058,-20.0
9,pjy,f,19,r,1,(121.76378772032346, -121.76378772032352),28,5,2,no,m,6,m,0.9736867000174243,1,25,test2,3,0.9739356999925803,-20.0
9,pjy,f,19,r,1,(-172.20000000000002, 2.1088417881317425e-14),25,5,2,no,m,6,m,0.8125414000242017,1,26,test2,3,0.8126765999768395,-20.0
9,pjy,f,19,r,1,(121.76378772032349, 121.76378772032349),22,-7,13,yes,x,5,x,0.5861127999960445,1,27,test2,3,0.5867418999841902,-52.0
9,pjy,f,19,r,1,(1.0544208940658713e-14, 172.20000000000002),23,-5,12,yes,x,5,x,0.6077015000046231,1,28,test2,3,0.6079404999909457,-50.0
9,pjy,f,19,r,1,(-3.163262682197613e-14, -172.20000000000002),27,-5,12,yes,x,5,x,0.5574377999873832,1,29,test2,3,0.557666100008646,-50.0
9,pjy,f,19,r,1,(-121.76378772032348, 121.76378772032349),24,-7,13,yes,x,5,x,0.48189779999665916,1,30,test2,3,0.4823647000011988,-52.0
9,pjy,f,19,r,1,(121.76378772032346, -121.76378772032352),28,-25,14,yes,x,5,x,0.4325394000043161,1,31,test2,3,0.432693200011272,-70.0
9,pjy,f,19,r,1,(172.20000000000002, 0.0),21,3,1,yes,x,5,x,1.2299289999937173,1,32,test2,3,1.230210799985798,-42.0
9,pjy,f,19,r,1,(-121.76378772032348, 121.76378772032349),24,25,4,no,m,6,m,1.1861840999918059,1,33,test2,3,1.186334199999692,-42.0
9,pjy,f,19,r,1,(121.76378772032346, -121.76378772032352),28,7,3,yes,x,5,x,0.6637961999804247,1,34,test2,3,0.6639487000065856,-38.0
9,pjy,f,19,r,1,(-121.76378772032348, 121.76378772032349),24,5,2,yes,x,5,x,0.5524717000080273,1,35,test2,3,0.552606300014304,-40.0
9,pjy,f,19,r,1,(121.76378772032346, -121.76378772032352),28,3,1,yes,x,5,x,0.9068303999956697,1,36,test2,3,0.9069729999755509,-42.0
9,pjy,f,19,r,1,(-121.76378772032352, -121.76378772032348),26,-7,13,yes,x,5,x,0.5386538000020664,1,37,test2,3,0.539049699989846,-52.0
9,pjy,f,19,r,1,(121.76378772032346, -121.76378772032352),28,-7,13,yes,x,5,x,0.6399789999995846,1,38,test2,3,0.6401202000270132,-52.0
9,pjy,f,19,r,1,(121.76378772032346, -121.76378772032352),28,-5,12,no,m,6,m,1.1616157999960706,1,39,test2,3,1.1619926000130363,-52.0
9,pjy,f,19,r,1,(-3.163262682197613e-14, -172.20000000000002),27,-5,12,no,m,6,m,0.8807422000099905,1,40,test2,3,0.880855800001882,-52.0
9,pjy,f,19,r,1,(172.20000000000002, 0.0),21,25,4,yes,x,5,x,0.6486220000078902,1,41,test2,3,0.64871760000824,-20.0
9,pjy,f,19,r,1,(121.76378772032346, -121.76378772032352),28,3,1,no,m,6,m,0.8314519000123255,1,42,test2,3,0.8315784000151325,-20.0
9,pjy,f,19,r,1,(1.0544208940658713e-14, 172.20000000000002),23,25,4,yes,x,5,x,0.6180689999891911,1,43,test2,3,0.6189261999970768,-20.0
9,pjy,f,19,r,1,(-121.76378772032348, 121.76378772032349),24,25,4,yes,x,5,x,0.7555652000010014,1,44,test2,3,0.7562962000083644,-20.0
9,pjy,f,19,r,1,(-121.76378772032348, 121.76378772032349),24,7,3,no,m,6,m,0.9228051999816671,1,45,test2,3,0.9230150999792386,-20.0
9,pjy,f,19,r,1,(172.20000000000002, 0.0),21,-5,12,yes,x,5,x,0.7606870000017807,1,46,test2,3,0.7608228000171948,-50.0
9,pjy,f,19,r,1,(-121.76378772032352, -121.76378772032348),26,-5,12,no,m,6,m,0.8950712999794632,1,47,test2,3,0.895518399978755,-50.0
9,pjy,f,19,r,1,(121.76378772032349, 121.76378772032349),22,-7,13,yes,x,5,x,0.5347497999900952,1,48,test2,3,0.5348852999741212,-52.0
9,pjy,f,19,r,1,(121.76378772032349, 121.76378772032349),22,3,1,no,m,6,m,0.9749310000042897,1,49,test2,3,0.9750799000030383,-52.0
9,pjy,f,19,r,1,(121.76378772032349, 121.76378772032349),22,-3,11,yes,x,5,x,0.788012200006051,1,50,test2,3,0.7881294999970123,-48.0
9,pjy,f,19,r,1,(-121.76378772032352, -121.76378772032348),26,-25,14,no,m,6,m,0.991914700018242,1,51,test2,3,0.9922496000071988,-48.0
9,pjy,f,19,r,1,(121.76378772032349, 121.76378772032349),22,3,1,yes,x,5,x,0.8642655000148807,1,52,test2,3,0.8643685000133701,-42.0
9,pjy,f,19,r,1,(-3.163262682197613e-14, -172.20000000000002),27,3,1,yes,x,5,x,0.6721462999994401,1,53,test2,3,0.6724355999904219,-42.0
9,pjy,f,19,r,1,(121.76378772032349, 121.76378772032349),22,25,4,yes,x,5,x,0.6327570999856107,1,54,test2,3,0.6329014000075404,-20.0
9,pjy,f,19,r,1,(121.76378772032349, 121.76378772032349),22,-7,13,no,m,6,m,0.8426661999837961,1,55,test2,3,0.843055600009393,-20.0
9,pjy,f,19,r,1,(121.76378772032349, 121.76378772032349),22,-5,12,no,m,6,m,1.148723999998765,1,56,test2,3,1.148850500001572,-20.0
9,pjy,f,19,r,1,(172.20000000000002, 0.0),21,-7,13,no,m,6,m,0.8601348999945913,1,57,test2,3,0.8604505999828689,-20.0
9,pjy,f,19,r,1,(-3.163262682197613e-14, -172.20000000000002),27,-5,12,yes,x,5,x,0.6412018999981228,1,58,test2,3,0.6414078999951016,-50.0
9,pjy,f,19,r,1,(-121.76378772032352, -121.76378772032348),26,-25,14,yes,x,5,x,0.665893600002164,1,59,test2,3,0.6663833999773487,-70.0
9,pjy,f,19,r,1,(1.0544208940658713e-14, 172.20000000000002),23,-3,11,no,m,6,m,0.8239829999802168,1,60,test2,3,0.8243926999857649,-70.0
9,pjy,f,19,r,1,(-121.76378772032348, 121.76378772032349),24,-3,11,yes,x,5,x,0.6979298999940511,1,61,test2,3,0.69823290000204,-48.0
9,pjy,f,19,r,1,(-3.163262682197613e-14, -172.20000000000002),27,-3,11,yes,x,5,x,0.6084000000264496,1,62,test2,3,0.6085509000113234,-48.0
9,pjy,f,19,r,1,(-172.20000000000002, 2.1088417881317425e-14),25,25,4,no,m,6,m,0.9814603000122588,1,63,test2,3,0.9816908999928273,-48.0
9,pjy,f,19,r,1,(172.20000000000002, 0.0),21,-25,14,no,m,6,m,0.9645631000166759,1,64,test2,3,0.9647287999978289,-48.0
9,pjy,f,19,r,1,(-172.20000000000002, 2.1088417881317425e-14),25,3,1,yes,x,5,x,0.7121808000083547,1,65,test2,3,0.7125507000018843,-42.0
9,pjy,f,19,r,1,(1.0544208940658713e-14, 172.20000000000002),23,-7,13,yes,x,5,x,0.6839777000132017,1,66,test2,3,0.6842840999888722,-52.0
9,pjy,f,19,r,1,(-121.76378772032348, 121.76378772032349),24,5,2,no,m,6,m,1.0042474000074435,1,67,test2,3,1.004947200010065,-52.0
9,pjy,f,19,r,1,(-172.20000000000002, 2.1088417881317425e-14),25,-3,11,yes,x,5,x,0.6901493000041228,1,68,test2,3,0.6903934000001755,-48.0
9,pjy,f,19,r,1,(1.0544208940658713e-14, 172.20000000000002),23,3,1,yes,x,5,m,1.2586269000021275,0,69,test2,3,1.2589617999910843,-42.0
9,pjy,f,19,r,1,(172.20000000000002, 0.0),21,3,1,yes,x,5,x,0.7352915999945253,1,70,test2,3,0.7354947999992874,-42.0
9,pjy,f,19,r,1,(172.20000000000002, 0.0),21,5,2,no,m,6,m,0.9595601000182796,1,71,test2,3,0.9596881000034045,-42.0
9,pjy,f,19,r,1,(-172.20000000000002, 2.1088417881317425e-14),25,3,1,no,m,6,m,1.1462103000085335,1,72,test2,3,1.146453900000779,-42.0
9,pjy,f,19,r,1,(-3.163262682197613e-14, -172.20000000000002),27,25,4,no,m,6,m,1.263801399996737,1,73,test2,3,1.2644688000145834,-42.0
9,pjy,f,19,r,1,(-172.20000000000002, 2.1088417881317425e-14),25,-3,11,no,m,6,m,1.1341789000143763,1,74,test2,3,1.1343092999886721,-42.0
9,pjy,f,19,r,1,(172.20000000000002, 0.0),21,7,3,yes,x,5,x,0.6023397000099067,1,75,test2,3,0.6028436999768019,-38.0
9,pjy,f,19,r,1,(-172.20000000000002, 2.1088417881317425e-14),25,25,4,yes,x,5,x,0.5547435999906156,1,76,test2,3,0.5548408000031486,-20.0
9,pjy,f,19,r,1,(-121.76378772032352, -121.76378772032348),26,7,3,yes,x,5,x,0.5434185999911278,1,77,test2,3,0.5435136999876704,-38.0
9,pjy,f,19,r,1,(121.76378772032346, -121.76378772032352),28,-3,11,yes,x,5,x,1.0515361000143457,1,78,test2,3,1.0519333999836817,-48.0
9,pjy,f,19,r,1,(172.20000000000002, 0.0),21,25,4,yes,x,5,x,0.5098250999872107,1,79,test2,3,0.5100440999958664,-20.0
9,pjy,f,19,r,1,(-121.76378772032352, -121.76378772032348),26,25,4,no,m,6,m,0.8325914999877568,1,80,test2,3,0.8328318000130821,-20.0
9,pjy,f,19,r,1,(172.20000000000002, 0.0),21,-7,13,yes,x,5,x,0.6539545000123326,1,81,test2,3,0.6542873000144027,-52.0
9,pjy,f,19,r,1,(172.20000000000002, 0.0),21,-3,11,yes,x,5,x,0.8013327000080608,1,82,test2,3,0.8019748000078835,-48.0
9,pjy,f,19,r,1,(121.76378772032349, 121.76378772032349),22,-5,12,yes,x,5,x,0.6322447000129614,1,83,test2,3,0.6324835999985225,-50.0
9,pjy,f,19,r,1,(121.76378772032349, 121.76378772032349),22,5,2,yes,x,5,x,0.691300600010436,1,84,test2,3,0.6915845999901649,-40.0
9,pjy,f,19,r,1,(-121.76378772032348, 121.76378772032349),24,5,2,yes,x,5,x,0.5984428999945521,1,85,test2,3,0.5986706999829039,-40.0
9,pjy,f,19,r,1,(172.20000000000002, 0.0),21,5,2,yes,x,5,x,0.6421154999989085,1,86,test2,3,0.6422195000050124,-40.0
9,pjy,f,19,r,1,(-121.76378772032352, -121.76378772032348),26,3,1,no,m,6,m,1.1222501999873202,1,87,test2,3,1.1224975000077393,-40.0
9,pjy,f,19,r,1,(121.76378772032346, -121.76378772032352),28,-25,14,no,m,6,m,1.1386182999995071,1,88,test2,3,1.1388122000207659,-40.0
9,pjy,f,19,r,1,(172.20000000000002, 0.0),21,7,3,yes,x,5,x,0.7650377000099979,1,89,test2,3,0.7651715999818407,-38.0
9,pjy,f,19,r,1,(-121.76378772032352, -121.76378772032348),26,3,1,yes,x,5,x,1.0696505999949295,1,90,test2,3,1.0697625999746379,-42.0
9,pjy,f,19,r,1,(-121.76378772032352, -121.76378772032348),26,-3,11,no,m,6,m,1.050201800011564,1,91,test2,3,1.0503021999902558,-42.0
9,pjy,f,19,r,1,(-121.76378772032352, -121.76378772032348),26,25,4,yes,x,5,x,0.5024924000026658,1,92,test2,3,0.5026655000110622,-20.0
9,pjy,f,19,r,1,(-3.163262682197613e-14, -172.20000000000002),27,-25,14,no,m,6,m,0.8647735999838915,1,93,test2,3,0.8650068999850191,-20.0
9,pjy,f,19,r,1,(1.0544208940658713e-14, 172.20000000000002),23,5,2,yes,x,5,x,0.9218699000193737,1,94,test2,3,0.9220744999765884,-40.0
9,pjy,f,19,r,1,(-172.20000000000002, 2.1088417881317425e-14),25,-3,11,yes,x,5,x,0.8458610000088811,1,95,test2,3,0.8460253000084776,-48.0
9,pjy,f,19,r,1,(121.76378772032349, 121.76378772032349),22,-5,12,yes,x,5,x,0.7717778999940492,1,96,test2,3,0.772072499996284,-50.0
9,pjy,f,19,r,1,(1.0544208940658713e-14, 172.20000000000002),23,5,2,yes,x,5,x,0.7477952000044752,1,1,test1,4,0.747899400012102,-40.0
9,pjy,f,19,r,1,(-121.76378772032348, 121.76378772032349),24,7,3,yes,x,5,x,0.5462554999976419,1,2,test1,4,0.5463945999799762,-38.0
9,pjy,f,19,r,1,(-121.76378772032352, -121.76378772032348),26,-5,12,yes,x,5,x,0.57475460000569,1,3,test1,4,0.5750748999998905,-50.0
9,pjy,f,19,r,1,(121.76378772032349, 121.76378772032349),22,3,1,yes,x,5,x,0.7624474999902304,1,4,test1,4,0.7625719000061508,-42.0
9,pjy,f,19,r,1,(-172.20000000000002, 2.1088417881317425e-14),25,7,3,yes,x,5,x,0.5287174000113737,1,5,test1,4,0.5288203000091016,-38.0
9,pjy,f,19,r,1,(1.0544208940658713e-14, 172.20000000000002),23,-25,14,yes,x,5,x,0.5222913000034168,1,6,test1,4,0.5224961999920197,-70.0
9,pjy,f,19,r,1,(172.20000000000002, 0.0),21,3,1,no,m,6,m,0.7415228000027128,1,7,test1,4,0.7416209999937564,-70.0
9,pjy,f,19,r,1,(121.76378772032346, -121.76378772032352),28,-3,11,yes,x,5,x,1.0232717000180855,1,8,test1,4,1.0234942000242881,-48.0
9,pjy,f,19,r,1,(121.76378772032346, -121.76378772032352),28,-5,12,yes,x,5,x,0.7104507000185549,1,9,test1,4,0.710887699999148,-50.0
9,pjy,f,19,r,1,(-3.163262682197613e-14, -172.20000000000002),27,25,4,yes,x,5,x,0.5541232000105083,1,10,test1,4,0.5542384999862406,-20.0
9,pjy,f,19,r,1,(121.76378772032349, 121.76378772032349),22,-25,14,yes,x,5,x,0.6435353000124451,1,11,test1,4,0.6437583000224549,-70.0
9,pjy,f,19,r,1,(121.76378772032349, 121.76378772032349),22,7,3,no,m,6,m,1.0521614000026602,1,12,test1,4,1.0523287000251003,-70.0
9,pjy,f,19,r,1,(-121.76378772032352, -121.76378772032348),26,3,1,yes,x,5,x,1.0115192999946885,1,13,test1,4,1.011685600009514,-42.0
9,pjy,f,19,r,1,(-3.163262682197613e-14, -172.20000000000002),27,-7,13,no,m,6,m,1.1358275999955367,1,14,test1,4,1.136272600007942,-42.0
9,pjy,f,19,r,1,(172.20000000000002, 0.0),21,-25,14,yes,x,5,x,0.5917464999947697,1,15,test1,4,0.5920601999969222,-70.0
9,pjy,f,19,r,1,(121.76378772032349, 121.76378772032349),22,-3,11,yes,x,5,x,0.8092972000013106,1,16,test1,4,0.8096806000103243,-48.0
9,pjy,f,19,r,1,(121.76378772032349, 121.76378772032349),22,7,3,yes,x,5,x,0.6100549999973737,1,17,test1,4,0.610153799992986,-38.0
9,pjy,f,19,r,1,(172.20000000000002, 0.0),21,7,3,no,m,6,m,0.9465775999997277,1,18,test1,4,0.9467952999984846,-38.0
9,pjy,f,19,r,1,(-3.163262682197613e-14, -172.20000000000002),27,-25,14,yes,x,5,x,0.6263075999740977,1,19,test1,4,0.6264069000026211,-70.0
9,pjy,f,19,r,1,(172.20000000000002, 0.0),21,-5,12,no,m,6,m,1.2718460999894887,1,20,test1,4,1.2722331999975722,-70.0
9,pjy,f,19,r,1,(172.20000000000002, 0.0),21,25,4,no,m,6,m,0.9817633999919053,1,21,test1,4,0.9818877000070643,-70.0
9,pjy,f,19,r,1,(-121.76378772032348, 121.76378772032349),24,3,1,no,m,6,m,1.0944273000059184,1,22,test1,4,1.0945235999824945,-70.0
9,pjy,f,19,r,1,(1.0544208940658713e-14, 172.20000000000002),23,7,3,yes,x,5,x,0.6242897000047378,1,23,test1,4,0.624798999982886,-38.0
9,pjy,f,19,r,1,(-121.76378772032348, 121.76378772032349),24,-25,14,yes,x,5,x,0.6357552999979816,1,24,test1,4,0.6361552999878768,-70.0
9,pjy,f,19,r,1,(1.0544208940658713e-14, 172.20000000000002),23,3,1,no,m,6,m,0.9316556999983732,1,25,test1,4,0.9318609999900218,-70.0
9,pjy,f,19,r,1,(121.76378772032346, -121.76378772032352),28,-7,13,yes,x,5,x,0.7326175000052899,1,26,test1,4,0.7328732000023592,-52.0
9,pjy,f,19,r,1,(-121.76378772032348, 121.76378772032349),24,-7,13,no,m,6,m,1.1281398000137415,1,27,test1,4,1.128319300012663,-52.0
9,pjy,f,19,r,1,(-3.163262682197613e-14, -172.20000000000002),27,3,1,no,m,6,m,1.0242709000012837,1,28,test1,4,1.024506299989298,-52.0
9,pjy,f,19,r,1,(-172.20000000000002, 2.1088417881317425e-14),25,-25,14,no,m,6,m,0.9433777999947779,1,29,test1,4,0.9435946000157855,-52.0
9,pjy,f,19,r,1,(-3.163262682197613e-14, -172.20000000000002),27,3,1,yes,x,5,x,0.7698355999891646,1,30,test1,4,0.7700728999916464,-42.0
9,pjy,f,19,r,1,(1.0544208940658713e-14, 172.20000000000002),23,25,4,yes,x,5,x,0.658046500000637,1,31,test1,4,0.6582315000123344,-20.0
9,pjy,f,19,r,1,(-172.20000000000002, 2.1088417881317425e-14),25,7,3,yes,x,5,x,0.5694841000076849,1,32,test1,4,0.5696713000070304,-38.0
9,pjy,f,19,r,1,(121.76378772032349, 121.76378772032349),22,5,2,yes,x,5,x,0.6019953999784775,1,33,test1,4,0.6021440000040457,-40.0
9,pjy,f,19,r,1,(121.76378772032349, 121.76378772032349),22,-25,14,yes,x,5,x,0.6182433000067249,1,34,test1,4,0.6185726000112481,-70.0
9,pjy,f,19,r,1,(-121.76378772032352, -121.76378772032348),26,5,2,yes,x,5,x,0.8996801999746822,1,35,test1,4,0.8997826999984682,-40.0
9,pjy,f,19,r,1,(-121.76378772032352, -121.76378772032348),26,7,3,no,m,6,m,1.0679230999958236,1,36,test1,4,1.0685317000024952,-40.0
9,pjy,f,19,r,1,(-121.76378772032348, 121.76378772032349),24,7,3,yes,x,5,x,0.7334335999912582,1,37,test1,4,0.7335328999906778,-38.0
9,pjy,f,19,r,1,(121.76378772032346, -121.76378772032352),28,25,4,no,m,6,m,1.039401000016369,1,38,test1,4,1.0395037999842316,-38.0
9,pjy,f,19,r,1,(121.76378772032349, 121.76378772032349),22,-25,14,no,m,6,m,0.9383526000019629,1,39,test1,4,0.93845380001585,-38.0
9,pjy,f,19,r,1,(-172.20000000000002, 2.1088417881317425e-14),25,5,2,yes,x,5,x,0.6150659999984782,1,40,test1,4,0.6154596999986097,-40.0
9,pjy,f,19,r,1,(1.0544208940658713e-14, 172.20000000000002),23,-3,11,yes,x,5,x,0.8074100000085309,1,41,test1,4,0.8075104999879841,-48.0
9,pjy,f,19,r,1,(1.0544208940658713e-14, 172.20000000000002),23,-25,14,no,m,6,m,0.8934966000088025,1,42,test1,4,0.893758100020932,-48.0
9,pjy,f,19,r,1,(-121.76378772032348, 121.76378772032349),24,-5,12,yes,x,5,x,0.5563094000099227,1,43,test1,4,0.5565420000057202,-50.0
9,pjy,f,19,r,1,(1.0544208940658713e-14, 172.20000000000002),23,-25,14,yes,x,5,x,0.6732750999799464,1,44,test1,4,0.6733688999956939,-70.0
9,pjy,f,19,r,1,(-3.163262682197613e-14, -172.20000000000002),27,-3,11,no,m,6,m,1.199625000008382,1,45,test1,4,1.1998567999980878,-70.0
9,pjy,f,19,r,1,(-121.76378772032352, -121.76378772032348),26,-7,13,no,m,6,m,0.9872850000101607,1,46,test1,4,0.9875386999920011,-70.0
9,pjy,f,19,r,1,(-121.76378772032348, 121.76378772032349),24,-3,11,yes,x,5,x,0.9441622000013012,1,47,test1,4,0.9442929000069853,-48.0
9,pjy,f,19,r,1,(121.76378772032346, -121.76378772032352),28,-3,11,no,m,6,m,1.0768918999820016,1,48,test1,4,1.076991599984467,-48.0
9,pjy,f,19,r,1,(-172.20000000000002, 2.1088417881317425e-14),25,25,4,yes,x,5,x,0.5750547000207007,1,49,test1,4,0.5751654999912716,-20.0
9,pjy,f,19,r,1,(121.76378772032346, -121.76378772032352),28,7,3,no,m,6,m,1.1821931000158656,1,50,test1,4,1.182490900013363,-20.0
9,pjy,f,19,r,1,(1.0544208940658713e-14, 172.20000000000002),23,-3,11,yes,x,5,x,0.8406856000074185,1,51,test1,4,0.8408481999940705,-48.0
9,pjy,f,19,r,1,(121.76378772032346, -121.76378772032352),28,-25,14,yes,x,5,x,0.6852278000151273,1,52,test1,4,0.6856734000029974,-70.0
9,pjy,f,19,r,1,(121.76378772032346, -121.76378772032352),28,5,2,yes,x,5,x,0.9319877000234555,1,53,test1,4,0.932122199999867,-40.0
9,pjy,f,19,r,1,(-121.76378772032348, 121.76378772032349),24,-5,12,no,m,6,m,1.0747795999923255,1,54,test1,4,1.0750092999951448,-40.0
9,pjy,f,19,r,1,(-172.20000000000002, 2.1088417881317425e-14),25,5,2,yes,x,5,x,0.5466700999822933,1,55,test1,4,0.5469917000154965,-40.0
9,pjy,f,19,r,1,(-121.76378772032348, 121.76378772032349),24,-3,11,no,m,6,m,1.1343500000075437,1,56,test1,4,1.1344732999859843,-40.0
9,pjy,f,19,r,1,(-121.76378772032352, -121.76378772032348),26,7,3,yes,x,5,x,0.5678212999773677,1,57,test1,4,0.5684734999958891,-38.0
9,pjy,f,19,r,1,(-121.76378772032352, -121.76378772032348),26,-3,11,yes,x,5,x,0.8490241999970749,1,58,test1,4,0.8492478999833111,-48.0
9,pjy,f,19,r,1,(-121.76378772032352, -121.76378772032348),26,-3,11,yes,x,5,x,0.7319891000224743,1,59,test1,4,0.7321477000077721,-48.0
9,pjy,f,19,r,1,(-172.20000000000002, 2.1088417881317425e-14),25,-5,12,yes,x,5,x,0.640464800002519,1,60,test1,4,0.6408912999904715,-50.0
9,pjy,f,19,r,1,(1.0544208940658713e-14, 172.20000000000002),23,25,4,no,m,6,m,0.9826172000030056,1,61,test1,4,0.9830649000068661,-50.0
9,pjy,f,19,r,1,(1.0544208940658713e-14, 172.20000000000002),23,-5,12,yes,x,5,x,0.5890346999804024,1,62,test1,4,0.5894216999877244,-50.0
9,pjy,f,19,r,1,(-3.163262682197613e-14, -172.20000000000002),27,7,3,no,m,6,m,0.8341064999985974,1,63,test1,4,0.834551800013287,-50.0
9,pjy,f,19,r,1,(-172.20000000000002, 2.1088417881317425e-14),25,7,3,no,m,6,m,0.9530960000120103,1,64,test1,4,0.9535163000109605,-50.0
9,pjy,f,19,r,1,(172.20000000000002, 0.0),21,5,2,yes,x,5,x,0.7256829999969341,1,65,test1,4,0.7257846999855246,-40.0
9,pjy,f,19,r,1,(-3.163262682197613e-14, -172.20000000000002),27,5,2,yes,x,5,x,1.0315752000024077,1,66,test1,4,1.0317098000086844,-40.0
9,pjy,f,19,r,1,(-3.163262682197613e-14, -172.20000000000002),27,-25,14,yes,x,5,x,0.48714519999339245,1,67,test1,4,0.48774899999261834,-70.0
9,pjy,f,19,r,1,(172.20000000000002, 0.0),21,-3,11,no,m,6,m,0.9513627999986056,1,68,test1,4,0.9516183999949135,-70.0
9,pjy,f,19,r,1,(1.0544208940658713e-14, 172.20000000000002),23,-5,12,no,m,6,m,1.1188510000065435,1,69,test1,4,1.1189520999905653,-70.0
9,pjy,f,19,r,1,(-3.163262682197613e-14, -172.20000000000002),27,-7,13,yes,x,5,x,0.5907121000054758,1,70,test1,4,0.5908807999803685,-52.0
9,pjy,f,19,r,1,(121.76378772032346, -121.76378772032352),28,-5,12,yes,x,5,x,0.6866374000092037,1,71,test1,4,0.6869391000072937,-50.0
9,pjy,f,19,r,1,(-121.76378772032352, -121.76378772032348),26,5,2,yes,x,5,x,0.8001993999932893,1,72,test1,4,0.8004284000198822,-40.0
9,pjy,f,19,r,1,(-172.20000000000002, 2.1088417881317425e-14),25,-7,13,yes,x,5,x,0.6039728000178002,1,73,test1,4,0.6041190999967512,-52.0
9,pjy,f,19,r,1,(172.20000000000002, 0.0),21,-3,11,yes,x,5,x,0.7283009000238962,1,74,test1,4,0.7285385000286624,-48.0
9,pjy,f,19,r,1,(1.0544208940658713e-14, 172.20000000000002),23,7,3,yes,x,5,x,0.660750500013819,1,75,test1,4,0.660959599976195,-38.0
9,pjy,f,19,r,1,(-172.20000000000002, 2.1088417881317425e-14),25,-25,14,yes,x,5,x,0.5984811999951489,1,76,test1,4,0.5985824000090361,-70.0
9,pjy,f,19,r,1,(-3.163262682197613e-14, -172.20000000000002),27,25,4,yes,x,5,x,0.6442248999956064,1,77,test1,4,0.6445183000178076,-20.0
9,pjy,f,19,r,1,(121.76378772032346, -121.76378772032352),28,-7,13,no,m,6,m,0.904659099993296,1,78,test1,4,0.9048656999948435,-20.0
9,pjy,f,19,r,1,(-172.20000000000002, 2.1088417881317425e-14),25,-7,13,no,m,6,m,0.6927826999744866,1,79,test1,4,0.6928944999817759,-20.0
9,pjy,f,19,r,1,(-3.163262682197613e-14, -172.20000000000002),27,-3,11,yes,x,5,x,0.7818041999998968,1,80,test1,4,0.7819073999999091,-48.0
9,pjy,f,19,r,1,(121.76378772032349, 121.76378772032349),22,-3,11,no,m,6,m,0.9414625999925192,1,81,test1,4,0.9417892999772448,-48.0
9,pjy,f,19,r,1,(-3.163262682197613e-14, -172.20000000000002),27,7,3,yes,x,5,x,0.7194689000025392,1,82,test1,4,0.7201850999845192,-38.0
9,pjy,f,19,r,1,(121.76378772032349, 121.76378772032349),22,25,4,no,m,6,m,0.7419979000114836,1,83,test1,4,0.7421247000165749,-38.0
9,pjy,f,19,r,1,(-121.76378772032352, -121.76378772032348),26,-25,14,yes,x,5,x,0.5927575999812689,1,84,test1,4,0.5933612999797333,-70.0
9,pjy,f,19,r,1,(-121.76378772032352, -121.76378772032348),26,-5,12,yes,x,5,x,0.7940334000159055,1,85,test1,4,0.7942097999912221,-50.0
9,pjy,f,19,r,1,(1.0544208940658713e-14, 172.20000000000002),23,7,3,no,m,6,m,0.7082621000008658,1,86,test1,4,0.7084824999910779,-50.0
9,pjy,f,19,r,1,(1.0544208940658713e-14, 172.20000000000002),23,5,2,no,m,6,m,1.1452349000028335,1,87,test1,4,1.1453396000142675,-50.0
9,pjy,f,19,r,1,(1.0544208940658713e-14, 172.20000000000002),23,-7,13,no,m,6,m,1.0491798000002746,1,88,test1,4,1.0493003000156023,-50.0
9,pjy,f,19,r,1,(121.76378772032349, 121.76378772032349),22,5,2,no,m,6,m,1.1778398999886122,1,89,test1,4,1.1780474999977741,-50.0
9,pjy,f,19,r,1,(121.76378772032349, 121.76378772032349),22,25,4,yes,x,5,x,0.6402498999959789,1,90,test1,4,0.6409497999993619,-20.0
9,pjy,f,19,r,1,(-3.163262682197613e-14, -172.20000000000002),27,-7,13,yes,x,5,x,0.7433124000090174,1,91,test1,4,0.7438551000086591,-52.0
9,pjy,f,19,r,1,(-121.76378772032352, -121.76378772032348),26,25,4,yes,x,5,x,0.5293565999891143,1,92,test1,4,0.5296885999850929,-20.0
9,pjy,f,19,r,1,(1.0544208940658713e-14, 172.20000000000002),23,-7,13,yes,x,5,x,0.77156979998108,1,93,test1,4,0.7719488999864552,-52.0
9,pjy,f,19,r,1,(-172.20000000000002, 2.1088417881317425e-14),25,-5,12,no,m,6,m,1.3041979999979958,1,94,test1,4,1.304310900013661,-52.0
9,pjy,f,19,r,1,(-121.76378772032348, 121.76378772032349),24,3,1,yes,x,5,x,0.8326041999971494,1,95,test1,4,0.8328226000012364,-42.0
9,pjy,f,19,r,1,(-172.20000000000002, 2.1088417881317425e-14),25,-7,13,yes,x,5,x,0.5940387999871746,1,96,test1,4,0.5943398000090383,-52.0
9,pjy,f,19,r,1,(-3.163262682197613e-14, -172.20000000000002),27,5,2,no,m,6,m,1.1975197000137996,1,1,test2,4,1.1978263000200968,-52.0
9,pjy,f,19,r,1,(-121.76378772032348, 121.76378772032349),24,3,1,yes,x,5,x,0.5300585999793839,1,2,test2,4,0.5302696999860927,-42.0
9,pjy,f,19,r,1,(-3.163262682197613e-14, -172.20000000000002),27,7,3,yes,x,5,x,0.7138657000032254,1,3,test2,4,0.7139645999995992,-38.0
9,pjy,f,19,r,1,(172.20000000000002, 0.0),21,-25,14,yes,x,5,x,0.522700800007442,1,4,test2,4,0.5230596000037622,-70.0
9,pjy,f,19,r,1,(-172.20000000000002, 2.1088417881317425e-14),25,3,1,yes,x,5,x,0.8068970000022091,1,5,test2,4,0.8072144000034314,-42.0
9,pjy,f,19,r,1,(121.76378772032346, -121.76378772032352),28,5,2,yes,x,5,x,0.7546923999907449,1,6,test2,4,0.7548744000087027,-40.0
9,pjy,f,19,r,1,(-3.163262682197613e-14, -172.20000000000002),27,5,2,yes,x,5,x,0.5485198000096716,1,7,test2,4,0.5488669999758713,-40.0
9,pjy,f,19,r,1,(-172.20000000000002, 2.1088417881317425e-14),25,-25,14,yes,x,5,x,0.47032139997463673,1,8,test2,4,0.47107749999850057,-70.0
9,pjy,f,19,r,1,(121.76378772032346, -121.76378772032352),28,25,4,yes,x,5,x,0.5299861000094097,1,9,test2,4,0.5304439000028651,-20.0
9,pjy,f,19,r,1,(172.20000000000002, 0.0),21,-5,12,yes,x,5,x,0.6562889000051655,1,10,test2,4,0.6564210999931674,-50.0
9,pjy,f,19,r,1,(-121.76378772032348, 121.76378772032349),24,-7,13,yes,x,5,x,0.47084779999568127,1,11,test2,4,0.4711451000184752,-52.0
9,pjy,f,19,r,1,(-121.76378772032348, 121.76378772032349),24,-25,14,yes,x,5,x,0.4549127999925986,1,12,test2,4,0.4551449999853503,-70.0
9,pjy,f,19,r,1,(121.76378772032346, -121.76378772032352),28,25,4,yes,x,5,x,0.4818634999974165,1,13,test2,4,0.482142599998042,-20.0
9,pjy,f,19,r,1,(-121.76378772032348, 121.76378772032349),24,-5,12,yes,x,5,x,0.45970089998445474,1,14,test2,4,0.4598300000070594,-50.0
9,pjy,f,19,r,1,(-172.20000000000002, 2.1088417881317425e-14),25,-5,12,yes,x,5,x,0.493663800007198,1,15,test2,4,0.49385800000163727,-50.0
9,pjy,f,19,r,1,(121.76378772032346, -121.76378772032352),28,7,3,yes,x,5,x,0.6182878000254277,1,16,test2,4,0.6185797000071034,-38.0
9,pjy,f,19,r,1,(121.76378772032349, 121.76378772032349),22,7,3,yes,x,5,x,0.5240744999900926,1,17,test2,4,0.5242864000028931,-38.0
9,pjy,f,19,r,1,(1.0544208940658713e-14, 172.20000000000002),23,3,1,yes,x,5,x,0.6946960000204854,1,18,test2,4,0.6948294000176247,-42.0
9,pjy,f,19,r,1,(121.76378772032346, -121.76378772032352),28,3,1,yes,x,5,x,0.9059329000010621,1,19,test2,4,0.906157199991867,-42.0
9,pjy,f,19,r,1,(172.20000000000002, 0.0),21,-7,13,yes,x,5,x,0.5362755999958608,1,20,test2,4,0.5365146000112873,-52.0
9,pjy,f,19,r,1,(-121.76378772032352, -121.76378772032348),26,5,2,no,m,6,x,0.8397395000210963,0,21,test2,4,0.8398420999874361,-52.0
9,pjy,f,19,r,1,(-121.76378772032348, 121.76378772032349),24,-25,14,no,m,6,m,0.8605985000031069,1,22,test2,4,0.8606950999819674,-52.0
9,pjy,f,19,r,1,(-121.76378772032352, -121.76378772032348),26,-7,13,yes,x,5,x,0.6385049000091385,1,23,test2,4,0.6386085000121966,-52.0
9,pjy,f,19,r,1,(-121.76378772032348, 121.76378772032349),24,25,4,yes,x,5,x,0.5511386999860406,1,24,test2,4,0.5512574999884237,-20.0
9,pjy,f,19,r,1,(121.76378772032346, -121.76378772032352),28,5,2,no,m,6,m,0.9235637000238057,1,25,test2,4,0.923779899982037,-20.0
9,pjy,f,19,r,1,(-172.20000000000002, 2.1088417881317425e-14),25,5,2,no,m,6,m,0.8434827999735717,1,26,test2,4,0.8437201000051573,-20.0
9,pjy,f,19,r,1,(121.76378772032349, 121.76378772032349),22,-7,13,yes,x,5,x,0.575599699979648,1,27,test2,4,0.57625470001949,-52.0
9,pjy,f,19,r,1,(1.0544208940658713e-14, 172.20000000000002),23,-5,12,yes,x,5,x,0.5823366999975406,1,28,test2,4,0.5824358999961987,-50.0
9,pjy,f,19,r,1,(-3.163262682197613e-14, -172.20000000000002),27,-5,12,yes,x,5,x,0.8271443000121508,1,29,test2,4,0.8272437999839894,-50.0
9,pjy,f,19,r,1,(-121.76378772032348, 121.76378772032349),24,-7,13,yes,x,5,x,0.6677349000237882,1,30,test2,4,0.6678342999948654,-52.0
9,pjy,f,19,r,1,(121.76378772032346, -121.76378772032352),28,-25,14,yes,x,5,x,0.6337726999772713,1,31,test2,4,0.6345508999947924,-70.0
9,pjy,f,19,r,1,(172.20000000000002, 0.0),21,3,1,yes,x,5,x,0.9708349000138696,1,32,test2,4,0.9710661999997683,-42.0
9,pjy,f,19,r,1,(-121.76378772032348, 121.76378772032349),24,25,4,no,m,6,m,1.1303702000004705,1,33,test2,4,1.130501200008439,-42.0
9,pjy,f,19,r,1,(121.76378772032346, -121.76378772032352),28,7,3,yes,x,5,x,0.6916234999953303,1,34,test2,4,0.6918515999859665,-38.0
9,pjy,f,19,r,1,(-121.76378772032348, 121.76378772032349),24,5,2,yes,x,5,x,0.6417649999784771,1,35,test2,4,0.6418658000184223,-40.0
9,pjy,f,19,r,1,(121.76378772032346, -121.76378772032352),28,3,1,yes,x,5,x,0.9812279999896418,1,36,test2,4,0.9813403000007384,-42.0
9,pjy,f,19,r,1,(-121.76378772032352, -121.76378772032348),26,-7,13,yes,x,5,x,0.7842452999902889,1,37,test2,4,0.7846617000177503,-52.0
9,pjy,f,19,r,1,(121.76378772032346, -121.76378772032352),28,-7,13,yes,x,5,x,0.6144597999809776,1,38,test2,4,0.6145790999871679,-52.0
9,pjy,f,19,r,1,(121.76378772032346, -121.76378772032352),28,-5,12,no,m,6,m,1.0582015000109095,1,39,test2,4,1.0587254000129178,-52.0
9,pjy,f,19,r,1,(-3.163262682197613e-14, -172.20000000000002),27,-5,12,no,m,6,m,0.8595689999929164,1,40,test2,4,0.8604854000150226,-52.0
9,pjy,f,19,r,1,(172.20000000000002, 0.0),21,25,4,yes,x,5,x,0.570134199981112,1,41,test2,4,0.570367600012105,-20.0
9,pjy,f,19,r,1,(121.76378772032346, -121.76378772032352),28,3,1,no,m,6,m,0.997523199999705,1,42,test2,4,0.9976269999751821,-20.0
9,pjy,f,19,r,1,(1.0544208940658713e-14, 172.20000000000002),23,25,4,yes,x,5,x,0.6373279000108596,1,43,test2,4,0.6378669000114314,-20.0
9,pjy,f,19,r,1,(-121.76378772032348, 121.76378772032349),24,25,4,yes,x,5,x,0.5919486999919172,1,44,test2,4,0.5920949999999721,-20.0
9,pjy,f,19,r,1,(-121.76378772032348, 121.76378772032349),24,7,3,no,m,6,m,1.0820032999909017,1,45,test2,4,1.0821045000047889,-20.0
9,pjy,f,19,r,1,(172.20000000000002, 0.0),21,-5,12,yes,x,5,x,0.7078025999944657,1,46,test2,4,0.7080570999823976,-50.0
9,pjy,f,19,r,1,(-121.76378772032352, -121.76378772032348),26,-5,12,no,m,6,m,0.9165324000059627,1,47,test2,4,0.9167168000130914,-50.0
9,pjy,f,19,r,1,(121.76378772032349, 121.76378772032349),22,-7,13,yes,x,5,x,0.6684471000044141,1,48,test2,4,0.6686563000257593,-52.0
9,pjy,f,19,r,1,(121.76378772032349, 121.76378772032349),22,3,1,no,m,6,m,0.876713599980576,1,49,test2,4,0.8768600999901537,-52.0
9,pjy,f,19,r,1,(121.76378772032349, 121.76378772032349),22,-3,11,yes,x,5,x,0.6304117999970913,1,50,test2,4,0.6305396999814548,-48.0
9,pjy,f,19,r,1,(-121.76378772032352, -121.76378772032348),26,-25,14,no,m,6,m,1.1325806000095326,1,51,test2,4,1.1328068999864627,-48.0
9,pjy,f,19,r,1,(121.76378772032349, 121.76378772032349),22,3,1,yes,x,5,x,0.989616400009254,1,52,test2,4,0.9897663999872748,-42.0
9,pjy,f,19,r,1,(-3.163262682197613e-14, -172.20000000000002),27,3,1,yes,x,5,x,0.7222265000164043,1,53,test2,4,0.7225109999999404,-42.0
9,pjy,f,19,r,1,(121.76378772032349, 121.76378772032349),22,25,4,yes,x,5,x,0.5979777000029571,1,54,test2,4,0.598076399997808,-20.0
9,pjy,f,19,r,1,(121.76378772032349, 121.76378772032349),22,-7,13,no,m,6,m,0.9547482000198215,1,55,test2,4,0.955278300010832,-20.0
9,pjy,f,19,r,1,(121.76378772032349, 121.76378772032349),22,-5,12,no,m,6,m,1.0805251999991015,1,56,test2,4,1.080944899993483,-20.0
9,pjy,f,19,r,1,(172.20000000000002, 0.0),21,-7,13,no,m,6,m,0.9785429000039585,1,57,test2,4,0.9786402000172529,-20.0
9,pjy,f,19,r,1,(-3.163262682197613e-14, -172.20000000000002),27,-5,12,yes,x,5,x,0.7155495000188239,1,58,test2,4,0.7157882000028621,-50.0
9,pjy,f,19,r,1,(-121.76378772032352, -121.76378772032348),26,-25,14,yes,x,5,x,0.6318051999842282,1,59,test2,4,0.6321527000109199,-70.0
9,pjy,f,19,r,1,(1.0544208940658713e-14, 172.20000000000002),23,-3,11,no,m,6,m,0.8186474000103772,1,60,test2,4,0.8187808000075165,-70.0
9,pjy,f,19,r,1,(-121.76378772032348, 121.76378772032349),24,-3,11,yes,x,5,x,0.7034590999828652,1,61,test2,4,0.7037477999983821,-48.0
9,pjy,f,19,r,1,(-3.163262682197613e-14, -172.20000000000002),27,-3,11,yes,x,5,x,0.7283744000014849,1,62,test2,4,0.7285713999881409,-48.0
9,pjy,f,19,r,1,(-172.20000000000002, 2.1088417881317425e-14),25,25,4,no,m,6,m,0.8844367999990936,1,63,test2,4,0.8845374999800697,-48.0
9,pjy,f,19,r,1,(172.20000000000002, 0.0),21,-25,14,no,m,6,m,0.9838554999732878,1,64,test2,4,0.9840822000114713,-48.0
