subj_id,subj_name,subj_gender ,subj_age,subj_handedness,subj_runNum,tar_l_x,tar_l_y,loc_code,tar_ori,tar_code,tar_pre ,cor_response,pre_code,subj_response,RT,correct,trial_num,type,bloc_num,dur, real_tar
9,pjy,f,19,r,2,(-172.20000000000002, 2.1088417881317425e-14),25,5,2,yes,x,5,x,0.7548692999989726,1,1,test1,1,0.7552034000109416,-40.0
9,pjy,f,19,r,2,(172.20000000000002, 0.0),21,-25,14,no,m,6,m,0.6303940000070725,1,2,test1,1,0.631090300012147,-40.0
9,pjy,f,19,r,2,(1.0544208940658713e-14, 172.20000000000002),23,3,1,yes,x,5,m,0.7010799999989104,0,3,test1,1,0.7013006999914069,-42.0
9,pjy,f,19,r,2,(121.76378772032349, 121.76378772032349),22,5,2,yes,x,5,x,0.659419000003254,1,4,test1,1,0.6595328999974299,-40.0
9,pjy,f,19,r,2,(1.0544208940658713e-14, 172.20000000000002),23,25,4,no,m,6,m,0.7782712000189349,1,5,test1,1,0.7786033000156749,-40.0
9,pjy,f,19,r,2,(1.0544208940658713e-14, 172.20000000000002),23,5,2,yes,x,5,x,0.5592514000018127,1,6,test1,1,0.5595449000247754,-40.0
9,pjy,f,19,r,2,(121.76378772032349, 121.76378772032349),22,3,1,yes,x,5,x,0.842646600009175,1,7,test1,1,0.8429296000103932,-42.0
9,pjy,f,19,r,2,(121.76378772032346, -121.76378772032352),28,-3,11,no,m,6,x,0.7229717999871355,0,8,test1,1,0.723124000011012,-42.0
9,pjy,f,19,r,2,(121.76378772032346, -121.76378772032352),28,7,3,no,m,6,m,0.7756423999962863,1,9,test1,1,0.7759530000039376,-42.0
9,pjy,f,19,r,2,(-3.163262682197613e-14, -172.20000000000002),27,5,2,yes,x,5,x,0.6951483000011649,1,10,test1,1,0.695250799995847,-40.0
9,pjy,f,19,r,2,(-121.76378772032352, -121.76378772032348),26,3,1,no,m,6,m,0.9451622999913525,1,11,test1,1,0.945458400005009,-40.0
9,pjy,f,19,r,2,(-121.76378772032348, 121.76378772032349),24,3,1,yes,x,5,x,0.6208278000121936,1,12,test1,1,0.6211198999953922,-42.0
9,pjy,f,19,r,2,(172.20000000000002, 0.0),21,-5,12,yes,x,5,x,0.5205015999963507,1,13,test1,1,0.5206299999845214,-50.0
9,pjy,f,19,r,2,(121.76378772032346, -121.76378772032352),28,3,1,no,m,6,m,0.6733003999979701,1,14,test1,1,0.6736241000180598,-50.0
9,pjy,f,19,r,2,(-172.20000000000002, 2.1088417881317425e-14),25,-7,13,yes,x,5,x,0.49925310001708567,1,15,test1,1,0.49940860000788234,-52.0
9,pjy,f,19,r,2,(-3.163262682197613e-14, -172.20000000000002),27,25,4,no,m,6,m,0.6816052999929525,1,16,test1,1,0.6820686999999452,-52.0
9,pjy,f,19,r,2,(1.0544208940658713e-14, 172.20000000000002),23,-3,11,no,m,6,m,0.7027890000026673,1,17,test1,1,0.7030031000031158,-52.0
9,pjy,f,19,r,2,(172.20000000000002, 0.0),21,5,2,yes,x,5,x,0.5190689000010025,1,18,test1,1,0.5191978999937419,-40.0
9,pjy,f,19,r,2,(172.20000000000002, 0.0),21,-3,11,yes,x,5,m,0.7092087999917567,0,19,test1,1,0.7093995999894105,-48.0
9,pjy,f,19,r,2,(-172.20000000000002, 2.1088417881317425e-14),25,7,3,yes,x,5,x,0.4667233999934979,1,20,test1,1,0.46702969999751076,-38.0
9,pjy,f,19,r,2,(172.20000000000002, 0.0),21,7,3,yes,x,5,x,0.4579364999954123,1,21,test1,1,0.45838960001128726,-38.0
9,pjy,f,19,r,2,(1.0544208940658713e-14, 172.20000000000002),23,-3,11,yes,x,5,x,0.6164317000075243,1,22,test1,1,0.6165652000054251,-48.0
9,pjy,f,19,r,2,(-172.20000000000002, 2.1088417881317425e-14),25,25,4,yes,x,5,x,0.483330000017304,1,23,test1,1,0.4839403000078164,-20.0
9,pjy,f,19,r,2,(1.0544208940658713e-14, 172.20000000000002),23,-5,12,yes,x,5,x,0.4557730999949854,1,24,test1,1,0.45589339997968636,-50.0
9,pjy,f,19,r,2,(172.20000000000002, 0.0),21,-25,14,yes,x,5,x,0.4525318999949377,1,25,test1,1,0.45295860001351684,-70.0
9,pjy,f,19,r,2,(-121.76378772032348, 121.76378772032349),24,-3,11,no,m,6,m,0.7665970999805722,1,26,test1,1,0.7668479999992996,-70.0
9,pjy,f,19,r,2,(172.20000000000002, 0.0),21,3,1,yes,x,5,x,0.9892136999987997,1,27,test1,1,0.9895534999959636,-42.0
9,pjy,f,19,r,2,(-121.76378772032352, -121.76378772032348),26,7,3,yes,x,5,x,0.6049737999856006,1,28,test1,1,0.6052548000006936,-38.0
9,pjy,f,19,r,2,(-121.76378772032352, -121.76378772032348),26,-3,11,no,m,6,m,0.6639551999978721,1,29,test1,1,0.6640836999868043,-38.0
9,pjy,f,19,r,2,(172.20000000000002, 0.0),21,-3,11,yes,x,5,x,0.6817758999823127,1,30,test1,1,0.6821475000178907,-48.0
9,pjy,f,19,r,2,(-121.76378772032348, 121.76378772032349),24,-5,12,no,m,6,m,0.8409012999909464,1,31,test1,1,0.8410745000001043,-48.0
9,pjy,f,19,r,2,(-3.163262682197613e-14, -172.20000000000002),27,-3,11,yes,x,5,m,0.8255734999838751,0,32,test1,1,0.8256969000212848,-48.0
9,pjy,f,19,r,2,(-121.76378772032352, -121.76378772032348),26,-3,11,yes,x,5,x,0.6060566999949515,1,33,test1,1,0.6068079000106081,-48.0
9,pjy,f,19,r,2,(-121.76378772032348, 121.76378772032349),24,-25,14,yes,x,5,x,0.48863259999779984,1,34,test1,1,0.4887358999985736,-70.0
9,pjy,f,19,r,2,(-3.163262682197613e-14, -172.20000000000002),27,-25,14,yes,x,5,x,0.4734383000177331,1,35,test1,1,0.4737219999951776,-70.0
9,pjy,f,19,r,2,(-172.20000000000002, 2.1088417881317425e-14),25,-25,14,no,m,6,m,0.676348400011193,1,36,test1,1,0.6768086000229232,-70.0
9,pjy,f,19,r,2,(-121.76378772032352, -121.76378772032348),26,7,3,yes,x,5,x,0.49554310002713464,1,37,test1,1,0.49569500001962297,-38.0
9,pjy,f,19,r,2,(-121.76378772032352, -121.76378772032348),26,-5,12,yes,x,5,x,0.5079586999781895,1,38,test1,1,0.5081754999991972,-50.0
9,pjy,f,19,r,2,(1.0544208940658713e-14, 172.20000000000002),23,-7,13,yes,x,5,x,0.5283661999856122,1,39,test1,1,0.5286599999817554,-52.0
9,pjy,f,19,r,2,(-172.20000000000002, 2.1088417881317425e-14),25,5,2,yes,x,5,x,0.5334392999939155,1,40,test1,1,0.5336190999951214,-40.0
9,pjy,f,19,r,2,(-3.163262682197613e-14, -172.20000000000002),27,-25,14,no,m,6,m,0.8542347000038717,1,41,test1,1,0.8546512000029907,-40.0
9,pjy,f,19,r,2,(-172.20000000000002, 2.1088417881317425e-14),25,-7,13,yes,x,5,x,0.48410629999125376,1,42,test1,1,0.48435409998637624,-52.0
9,pjy,f,19,r,2,(121.76378772032349, 121.76378772032349),22,-7,13,no,m,6,m,0.6224439000070561,1,43,test1,1,0.622686499991687,-52.0
9,pjy,f,19,r,2,(172.20000000000002, 0.0),21,5,2,yes,x,5,x,0.4941021999984514,1,44,test1,1,0.49436660000355914,-40.0
9,pjy,f,19,r,2,(121.76378772032346, -121.76378772032352),28,-7,13,yes,x,5,x,0.5917704000021331,1,45,test1,1,0.591911000024993,-52.0
9,pjy,f,19,r,2,(-3.163262682197613e-14, -172.20000000000002),27,-7,13,yes,x,5,x,0.5894470000057481,1,46,test1,1,0.589639600017108,-52.0
9,pjy,f,19,r,2,(-172.20000000000002, 2.1088417881317425e-14),25,3,1,no,m,6,m,0.788703300000634,1,47,test1,1,0.7891651000245474,-52.0
9,pjy,f,19,r,2,(-121.76378772032348, 121.76378772032349),24,3,1,yes,x,5,x,0.8260761999990791,1,48,test1,1,0.826294800004689,-42.0
9,pjy,f,19,r,2,(-121.76378772032352, -121.76378772032348),26,-5,12,no,m,6,m,0.7450586000049952,1,49,test1,1,0.7452229000045918,-42.0
9,pjy,f,19,r,2,(-121.76378772032348, 121.76378772032349),24,-5,12,yes,x,5,x,0.5142476999899372,1,50,test1,1,0.5144292999757454,-50.0
9,pjy,f,19,r,2,(1.0544208940658713e-14, 172.20000000000002),23,5,2,yes,x,5,x,0.49239959998521954,1,51,test1,1,0.49272739997832105,-40.0
9,pjy,f,19,r,2,(1.0544208940658713e-14, 172.20000000000002),23,-7,13,yes,x,5,x,0.45302559999981895,1,52,test1,1,0.4533720000181347,-52.0
9,pjy,f,19,r,2,(-3.163262682197613e-14, -172.20000000000002),27,-7,13,yes,x,5,x,0.4946295999980066,1,53,test1,1,0.494726000004448,-52.0
9,pjy,f,19,r,2,(121.76378772032349, 121.76378772032349),22,-3,11,yes,x,5,m,0.5770263999875169,0,54,test1,1,0.5771288000105415,-48.0
9,pjy,f,19,r,2,(121.76378772032346, -121.76378772032352),28,5,2,no,m,6,m,0.8692906000069343,1,55,test1,1,0.8696356999862473,-48.0
9,pjy,f,19,r,2,(172.20000000000002, 0.0),21,-7,13,no,m,6,m,0.9575544999970589,1,56,test1,1,0.9576545000018086,-48.0
9,pjy,f,19,r,2,(121.76378772032346, -121.76378772032352),28,-3,11,yes,x,5,x,0.7668699999921955,1,57,test1,1,0.7669954000157304,-48.0
9,pjy,f,19,r,2,(-3.163262682197613e-14, -172.20000000000002),27,25,4,yes,x,5,x,0.4438703999912832,1,58,test1,1,0.4441424999968149,-20.0
9,pjy,f,19,r,2,(-3.163262682197613e-14, -172.20000000000002),27,3,1,no,m,6,m,0.6076739999989513,1,59,test1,1,0.6080964999855496,-20.0
9,pjy,f,19,r,2,(-172.20000000000002, 2.1088417881317425e-14),25,7,3,no,m,6,m,0.6703392000054009,1,60,test1,1,0.6705828999984078,-20.0
9,pjy,f,19,r,2,(-172.20000000000002, 2.1088417881317425e-14),25,-25,14,yes,x,5,x,0.46975689998362213,1,61,test1,1,0.47055480000562966,-70.0
9,pjy,f,19,r,2,(121.76378772032349, 121.76378772032349),22,-5,12,no,m,6,m,0.7107592000102159,1,62,test1,1,0.7110599000006914,-70.0
9,pjy,f,19,r,2,(-121.76378772032352, -121.76378772032348),26,-5,12,yes,x,5,x,0.5448903999931645,1,63,test1,1,0.5451084999949671,-50.0
9,pjy,f,19,r,2,(1.0544208940658713e-14, 172.20000000000002),23,7,3,no,m,6,m,0.6323812000046019,1,64,test1,1,0.6327358999988064,-50.0
9,pjy,f,19,r,2,(172.20000000000002, 0.0),21,25,4,yes,x,5,x,0.47315650002565235,1,65,test1,1,0.47343240000191145,-20.0
9,pjy,f,19,r,2,(-121.76378772032348, 121.76378772032349),24,-7,13,yes,x,5,x,0.5155497000087053,1,66,test1,1,0.5156489000073634,-52.0
9,pjy,f,19,r,2,(-121.76378772032348, 121.76378772032349),24,-25,14,no,m,6,m,0.5832493000198156,1,67,test1,1,0.5833641999925021,-52.0
9,pjy,f,19,r,2,(1.0544208940658713e-14, 172.20000000000002),23,25,4,yes,x,5,x,0.5006861999863759,1,68,test1,1,0.5009321999968961,-20.0
9,pjy,f,19,r,2,(121.76378772032346, -121.76378772032352),28,7,3,yes,x,5,x,0.594551300018793,1,69,test1,1,0.5948381000198424,-38.0
9,pjy,f,19,r,2,(172.20000000000002, 0.0),21,7,3,yes,x,5,x,0.45579879998695105,1,70,test1,1,0.45592830001260154,-38.0
9,pjy,f,19,r,2,(-172.20000000000002, 2.1088417881317425e-14),25,25,4,no,m,6,m,1.1459662999841385,1,71,test1,1,1.1463299999886658,-38.0
9,pjy,f,19,r,2,(-3.163262682197613e-14, -172.20000000000002),27,-25,14,yes,x,5,x,0.48842820001300424,1,72,test1,1,0.488672499981476,-70.0
9,pjy,f,19,r,2,(172.20000000000002, 0.0),21,-3,11,no,m,6,m,0.7231907999957912,1,73,test1,1,0.7232936999935191,-70.0
9,pjy,f,19,r,2,(-121.76378772032352, -121.76378772032348),26,-3,11,yes,x,5,x,1.1078402000130154,1,74,test1,1,1.1079432999831624,-48.0
9,pjy,f,19,r,2,(-121.76378772032352, -121.76378772032348),26,-7,13,no,m,6,m,0.6195634999894537,1,75,test1,1,0.619774500024505,-48.0
9,pjy,f,19,r,2,(121.76378772032346, -121.76378772032352),28,5,2,yes,x,5,x,1.0916961999901105,1,76,test1,1,1.0919709000154398,-40.0
9,pjy,f,19,r,2,(121.76378772032346, -121.76378772032352),28,3,1,yes,x,5,m,0.6421776999777649,0,77,test1,1,0.642408300016541,-42.0
9,pjy,f,19,r,2,(1.0544208940658713e-14, 172.20000000000002),23,5,2,no,m,6,m,0.7294370000017807,1,78,test1,1,0.7297875999938697,-42.0
9,pjy,f,19,r,2,(-3.163262682197613e-14, -172.20000000000002),27,7,3,yes,x,5,x,0.4381234000029508,1,79,test1,1,0.43834720001905225,-38.0
9,pjy,f,19,r,2,(1.0544208940658713e-14, 172.20000000000002),23,-5,12,no,m,6,m,1.062389600003371,1,80,test1,1,1.0624914000218268,-38.0
9,pjy,f,19,r,2,(121.76378772032346, -121.76378772032352),28,-5,12,yes,x,5,x,0.7534971999994013,1,81,test1,1,0.7538053999887779,-50.0
9,pjy,f,19,r,2,(-172.20000000000002, 2.1088417881317425e-14),25,-3,11,yes,x,5,x,0.6230361999769229,1,82,test1,1,0.6232622999814339,-48.0
9,pjy,f,19,r,2,(1.0544208940658713e-14, 172.20000000000002),23,7,3,yes,x,5,x,0.5539419999986421,1,83,test1,1,0.5543428999953903,-38.0
9,pjy,f,19,r,2,(121.76378772032349, 121.76378772032349),22,-5,12,yes,x,5,x,0.4774265000014566,1,84,test1,1,0.47760129999369383,-50.0
9,pjy,f,19,r,2,(121.76378772032346, -121.76378772032352),28,25,4,yes,x,5,x,0.49050939999870025,1,85,test1,1,0.4906763000180945,-20.0
9,pjy,f,19,r,2,(121.76378772032346, -121.76378772032352),28,-7,13,yes,x,5,x,0.4485567999945488,1,86,test1,1,0.44880820001708344,-52.0
9,pjy,f,19,r,2,(-121.76378772032348, 121.76378772032349),24,7,3,yes,x,5,x,0.39125179999973625,1,87,test1,1,0.3914846999978181,-38.0
9,pjy,f,19,r,2,(-172.20000000000002, 2.1088417881317425e-14),25,-7,13,no,m,6,x,0.9955248000042047,0,88,test1,1,0.9957112999982201,-38.0
9,pjy,f,19,r,2,(1.0544208940658713e-14, 172.20000000000002),23,7,3,yes,x,5,x,0.45131730000139214,1,89,test1,1,0.4514476000040304,-38.0
9,pjy,f,19,r,2,(-121.76378772032352, -121.76378772032348),26,-25,14,yes,x,5,x,0.4546535999979824,1,90,test1,1,0.4550177000055555,-70.0
9,pjy,f,19,r,2,(-172.20000000000002, 2.1088417881317425e-14),25,5,2,no,m,6,m,0.7317166999855544,1,91,test1,1,0.7318381000077352,-70.0
9,pjy,f,19,r,2,(121.76378772032349, 121.76378772032349),22,-3,11,yes,x,5,x,0.9944336000189651,1,92,test1,1,0.9948854999965988,-48.0
9,pjy,f,19,r,2,(-172.20000000000002, 2.1088417881317425e-14),25,25,4,yes,x,5,x,0.4507144000090193,1,93,test1,1,0.4510535000008531,-20.0
9,pjy,f,19,r,2,(-3.163262682197613e-14, -172.20000000000002),27,-5,12,no,m,6,m,0.7707028999866452,1,94,test1,1,0.7709133999887854,-20.0
9,pjy,f,19,r,2,(-3.163262682197613e-14, -172.20000000000002),27,3,1,yes,x,5,x,0.5740337999886833,1,95,test1,1,0.5744871000060812,-42.0
9,pjy,f,19,r,2,(121.76378772032346, -121.76378772032352),28,-3,11,yes,x,5,x,0.9109070000122301,1,96,test1,1,0.9110054000047967,-48.0
9,pjy,f,19,r,2,(-3.163262682197613e-14, -172.20000000000002),27,7,3,yes,x,5,x,0.6217906999809202,1,1,test2,1,0.6220357999845874,-38.0
9,pjy,f,19,r,2,(1.0544208940658713e-14, 172.20000000000002),23,-5,12,yes,x,5,x,0.4276837999932468,1,2,test2,1,0.42780480001238175,-50.0
9,pjy,f,19,r,2,(-3.163262682197613e-14, -172.20000000000002),27,7,3,no,m,6,m,0.6758821000112221,1,3,test2,1,0.6760780999902636,-50.0
9,pjy,f,19,r,2,(121.76378772032346, -121.76378772032352),28,-25,14,no,m,6,m,0.7399520000035409,1,4,test2,1,0.7400545999989845,-50.0
9,pjy,f,19,r,2,(121.76378772032346, -121.76378772032352),28,-5,12,yes,x,5,x,0.6372335999913048,1,5,test2,1,0.6374495000054594,-50.0
9,pjy,f,19,r,2,(121.76378772032349, 121.76378772032349),22,5,2,no,m,6,m,0.817312099999981,1,6,test2,1,0.8174648999993224,-50.0
9,pjy,f,19,r,2,(-121.76378772032348, 121.76378772032349),24,-5,12,yes,x,5,x,0.40537059999769554,1,7,test2,1,0.40565750002861023,-50.0
9,pjy,f,19,r,2,(-121.76378772032352, -121.76378772032348),26,5,2,no,m,6,m,0.6891438000020571,1,8,test2,1,0.6893065000185743,-50.0
9,pjy,f,19,r,2,(172.20000000000002, 0.0),21,5,2,no,m,6,m,0.6029100000159815,1,9,test2,1,0.6031274999841116,-50.0
9,pjy,f,19,r,2,(-3.163262682197613e-14, -172.20000000000002),27,-7,13,no,m,6,m,0.674971500004176,1,10,test2,1,0.6754923000116833,-50.0
9,pjy,f,19,r,2,(172.20000000000002, 0.0),21,-5,12,yes,x,5,x,0.44269270001677796,1,11,test2,1,0.44303249998483807,-50.0
9,pjy,f,19,r,2,(172.20000000000002, 0.0),21,25,4,yes,x,5,x,0.3480437999824062,1,12,test2,1,0.3484368000063114,-20.0
9,pjy,f,19,r,2,(-172.20000000000002, 2.1088417881317425e-14),25,3,1,yes,x,5,x,0.5563557999848854,1,13,test2,1,0.5565606000018306,-42.0
9,pjy,f,19,r,2,(1.0544208940658713e-14, 172.20000000000002),23,-25,14,yes,x,5,x,0.3588813999958802,1,14,test2,1,0.35906260000774637,-70.0
9,pjy,f,19,r,2,(121.76378772032349, 121.76378772032349),22,3,1,yes,x,5,x,0.5363156000094023,1,15,test2,1,0.5364198999886867,-42.0
9,pjy,f,19,r,2,(-121.76378772032352, -121.76378772032348),26,3,1,yes,x,5,x,0.5196238000062294,1,16,test2,1,0.5198655000131112,-42.0
9,pjy,f,19,r,2,(121.76378772032349, 121.76378772032349),22,-7,13,yes,x,5,x,0.5247667000221554,1,17,test2,1,0.5248701999953482,-52.0
9,pjy,f,19,r,2,(-121.76378772032352, -121.76378772032348),26,-7,13,yes,x,5,x,0.4993121000006795,1,18,test2,1,0.49941049999324605,-52.0
9,pjy,f,19,r,2,(-121.76378772032352, -121.76378772032348),26,25,4,yes,x,5,x,0.3650558000081219,1,19,test2,1,0.36536600001272745,-20.0
9,pjy,f,19,r,2,(121.76378772032349, 121.76378772032349),22,-25,14,yes,x,5,x,0.4110817000037059,1,20,test2,1,0.4113673999963794,-70.0
9,pjy,f,19,r,2,(172.20000000000002, 0.0),21,-7,13,yes,x,5,x,0.3813172999944072,1,21,test2,1,0.38178600001265295,-52.0
9,pjy,f,19,r,2,(1.0544208940658713e-14, 172.20000000000002),23,-3,11,yes,x,5,x,0.3684060000232421,1,22,test2,1,0.36853519998840056,-48.0
9,pjy,f,19,r,2,(-3.163262682197613e-14, -172.20000000000002),27,5,2,no,m,6,x,0.405724200012628,0,23,test2,1,0.40589200000977144,-48.0
9,pjy,f,19,r,2,(-121.76378772032348, 121.76378772032349),24,-7,13,no,m,6,m,0.7198342999909073,1,24,test2,1,0.7199607999937143,-48.0
9,pjy,f,19,r,2,(172.20000000000002, 0.0),21,-25,14,yes,x,5,x,0.49266660001012497,1,25,test2,1,0.49295790001633577,-70.0
9,pjy,f,19,r,2,(-121.76378772032348, 121.76378772032349),24,5,2,no,m,6,m,0.8942906000011135,1,26,test2,1,0.8944949000142515,-70.0
9,pjy,f,19,r,2,(-121.76378772032352, -121.76378772032348),26,5,2,yes,x,5,x,0.5078482999815606,1,27,test2,1,0.5082053999940399,-40.0
9,pjy,f,19,r,2,(-121.76378772032348, 121.76378772032349),24,-7,13,yes,x,5,x,0.43556359998183325,1,28,test2,1,0.4358405999955721,-52.0
9,pjy,f,19,r,2,(121.76378772032349, 121.76378772032349),22,25,4,yes,x,5,x,0.4538606999849435,1,29,test2,1,0.454080099996645,-20.0
9,pjy,f,19,r,2,(-3.163262682197613e-14, -172.20000000000002),27,5,2,yes,x,5,x,0.5622786000021733,1,30,test2,1,0.5623770999955013,-40.0
9,pjy,f,19,r,2,(-3.163262682197613e-14, -172.20000000000002),27,-5,12,yes,x,5,x,0.5547163999872282,1,31,test2,1,0.5554144000052474,-50.0
9,pjy,f,19,r,2,(-3.163262682197613e-14, -172.20000000000002),27,3,1,yes,x,5,x,0.5388010000169743,1,32,test2,1,0.539024600002449,-42.0
9,pjy,f,19,r,2,(121.76378772032349, 121.76378772032349),22,-25,14,no,m,6,m,0.5547014999901876,1,33,test2,1,0.5547998999827541,-42.0
9,pjy,f,19,r,2,(172.20000000000002, 0.0),21,3,1,no,m,6,m,0.8316296999983024,1,34,test2,1,0.8317346999829169,-42.0
9,pjy,f,19,r,2,(-121.76378772032352, -121.76378772032348),26,-25,14,no,m,6,m,0.5817969999916386,1,35,test2,1,0.5820155999972485,-42.0
9,pjy,f,19,r,2,(121.76378772032349, 121.76378772032349),22,7,3,yes,x,5,x,0.402176600007806,1,36,test2,1,0.40239969998947345,-38.0
9,pjy,f,19,r,2,(-121.76378772032348, 121.76378772032349),24,25,4,yes,x,5,x,0.4008081000065431,1,37,test2,1,0.4014665999857243,-20.0
9,pjy,f,19,r,2,(-121.76378772032348, 121.76378772032349),24,3,1,no,m,6,m,0.6266756000113674,1,38,test2,1,0.6268574999994598,-20.0
9,pjy,f,19,r,2,(121.76378772032346, -121.76378772032352),28,-5,12,no,m,6,m,0.5757566999818664,1,39,test2,1,0.5758592000056524,-20.0
9,pjy,f,19,r,2,(121.76378772032346, -121.76378772032352),28,3,1,yes,x,5,m,0.5895472999836784,0,40,test2,1,0.5900834999920335,-42.0
9,pjy,f,19,r,2,(172.20000000000002, 0.0),21,-5,12,no,m,6,m,0.7157935000141151,1,41,test2,1,0.7160845000180416,-42.0
9,pjy,f,19,r,2,(172.20000000000002, 0.0),21,7,3,no,m,6,m,0.9400539000052959,1,42,test2,1,0.9404111000185367,-42.0
9,pjy,f,19,r,2,(-121.76378772032348, 121.76378772032349),24,-3,11,yes,x,5,x,0.6275499000039417,1,43,test2,1,0.627655100019183,-48.0
9,pjy,f,19,r,2,(1.0544208940658713e-14, 172.20000000000002),23,3,1,no,m,6,x,0.9325484000146389,0,44,test2,1,0.9329868000058923,-48.0
9,pjy,f,19,r,2,(121.76378772032349, 121.76378772032349),22,5,2,yes,x,5,x,0.6150806000223383,1,45,test2,1,0.6152576000022236,-40.0
9,pjy,f,19,r,2,(-3.163262682197613e-14, -172.20000000000002),27,-3,11,no,m,6,m,0.6134497000020929,1,46,test2,1,0.6142769000143744,-40.0
9,pjy,f,19,r,2,(-121.76378772032352, -121.76378772032348),26,7,3,no,m,6,m,0.7168057000089902,1,47,test2,1,0.7169599999906495,-40.0
9,pjy,f,19,r,2,(172.20000000000002, 0.0),21,25,4,no,m,6,m,0.6274177999875974,1,48,test2,1,0.6276649000064936,-40.0
9,pjy,f,19,r,2,(121.76378772032346, -121.76378772032352),28,-25,14,yes,x,5,x,0.4744109000021126,1,49,test2,1,0.47471480001695454,-70.0
9,pjy,f,19,r,2,(-121.76378772032348, 121.76378772032349),24,25,4,yes,x,5,x,0.38070219999644905,1,50,test2,1,0.38082990000839345,-20.0
9,pjy,f,19,r,2,(-172.20000000000002, 2.1088417881317425e-14),25,-25,14,yes,x,5,x,0.49419239998678677,1,51,test2,1,0.49430439999559894,-70.0
9,pjy,f,19,r,2,(172.20000000000002, 0.0),21,-7,13,yes,x,5,x,0.6512247000064235,1,52,test2,1,0.6513840999978129,-52.0
9,pjy,f,19,r,2,(-121.76378772032352, -121.76378772032348),26,5,2,yes,x,5,x,0.48420450001140125,1,53,test2,1,0.484365100011928,-40.0
9,pjy,f,19,r,2,(-121.76378772032348, 121.76378772032349),24,5,2,yes,x,5,x,0.49430749999010004,1,54,test2,1,0.494524999987334,-40.0
9,pjy,f,19,r,2,(-121.76378772032352, -121.76378772032348),26,25,4,yes,x,5,x,0.44748090000939555,1,55,test2,1,0.4477162999974098,-20.0
9,pjy,f,19,r,2,(-172.20000000000002, 2.1088417881317425e-14),25,-5,12,yes,x,5,x,0.7696412999939639,1,56,test2,1,0.7697665000159759,-50.0
9,pjy,f,19,r,2,(121.76378772032349, 121.76378772032349),22,-3,11,no,m,6,m,0.7102337999967858,1,57,test2,1,0.710422500007553,-50.0
9,pjy,f,19,r,2,(-172.20000000000002, 2.1088417881317425e-14),25,7,3,yes,x,5,x,0.4803659000026528,1,58,test2,1,0.4806021999975201,-38.0
9,pjy,f,19,r,2,(1.0544208940658713e-14, 172.20000000000002),23,25,4,yes,x,5,x,0.500364300009096,1,59,test2,1,0.500479100010125,-20.0
9,pjy,f,19,r,2,(121.76378772032346, -121.76378772032352),28,7,3,yes,x,5,x,0.6542386999935843,1,60,test2,1,0.6546929999894928,-38.0
9,pjy,f,19,r,2,(-121.76378772032352, -121.76378772032348),26,25,4,no,m,6,m,0.7691609000030439,1,61,test2,1,0.76948089999496,-38.0
9,pjy,f,19,r,2,(-172.20000000000002, 2.1088417881317425e-14),25,-5,12,yes,x,5,x,0.590714999998454,1,62,test2,1,0.5911600000108592,-50.0
9,pjy,f,19,r,2,(121.76378772032349, 121.76378772032349),22,-5,12,yes,x,5,x,0.5240567000000738,1,63,test2,1,0.5242739999957848,-50.0
9,pjy,f,19,r,2,(1.0544208940658713e-14, 172.20000000000002),23,3,1,yes,x,5,m,0.8966486999997869,0,64,test2,1,0.8970007000025362,-42.0
9,pjy,f,19,r,2,(-121.76378772032352, -121.76378772032348),26,-25,14,yes,x,5,x,0.42170949999126606,1,65,test2,1,0.4219697999942582,-70.0
9,pjy,f,19,r,2,(121.76378772032349, 121.76378772032349),22,-25,14,yes,x,5,x,0.4554610999766737,1,66,test2,1,0.4555879000108689,-70.0
9,pjy,f,19,r,2,(121.76378772032349, 121.76378772032349),22,25,4,no,m,6,m,0.6750891999981832,1,67,test2,1,0.6751867000130005,-70.0
9,pjy,f,19,r,2,(121.76378772032346, -121.76378772032352),28,5,2,yes,x,5,x,0.6074093999923207,1,68,test2,1,0.6077896999777295,-40.0
9,pjy,f,19,r,2,(121.76378772032346, -121.76378772032352),28,25,4,yes,x,5,x,0.4619795000180602,1,69,test2,1,0.4626601000200026,-20.0
9,pjy,f,19,r,2,(-121.76378772032352, -121.76378772032348),26,-7,13,yes,x,5,x,0.43580789997940883,1,70,test2,1,0.4360187000129372,-52.0
9,pjy,f,19,r,2,(-121.76378772032348, 121.76378772032349),24,7,3,yes,x,5,x,0.6144357000011951,1,71,test2,1,0.6147378000023309,-38.0
9,pjy,f,19,r,2,(172.20000000000002, 0.0),21,3,1,yes,x,5,m,0.8070782000140753,0,72,test2,1,0.8074904999812134,-42.0
9,pjy,f,19,r,2,(121.76378772032346, -121.76378772032352),28,-7,13,no,m,6,m,0.8723612999892794,1,73,test2,1,0.8724873999890406,-42.0
9,pjy,f,19,r,2,(1.0544208940658713e-14, 172.20000000000002),23,-25,14,no,m,6,m,0.6421950000221841,1,74,test2,1,0.642385999992257,-42.0
9,pjy,f,19,r,2,(121.76378772032349, 121.76378772032349),22,7,3,no,m,6,m,0.8190591000020504,1,75,test2,1,0.8193117000046186,-42.0
9,pjy,f,19,r,2,(1.0544208940658713e-14, 172.20000000000002),23,-7,13,no,m,6,m,0.6107679000124335,1,76,test2,1,0.6108858000079636,-42.0
9,pjy,f,19,r,2,(121.76378772032349, 121.76378772032349),22,25,4,yes,x,5,x,0.4263788999815006,1,77,test2,1,0.4265063999919221,-20.0
9,pjy,f,19,r,2,(-3.163262682197613e-14, -172.20000000000002),27,-3,11,yes,x,5,x,0.6946482999774162,1,78,test2,1,0.6949087999819312,-48.0
9,pjy,f,19,r,2,(1.0544208940658713e-14, 172.20000000000002),23,-25,14,yes,x,5,x,0.42867850000038743,1,79,test2,1,0.4293646999867633,-70.0
9,pjy,f,19,r,2,(121.76378772032346, -121.76378772032352),28,-25,14,yes,x,5,x,0.4535428000090178,1,80,test2,1,0.45388109999476,-70.0
9,pjy,f,19,r,2,(-172.20000000000002, 2.1088417881317425e-14),25,-3,11,no,m,6,m,0.8934785000164993,1,81,test2,1,0.8937979999755044,-70.0
9,pjy,f,19,r,2,(-3.163262682197613e-14, -172.20000000000002),27,-5,12,yes,x,5,x,0.5076453000074252,1,82,test2,1,0.5082270000129938,-50.0
9,pjy,f,19,r,2,(121.76378772032349, 121.76378772032349),22,-7,13,yes,x,5,x,0.49659180000890046,1,83,test2,1,0.4973181000095792,-52.0
9,pjy,f,19,r,2,(-121.76378772032348, 121.76378772032349),24,25,4,no,m,6,m,0.7754663999949116,1,84,test2,1,0.7758553999883588,-52.0
9,pjy,f,19,r,2,(121.76378772032346, -121.76378772032352),28,25,4,no,m,6,m,0.9385604999843054,1,85,test2,1,0.9387035999970976,-52.0
9,pjy,f,19,r,2,(-121.76378772032348, 121.76378772032349),24,-3,11,yes,x,5,x,0.5336660999746528,1,86,test2,1,0.5338757999998052,-48.0
9,pjy,f,19,r,2,(-3.163262682197613e-14, -172.20000000000002),27,25,4,yes,x,5,x,0.4930721999844536,1,87,test2,1,0.49327539998921566,-20.0
9,pjy,f,19,r,2,(-172.20000000000002, 2.1088417881317425e-14),25,3,1,yes,x,5,m,0.865565299987793,0,88,test2,1,0.8657199000008404,-42.0
9,pjy,f,19,r,2,(-121.76378772032348, 121.76378772032349),24,7,3,no,m,6,m,0.6602189000113867,1,89,test2,1,0.6603500999917742,-42.0
9,pjy,f,19,r,2,(-172.20000000000002, 2.1088417881317425e-14),25,-3,11,yes,x,5,x,0.5368736999807879,1,90,test2,1,0.5373029999900609,-48.0
9,pjy,f,19,r,2,(-121.76378772032348, 121.76378772032349),24,-25,14,yes,x,5,x,0.43996650000917725,1,91,test2,1,0.4402129999944009,-70.0
9,pjy,f,19,r,2,(121.76378772032349, 121.76378772032349),22,3,1,no,m,6,m,0.7251580999873113,1,92,test2,1,0.7252890999952797,-70.0
9,pjy,f,19,r,2,(-121.76378772032352, -121.76378772032348),26,3,1,yes,x,5,x,0.6531061000132468,1,93,test2,1,0.6533313999825623,-42.0
9,pjy,f,19,r,2,(-121.76378772032348, 121.76378772032349),24,5,2,yes,x,5,x,0.4892716000031214,1,94,test2,1,0.4895607999933418,-40.0
9,pjy,f,19,r,2,(121.76378772032349, 121.76378772032349),22,7,3,yes,x,5,x,0.5175139000057243,1,95,test2,1,0.5176167000026908,-38.0
9,pjy,f,19,r,2,(-172.20000000000002, 2.1088417881317425e-14),25,-5,12,no,m,6,m,0.6640532000164967,1,96,test2,1,0.6641558999835979,-38.0
9,pjy,f,19,r,2,(-172.20000000000002, 2.1088417881317425e-14),25,5,2,yes,x,5,x,0.5375356999866199,1,1,test1,2,0.5376328999991529,-40.0
9,pjy,f,19,r,2,(172.20000000000002, 0.0),21,-25,14,no,m,6,m,0.6514128999842796,1,2,test1,2,0.6515104999998584,-40.0
9,pjy,f,19,r,2,(1.0544208940658713e-14, 172.20000000000002),23,3,1,yes,x,5,m,0.7425494999915827,0,3,test1,2,0.7426514999824576,-42.0
9,pjy,f,19,r,2,(121.76378772032349, 121.76378772032349),22,5,2,yes,x,5,x,0.6482774000032805,1,4,test1,2,0.6484361999901012,-40.0
9,pjy,f,19,r,2,(1.0544208940658713e-14, 172.20000000000002),23,25,4,no,m,6,m,1.0540592000179458,1,5,test1,2,1.05432500000461,-40.0
9,pjy,f,19,r,2,(1.0544208940658713e-14, 172.20000000000002),23,5,2,yes,x,5,x,0.5256333000143059,1,6,test1,2,0.5257492000237107,-40.0
9,pjy,f,19,r,2,(121.76378772032349, 121.76378772032349),22,3,1,yes,x,5,m,0.6572903000051156,0,7,test1,2,0.6574177999864332,-42.0
9,pjy,f,19,r,2,(121.76378772032346, -121.76378772032352),28,-3,11,no,m,6,m,0.8093342000211123,1,8,test1,2,0.8095546999829821,-42.0
9,pjy,f,19,r,2,(121.76378772032346, -121.76378772032352),28,7,3,no,m,6,m,0.705237499991199,1,9,test1,2,0.7056826000043657,-42.0
9,pjy,f,19,r,2,(-3.163262682197613e-14, -172.20000000000002),27,5,2,yes,x,5,x,0.6751179999846499,1,10,test1,2,0.6754496000066865,-40.0
9,pjy,f,19,r,2,(-121.76378772032352, -121.76378772032348),26,3,1,no,m,6,m,0.7660725000023376,1,11,test1,2,0.7662399000255391,-40.0
9,pjy,f,19,r,2,(-121.76378772032348, 121.76378772032349),24,3,1,yes,x,5,x,0.5495040999958292,1,12,test1,2,0.5496630999841727,-42.0
9,pjy,f,19,r,2,(172.20000000000002, 0.0),21,-5,12,yes,x,5,x,0.5292137999786064,1,13,test1,2,0.5293292000133079,-50.0
9,pjy,f,19,r,2,(121.76378772032346, -121.76378772032352),28,3,1,no,m,6,x,0.8085485000046901,0,14,test1,2,0.8086674999794923,-50.0
9,pjy,f,19,r,2,(-172.20000000000002, 2.1088417881317425e-14),25,-7,13,yes,x,5,x,0.4571016999834683,1,15,test1,2,0.45726460000150837,-52.0
9,pjy,f,19,r,2,(-3.163262682197613e-14, -172.20000000000002),27,25,4,no,m,6,m,0.7077761000255123,1,16,test1,2,0.7080094999982975,-52.0
9,pjy,f,19,r,2,(1.0544208940658713e-14, 172.20000000000002),23,-3,11,no,m,6,m,0.608228400000371,1,17,test1,2,0.6086766999796964,-52.0
9,pjy,f,19,r,2,(172.20000000000002, 0.0),21,5,2,yes,x,5,x,0.5879979000019375,1,18,test1,2,0.588352400023723,-40.0
9,pjy,f,19,r,2,(172.20000000000002, 0.0),21,-3,11,yes,x,5,x,0.7372702000138815,1,19,test1,2,0.7374238999909721,-48.0
9,pjy,f,19,r,2,(-172.20000000000002, 2.1088417881317425e-14),25,7,3,yes,x,5,x,0.4698620999988634,1,20,test1,2,0.47001360001740977,-38.0
9,pjy,f,19,r,2,(172.20000000000002, 0.0),21,7,3,yes,x,5,x,0.5479859999904875,1,21,test1,2,0.5483604999899399,-38.0
9,pjy,f,19,r,2,(1.0544208940658713e-14, 172.20000000000002),23,-3,11,yes,x,5,x,0.704525899986038,1,22,test1,2,0.704824299988104,-48.0
9,pjy,f,19,r,2,(-172.20000000000002, 2.1088417881317425e-14),25,25,4,yes,x,5,x,0.4665594999969471,1,23,test1,2,0.4667865000083111,-20.0
9,pjy,f,19,r,2,(1.0544208940658713e-14, 172.20000000000002),23,-5,12,yes,x,5,x,0.4909713999950327,1,24,test1,2,0.4914493999967817,-50.0
9,pjy,f,19,r,2,(172.20000000000002, 0.0),21,-25,14,yes,x,5,x,0.44804330001352355,1,25,test1,2,0.448383399983868,-70.0
9,pjy,f,19,r,2,(-121.76378772032348, 121.76378772032349),24,-3,11,no,m,6,m,0.6633787000027951,1,26,test1,2,0.6634820000035688,-70.0
9,pjy,f,19,r,2,(172.20000000000002, 0.0),21,3,1,yes,x,5,x,0.5928368999739178,1,27,test1,2,0.5933488000009675,-42.0
9,pjy,f,19,r,2,(-121.76378772032352, -121.76378772032348),26,7,3,yes,x,5,x,0.48591819999273866,1,28,test1,2,0.4865531999967061,-38.0
9,pjy,f,19,r,2,(-121.76378772032352, -121.76378772032348),26,-3,11,no,m,6,m,0.7579050000058487,1,29,test1,2,0.758110900002066,-38.0
9,pjy,f,19,r,2,(172.20000000000002, 0.0),21,-3,11,yes,x,5,x,0.6242992000188679,1,30,test1,2,0.6245870999991894,-48.0
9,pjy,f,19,r,2,(-121.76378772032348, 121.76378772032349),24,-5,12,no,m,6,m,0.7439691000035964,1,31,test1,2,0.7443525000126101,-48.0
9,pjy,f,19,r,2,(-3.163262682197613e-14, -172.20000000000002),27,-3,11,yes,x,5,x,0.7445253999903798,1,32,test1,2,0.7447546999901533,-48.0
9,pjy,f,19,r,2,(-121.76378772032352, -121.76378772032348),26,-3,11,yes,x,5,x,0.6099345999828074,1,33,test1,2,0.6100594000017736,-48.0
9,pjy,f,19,r,2,(-121.76378772032348, 121.76378772032349),24,-25,14,yes,x,5,x,0.43551519999164157,1,34,test1,2,0.4356172000116203,-70.0
9,pjy,f,19,r,2,(-3.163262682197613e-14, -172.20000000000002),27,-25,14,yes,x,5,x,0.480005399993388,1,35,test1,2,0.48034629999892786,-70.0
9,pjy,f,19,r,2,(-172.20000000000002, 2.1088417881317425e-14),25,-25,14,no,m,6,m,0.691988600010518,1,36,test1,2,0.6923094000085257,-70.0
9,pjy,f,19,r,2,(-121.76378772032352, -121.76378772032348),26,7,3,yes,x,5,x,0.5129926999798045,1,37,test1,2,0.5132362000003923,-38.0
9,pjy,f,19,r,2,(-121.76378772032352, -121.76378772032348),26,-5,12,yes,x,5,x,0.47708819998661056,1,38,test1,2,0.47732210002141073,-50.0
9,pjy,f,19,r,2,(1.0544208940658713e-14, 172.20000000000002),23,-7,13,yes,x,5,x,0.503792399977101,1,39,test1,2,0.504281000001356,-52.0
9,pjy,f,19,r,2,(-172.20000000000002, 2.1088417881317425e-14),25,5,2,yes,x,5,x,0.4795074000139721,1,40,test1,2,0.47962930001085624,-40.0
9,pjy,f,19,r,2,(-3.163262682197613e-14, -172.20000000000002),27,-25,14,no,m,6,m,0.7194555999885779,1,41,test1,2,0.7195802999776788,-40.0
9,pjy,f,19,r,2,(-172.20000000000002, 2.1088417881317425e-14),25,-7,13,yes,x,5,x,0.5006239999784157,1,42,test1,2,0.5007273000082932,-52.0
9,pjy,f,19,r,2,(121.76378772032349, 121.76378772032349),22,-7,13,no,m,6,m,0.7093842999893241,1,43,test1,2,0.7094852000009269,-52.0
9,pjy,f,19,r,2,(172.20000000000002, 0.0),21,5,2,yes,x,5,x,0.5453418000251986,1,44,test1,2,0.5455269000085536,-40.0
9,pjy,f,19,r,2,(121.76378772032346, -121.76378772032352),28,-7,13,yes,x,5,x,0.5478620000067167,1,45,test1,2,0.5481473999971058,-52.0
9,pjy,f,19,r,2,(-3.163262682197613e-14, -172.20000000000002),27,-7,13,yes,x,5,x,0.6518173000076786,1,46,test1,2,0.6521662000159267,-52.0
9,pjy,f,19,r,2,(-172.20000000000002, 2.1088417881317425e-14),25,3,1,no,m,6,m,0.6607476999924984,1,47,test1,2,0.6616019000066444,-52.0
9,pjy,f,19,r,2,(-121.76378772032348, 121.76378772032349),24,3,1,yes,x,5,x,0.613264200015692,1,48,test1,2,0.613366399978986,-42.0
9,pjy,f,19,r,2,(-121.76378772032352, -121.76378772032348),26,-5,12,no,m,6,m,0.664869699976407,1,49,test1,2,0.6649977000197396,-42.0
9,pjy,f,19,r,2,(-121.76378772032348, 121.76378772032349),24,-5,12,yes,x,5,x,0.5628084000200033,1,50,test1,2,0.5631010000070091,-50.0
9,pjy,f,19,r,2,(1.0544208940658713e-14, 172.20000000000002),23,5,2,yes,x,5,x,0.6735180000250693,1,51,test1,2,0.6736822999955621,-40.0
9,pjy,f,19,r,2,(1.0544208940658713e-14, 172.20000000000002),23,-7,13,yes,x,5,x,0.4884992000006605,1,52,test1,2,0.4887075000151526,-52.0
9,pjy,f,19,r,2,(-3.163262682197613e-14, -172.20000000000002),27,-7,13,yes,x,5,x,0.571859299991047,1,53,test1,2,0.571961800014833,-52.0
9,pjy,f,19,r,2,(121.76378772032349, 121.76378772032349),22,-3,11,yes,x,5,x,0.7673587999888696,1,54,test1,2,0.7674587999936193,-48.0
9,pjy,f,19,r,2,(121.76378772032346, -121.76378772032352),28,5,2,no,m,6,m,0.7723680000053719,1,55,test1,2,0.7726351000019349,-48.0
9,pjy,f,19,r,2,(172.20000000000002, 0.0),21,-7,13,no,m,6,m,0.7200298999960069,1,56,test1,2,0.7201457000046503,-48.0
9,pjy,f,19,r,2,(121.76378772032346, -121.76378772032352),28,-3,11,yes,x,5,x,0.8112502000003587,1,57,test1,2,0.8122615999891423,-48.0
9,pjy,f,19,r,2,(-3.163262682197613e-14, -172.20000000000002),27,25,4,yes,x,5,x,0.45166739998967387,1,58,test1,2,0.4517853000143077,-20.0
9,pjy,f,19,r,2,(-3.163262682197613e-14, -172.20000000000002),27,3,1,no,m,6,m,0.5677489999798127,1,59,test1,2,0.567849799990654,-20.0
9,pjy,f,19,r,2,(-172.20000000000002, 2.1088417881317425e-14),25,7,3,no,m,6,m,0.7218871999939438,1,60,test1,2,0.7220399999932852,-20.0
9,pjy,f,19,r,2,(-172.20000000000002, 2.1088417881317425e-14),25,-25,14,yes,x,5,x,0.4522935999848414,1,61,test1,2,0.4525462999881711,-70.0
9,pjy,f,19,r,2,(121.76378772032349, 121.76378772032349),22,-5,12,no,m,6,m,0.5818399999989197,1,62,test1,2,0.5824173000000883,-70.0
9,pjy,f,19,r,2,(-121.76378772032352, -121.76378772032348),26,-5,12,yes,x,5,x,0.4381670000148006,1,63,test1,2,0.43830459998571314,-50.0
9,pjy,f,19,r,2,(1.0544208940658713e-14, 172.20000000000002),23,7,3,no,m,6,m,0.5981392999819946,1,64,test1,2,0.598271199996816,-50.0
9,pjy,f,19,r,2,(172.20000000000002, 0.0),21,25,4,yes,x,5,x,0.5066221999877598,1,65,test1,2,0.5067249000130687,-20.0
9,pjy,f,19,r,2,(-121.76378772032348, 121.76378772032349),24,-7,13,yes,x,5,x,0.4854833999997936,1,66,test1,2,0.4856173000007402,-52.0
9,pjy,f,19,r,2,(-121.76378772032348, 121.76378772032349),24,-25,14,no,m,6,m,0.6147588000167161,1,67,test1,2,0.6148969999921974,-52.0
9,pjy,f,19,r,2,(1.0544208940658713e-14, 172.20000000000002),23,25,4,yes,x,5,x,0.43713119998574257,1,68,test1,2,0.4373173000058159,-20.0
9,pjy,f,19,r,2,(121.76378772032346, -121.76378772032352),28,7,3,yes,x,5,x,0.6020235999894794,1,69,test1,2,0.6023617000028025,-38.0
9,pjy,f,19,r,2,(172.20000000000002, 0.0),21,7,3,yes,x,5,x,0.5134706999815535,1,70,test1,2,0.5137089999916498,-38.0
9,pjy,f,19,r,2,(-172.20000000000002, 2.1088417881317425e-14),25,25,4,no,m,6,m,0.5950014999834821,1,71,test1,2,0.5951088000147138,-38.0
9,pjy,f,19,r,2,(-3.163262682197613e-14, -172.20000000000002),27,-25,14,yes,x,5,x,0.5172359999851324,1,72,test1,2,0.517336199991405,-70.0
9,pjy,f,19,r,2,(172.20000000000002, 0.0),21,-3,11,no,m,6,m,0.7234288000036031,1,73,test1,2,0.7235573000216391,-70.0
9,pjy,f,19,r,2,(-121.76378772032352, -121.76378772032348),26,-3,11,yes,x,5,x,0.5895329999912065,1,74,test1,2,0.589820499997586,-48.0
9,pjy,f,19,r,2,(-121.76378772032352, -121.76378772032348),26,-7,13,no,m,6,m,0.8577227999921888,1,75,test1,2,0.8578926000045612,-48.0
9,pjy,f,19,r,2,(121.76378772032346, -121.76378772032352),28,5,2,yes,x,5,x,0.5471288999833632,1,76,test1,2,0.5472313000063878,-40.0
9,pjy,f,19,r,2,(121.76378772032346, -121.76378772032352),28,3,1,yes,x,5,x,0.7953403000137769,1,77,test1,2,0.7954398000147194,-42.0
9,pjy,f,19,r,2,(1.0544208940658713e-14, 172.20000000000002),23,5,2,no,m,6,m,0.7003077999979723,1,78,test1,2,0.7004377999983262,-42.0
9,pjy,f,19,r,2,(-3.163262682197613e-14, -172.20000000000002),27,7,3,yes,x,5,x,0.5879621999920346,1,79,test1,2,0.588078000000678,-38.0
9,pjy,f,19,r,2,(1.0544208940658713e-14, 172.20000000000002),23,-5,12,no,m,6,m,0.7349149999790825,1,80,test1,2,0.7352176000131294,-38.0
9,pjy,f,19,r,2,(121.76378772032346, -121.76378772032352),28,-5,12,yes,x,5,x,0.5348598999844398,1,81,test1,2,0.5349605000228621,-50.0
9,pjy,f,19,r,2,(-172.20000000000002, 2.1088417881317425e-14),25,-3,11,yes,x,5,x,0.689165799994953,1,82,test1,2,0.6896073000098113,-48.0
9,pjy,f,19,r,2,(1.0544208940658713e-14, 172.20000000000002),23,7,3,yes,x,5,x,0.5539928000071086,1,83,test1,2,0.5541200999869034,-38.0
9,pjy,f,19,r,2,(121.76378772032349, 121.76378772032349),22,-5,12,yes,x,5,x,0.5228960000094958,1,84,test1,2,0.5230224000115413,-50.0
9,pjy,f,19,r,2,(121.76378772032346, -121.76378772032352),28,25,4,yes,x,5,x,0.497551399981603,1,85,test1,2,0.4977154999796767,-20.0
9,pjy,f,19,r,2,(121.76378772032346, -121.76378772032352),28,-7,13,yes,x,5,x,0.46787889997358434,1,86,test1,2,0.4679945000098087,-52.0
9,pjy,f,19,r,2,(-121.76378772032348, 121.76378772032349),24,7,3,yes,x,5,x,0.4858084000006784,1,87,test1,2,0.48628519999329,-38.0
9,pjy,f,19,r,2,(-172.20000000000002, 2.1088417881317425e-14),25,-7,13,no,m,6,m,0.6078296999912709,1,88,test1,2,0.6079368000209797,-38.0
9,pjy,f,19,r,2,(1.0544208940658713e-14, 172.20000000000002),23,7,3,yes,x,5,x,0.43868960000691004,1,89,test1,2,0.4388624000130221,-38.0
9,pjy,f,19,r,2,(-121.76378772032352, -121.76378772032348),26,-25,14,yes,x,5,x,0.4228888000070583,1,90,test1,2,0.42313489998923615,-70.0
9,pjy,f,19,r,2,(-172.20000000000002, 2.1088417881317425e-14),25,5,2,no,m,6,m,0.5839579000021331,1,91,test1,2,0.5842082999879494,-70.0
9,pjy,f,19,r,2,(121.76378772032349, 121.76378772032349),22,-3,11,yes,x,5,x,0.5934068000060506,1,92,test1,2,0.5935064000077546,-48.0
9,pjy,f,19,r,2,(-172.20000000000002, 2.1088417881317425e-14),25,25,4,yes,x,5,x,0.4639329000201542,1,93,test1,2,0.46433170000091195,-20.0
9,pjy,f,19,r,2,(-3.163262682197613e-14, -172.20000000000002),27,-5,12,no,m,6,m,0.5968196999747306,1,94,test1,2,0.5970946000015829,-20.0
9,pjy,f,19,r,2,(-3.163262682197613e-14, -172.20000000000002),27,3,1,yes,x,5,x,0.6430388999870047,1,95,test1,2,0.6434078000020236,-42.0
9,pjy,f,19,r,2,(121.76378772032346, -121.76378772032352),28,-3,11,yes,x,5,x,0.7946818999771494,1,96,test1,2,0.7948456000012811,-48.0
9,pjy,f,19,r,2,(-3.163262682197613e-14, -172.20000000000002),27,7,3,yes,x,5,x,0.5829790999996476,1,1,test2,2,0.5831712999788579,-38.0
9,pjy,f,19,r,2,(1.0544208940658713e-14, 172.20000000000002),23,-5,12,yes,x,5,x,0.5087139999959618,1,2,test2,2,0.5088121000153478,-50.0
9,pjy,f,19,r,2,(-3.163262682197613e-14, -172.20000000000002),27,7,3,no,m,6,m,0.5755919999792241,1,3,test2,2,0.5758119999954943,-50.0
9,pjy,f,19,r,2,(121.76378772032346, -121.76378772032352),28,-25,14,no,m,6,m,0.6989786000049207,1,4,test2,2,0.6991392000054475,-50.0
9,pjy,f,19,r,2,(121.76378772032346, -121.76378772032352),28,-5,12,yes,x,5,x,0.5743836000037845,1,5,test2,2,0.5745897000015248,-50.0
9,pjy,f,19,r,2,(121.76378772032349, 121.76378772032349),22,5,2,no,m,6,m,0.5291119000175968,1,6,test2,2,0.5294223000237253,-50.0
9,pjy,f,19,r,2,(-121.76378772032348, 121.76378772032349),24,-5,12,yes,x,5,x,0.5428079999983311,1,7,test2,2,0.543020399985835,-50.0
9,pjy,f,19,r,2,(-121.76378772032352, -121.76378772032348),26,5,2,no,m,6,m,0.5630751000135206,1,8,test2,2,0.5632573000038974,-50.0
9,pjy,f,19,r,2,(172.20000000000002, 0.0),21,5,2,no,m,6,m,0.6625256000261288,1,9,test2,2,0.6626604999764822,-50.0
9,pjy,f,19,r,2,(-3.163262682197613e-14, -172.20000000000002),27,-7,13,no,m,6,m,0.5331442999886349,1,10,test2,2,0.533381899993401,-50.0
9,pjy,f,19,r,2,(172.20000000000002, 0.0),21,-5,12,yes,x,5,x,0.4917256999760866,1,11,test2,2,0.49202689999947324,-50.0
9,pjy,f,19,r,2,(172.20000000000002, 0.0),21,25,4,yes,x,5,x,0.3547363999823574,1,12,test2,2,0.35497770001529716,-20.0
9,pjy,f,19,r,2,(-172.20000000000002, 2.1088417881317425e-14),25,3,1,yes,x,5,x,0.4910972000216134,1,13,test2,2,0.4915704000159167,-42.0
9,pjy,f,19,r,2,(1.0544208940658713e-14, 172.20000000000002),23,-25,14,yes,x,5,x,0.3910223999992013,1,14,test2,2,0.3911602000007406,-70.0
9,pjy,f,19,r,2,(121.76378772032349, 121.76378772032349),22,3,1,yes,x,5,x,0.5521918000013102,1,15,test2,2,0.5525397000019439,-42.0
9,pjy,f,19,r,2,(-121.76378772032352, -121.76378772032348),26,3,1,yes,x,5,x,0.5894676000170875,1,16,test2,2,0.5897183000051882,-42.0
9,pjy,f,19,r,2,(121.76378772032349, 121.76378772032349),22,-7,13,yes,x,5,x,0.4842981999972835,1,17,test2,2,0.48445439999341033,-52.0
9,pjy,f,19,r,2,(-121.76378772032352, -121.76378772032348),26,-7,13,yes,x,5,x,0.4197805000003427,1,18,test2,2,0.4203808000020217,-52.0
9,pjy,f,19,r,2,(-121.76378772032352, -121.76378772032348),26,25,4,yes,x,5,x,0.36487140000099316,1,19,test2,2,0.36500650001107715,-20.0
9,pjy,f,19,r,2,(121.76378772032349, 121.76378772032349),22,-25,14,yes,x,5,x,0.4435809999995399,1,20,test2,2,0.4436800999974366,-70.0
9,pjy,f,19,r,2,(172.20000000000002, 0.0),21,-7,13,yes,x,5,x,0.43386170000303537,1,21,test2,2,0.4340255999995861,-52.0
9,pjy,f,19,r,2,(1.0544208940658713e-14, 172.20000000000002),23,-3,11,yes,x,5,x,0.48648859999957494,1,22,test2,2,0.48660480001126416,-48.0
9,pjy,f,19,r,2,(-3.163262682197613e-14, -172.20000000000002),27,5,2,no,m,6,m,0.8642352999886498,1,23,test2,2,0.8647118000080809,-48.0
9,pjy,f,19,r,2,(-121.76378772032348, 121.76378772032349),24,-7,13,no,m,6,m,0.7783302000025287,1,24,test2,2,0.7784328999987338,-48.0
9,pjy,f,19,r,2,(172.20000000000002, 0.0),21,-25,14,yes,x,5,x,0.4730072999955155,1,25,test2,2,0.4734760000137612,-70.0
9,pjy,f,19,r,2,(-121.76378772032348, 121.76378772032349),24,5,2,no,m,6,m,0.6641990000207443,1,26,test2,2,0.6642972000117879,-70.0
9,pjy,f,19,r,2,(-121.76378772032352, -121.76378772032348),26,5,2,yes,x,5,x,0.5099232000065967,1,27,test2,2,0.5103591000079177,-40.0
9,pjy,f,19,r,2,(-121.76378772032348, 121.76378772032349),24,-7,13,yes,x,5,x,0.4811833999992814,1,28,test2,2,0.48149299999931827,-52.0
9,pjy,f,19,r,2,(121.76378772032349, 121.76378772032349),22,25,4,yes,x,5,x,0.46056120001594536,1,29,test2,2,0.4608847000054084,-20.0
9,pjy,f,19,r,2,(-3.163262682197613e-14, -172.20000000000002),27,5,2,yes,x,5,x,0.5559643999731634,1,30,test2,2,0.5561870000092313,-40.0
9,pjy,f,19,r,2,(-3.163262682197613e-14, -172.20000000000002),27,-5,12,yes,x,5,x,0.491115400014678,1,31,test2,2,0.49136909999651834,-50.0
9,pjy,f,19,r,2,(-3.163262682197613e-14, -172.20000000000002),27,3,1,yes,x,5,x,0.5612108999921475,1,32,test2,2,0.5613114000007045,-42.0
9,pjy,f,19,r,2,(121.76378772032349, 121.76378772032349),22,-25,14,no,m,6,m,0.6805419999873266,1,33,test2,2,0.6807053999800701,-42.0
9,pjy,f,19,r,2,(172.20000000000002, 0.0),21,3,1,no,m,6,m,0.6492393999942578,1,34,test2,2,0.6494657999719493,-42.0
9,pjy,f,19,r,2,(-121.76378772032352, -121.76378772032348),26,-25,14,no,m,6,m,0.7590072000166401,1,35,test2,2,0.7592529999965336,-42.0
9,pjy,f,19,r,2,(121.76378772032349, 121.76378772032349),22,7,3,yes,x,5,x,0.5401379000104498,1,36,test2,2,0.5403700000024401,-38.0
9,pjy,f,19,r,2,(-121.76378772032348, 121.76378772032349),24,25,4,yes,x,5,x,0.40523279999615625,1,37,test2,2,0.40534609998576343,-20.0
9,pjy,f,19,r,2,(-121.76378772032348, 121.76378772032349),24,3,1,no,m,6,m,0.6432312999968417,1,38,test2,2,0.6434966000088025,-20.0
9,pjy,f,19,r,2,(121.76378772032346, -121.76378772032352),28,-5,12,no,m,6,m,0.5773687000037171,1,39,test2,2,0.577667300007306,-20.0
9,pjy,f,19,r,2,(121.76378772032346, -121.76378772032352),28,3,1,yes,x,5,m,0.6168156999920029,0,40,test2,2,0.6170315000053961,-42.0
9,pjy,f,19,r,2,(172.20000000000002, 0.0),21,-5,12,no,m,6,m,0.6157563000160735,1,41,test2,2,0.6160001000098418,-42.0
9,pjy,f,19,r,2,(172.20000000000002, 0.0),21,7,3,no,m,6,m,0.6986846000072546,1,42,test2,2,0.6992752999940421,-42.0
9,pjy,f,19,r,2,(-121.76378772032348, 121.76378772032349),24,-3,11,yes,x,5,x,0.5031231999746524,1,43,test2,2,0.5032266000052914,-48.0
9,pjy,f,19,r,2,(1.0544208940658713e-14, 172.20000000000002),23,3,1,no,m,6,m,0.7569190000067465,1,44,test2,2,0.7570215000014286,-48.0
9,pjy,f,19,r,2,(121.76378772032349, 121.76378772032349),22,5,2,yes,x,5,x,0.5636737000022549,1,45,test2,2,0.5637954999983776,-40.0
9,pjy,f,19,r,2,(-3.163262682197613e-14, -172.20000000000002),27,-3,11,no,m,6,m,0.6396928000031039,1,46,test2,2,0.639915599982487,-40.0
9,pjy,f,19,r,2,(-121.76378772032352, -121.76378772032348),26,7,3,no,m,6,x,0.7965905999881215,0,47,test2,2,0.796762400015723,-40.0
9,pjy,f,19,r,2,(172.20000000000002, 0.0),21,25,4,no,m,6,m,0.9243114000128116,1,48,test2,2,0.9244270999915898,-40.0
9,pjy,f,19,r,2,(121.76378772032346, -121.76378772032352),28,-25,14,yes,x,5,x,0.4285782999941148,1,49,test2,2,0.42867669998668134,-70.0
9,pjy,f,19,r,2,(-121.76378772032348, 121.76378772032349),24,25,4,yes,x,5,x,0.5045726999815088,1,50,test2,2,0.5046825000026729,-20.0
9,pjy,f,19,r,2,(-172.20000000000002, 2.1088417881317425e-14),25,-25,14,yes,x,5,x,0.4227653999987524,1,51,test2,2,0.4231001000152901,-70.0
9,pjy,f,19,r,2,(172.20000000000002, 0.0),21,-7,13,yes,x,5,x,0.5092936999863014,1,52,test2,2,0.5095225000113714,-52.0
9,pjy,f,19,r,2,(-121.76378772032352, -121.76378772032348),26,5,2,yes,x,5,x,0.46760899998480454,1,53,test2,2,0.468323999986751,-40.0
9,pjy,f,19,r,2,(-121.76378772032348, 121.76378772032349),24,5,2,yes,x,5,x,0.4530545999878086,1,54,test2,2,0.4531569999817293,-40.0
9,pjy,f,19,r,2,(-121.76378772032352, -121.76378772032348),26,25,4,yes,x,5,x,0.39278500000364147,1,55,test2,2,0.39288739999756217,-20.0
9,pjy,f,19,r,2,(-172.20000000000002, 2.1088417881317425e-14),25,-5,12,yes,x,5,x,0.42394639999838546,1,56,test2,2,0.4240496999991592,-50.0
9,pjy,f,19,r,2,(121.76378772032349, 121.76378772032349),22,-3,11,no,m,6,x,0.6154175999981817,0,57,test2,2,0.6155526000075042,-50.0
9,pjy,f,19,r,2,(-172.20000000000002, 2.1088417881317425e-14),25,7,3,yes,x,5,x,0.4754897999810055,1,58,test2,2,0.4757679000031203,-38.0
9,pjy,f,19,r,2,(1.0544208940658713e-14, 172.20000000000002),23,25,4,yes,x,5,x,0.47758999999496154,1,59,test2,2,0.4777886999945622,-20.0
9,pjy,f,19,r,2,(121.76378772032346, -121.76378772032352),28,7,3,yes,x,5,x,0.635441600024933,1,60,test2,2,0.635730899986811,-38.0
9,pjy,f,19,r,2,(-121.76378772032352, -121.76378772032348),26,25,4,no,m,6,m,0.6299434000102337,1,61,test2,2,0.6302920999878552,-38.0
9,pjy,f,19,r,2,(-172.20000000000002, 2.1088417881317425e-14),25,-5,12,yes,x,5,x,0.4569707000046037,1,62,test2,2,0.4570979999843985,-50.0
9,pjy,f,19,r,2,(121.76378772032349, 121.76378772032349),22,-5,12,yes,x,5,x,0.5019118999771308,1,63,test2,2,0.5020281999895815,-50.0
9,pjy,f,19,r,2,(1.0544208940658713e-14, 172.20000000000002),23,3,1,yes,x,5,m,1.0626432999852113,0,64,test2,2,1.0627450000029057,-42.0
9,pjy,f,19,r,2,(-121.76378772032352, -121.76378772032348),26,-25,14,yes,x,5,x,0.435915300011402,1,65,test2,2,0.43620550000923686,-70.0
9,pjy,f,19,r,2,(121.76378772032349, 121.76378772032349),22,-25,14,yes,x,5,x,0.4365885000152048,1,66,test2,2,0.43691150000086054,-70.0
9,pjy,f,19,r,2,(121.76378772032349, 121.76378772032349),22,25,4,no,m,6,m,0.5875162999727763,1,67,test2,2,0.5876159000035841,-70.0
9,pjy,f,19,r,2,(121.76378772032346, -121.76378772032352),28,5,2,yes,x,5,x,0.6187236999976449,1,68,test2,2,0.618924500013236,-40.0
9,pjy,f,19,r,2,(121.76378772032346, -121.76378772032352),28,25,4,yes,x,5,x,0.5061805000004824,1,69,test2,2,0.5065105000103358,-20.0
9,pjy,f,19,r,2,(-121.76378772032352, -121.76378772032348),26,-7,13,yes,x,5,x,0.46766379999462515,1,70,test2,2,0.46776269999099895,-52.0
9,pjy,f,19,r,2,(-121.76378772032348, 121.76378772032349),24,7,3,yes,x,5,x,0.45143990000360645,1,71,test2,2,0.4516775000083726,-38.0
9,pjy,f,19,r,2,(172.20000000000002, 0.0),21,3,1,yes,x,5,x,0.7180769999977201,1,72,test2,2,0.7181783999840263,-42.0
9,pjy,f,19,r,2,(121.76378772032346, -121.76378772032352),28,-7,13,no,m,6,m,0.7213577999791596,1,73,test2,2,0.7214755999739282,-42.0
9,pjy,f,19,r,2,(1.0544208940658713e-14, 172.20000000000002),23,-25,14,no,m,6,m,0.6339676000061445,1,74,test2,2,0.6341853000049014,-42.0
9,pjy,f,19,r,2,(121.76378772032349, 121.76378772032349),22,7,3,no,m,6,m,0.5897351000166964,1,75,test2,2,0.5901920000032987,-42.0
9,pjy,f,19,r,2,(1.0544208940658713e-14, 172.20000000000002),23,-7,13,no,m,6,m,0.5467931000166573,1,76,test2,2,0.5470703000028152,-42.0
9,pjy,f,19,r,2,(121.76378772032349, 121.76378772032349),22,25,4,yes,x,5,x,0.41464479998103343,1,77,test2,2,0.4150367999973241,-20.0
9,pjy,f,19,r,2,(-3.163262682197613e-14, -172.20000000000002),27,-3,11,yes,x,5,m,0.6827012999856379,0,78,test2,2,0.6833396999863908,-48.0
9,pjy,f,19,r,2,(1.0544208940658713e-14, 172.20000000000002),23,-25,14,yes,x,5,x,0.43912840000120923,1,79,test2,2,0.4394478999893181,-70.0
9,pjy,f,19,r,2,(121.76378772032346, -121.76378772032352),28,-25,14,yes,x,5,x,0.4994567999965511,1,80,test2,2,0.5000028999929782,-70.0
9,pjy,f,19,r,2,(-172.20000000000002, 2.1088417881317425e-14),25,-3,11,no,m,6,m,0.6276899999938905,1,81,test2,2,0.6278216999780852,-70.0
9,pjy,f,19,r,2,(-3.163262682197613e-14, -172.20000000000002),27,-5,12,yes,x,5,x,0.5973269999958575,1,82,test2,2,0.597473000001628,-50.0
9,pjy,f,19,r,2,(121.76378772032349, 121.76378772032349),22,-7,13,yes,x,5,x,0.5528988000005484,1,83,test2,2,0.5530501999892294,-52.0
9,pjy,f,19,r,2,(-121.76378772032348, 121.76378772032349),24,25,4,no,m,6,m,0.8622098999912851,1,84,test2,2,0.8623535999795422,-52.0
9,pjy,f,19,r,2,(121.76378772032346, -121.76378772032352),28,25,4,no,m,6,m,0.6736330999992788,1,85,test2,2,0.6739480000105686,-52.0
9,pjy,f,19,r,2,(-121.76378772032348, 121.76378772032349),24,-3,11,yes,x,5,x,1.0684117999917362,1,86,test2,2,1.0688183000020217,-48.0
9,pjy,f,19,r,2,(-3.163262682197613e-14, -172.20000000000002),27,25,4,yes,x,5,x,0.5113133000268135,1,87,test2,2,0.511485700000776,-20.0
9,pjy,f,19,r,2,(-172.20000000000002, 2.1088417881317425e-14),25,3,1,yes,x,5,x,0.6984109999903012,1,88,test2,2,0.6986933000152931,-42.0
9,pjy,f,19,r,2,(-121.76378772032348, 121.76378772032349),24,7,3,no,m,6,m,0.651295800023945,1,89,test2,2,0.6514229000022169,-42.0
9,pjy,f,19,r,2,(-172.20000000000002, 2.1088417881317425e-14),25,-3,11,yes,x,5,x,0.5248032000090461,1,90,test2,2,0.524938899994595,-48.0
9,pjy,f,19,r,2,(-121.76378772032348, 121.76378772032349),24,-25,14,yes,x,5,x,0.490401799994288,1,91,test2,2,0.49093030000221916,-70.0
9,pjy,f,19,r,2,(121.76378772032349, 121.76378772032349),22,3,1,no,m,6,m,0.6531861000112258,1,92,test2,2,0.6533098999934737,-70.0
9,pjy,f,19,r,2,(-121.76378772032352, -121.76378772032348),26,3,1,yes,x,5,x,0.5748106999963056,1,93,test2,2,0.5749598999973387,-42.0
9,pjy,f,19,r,2,(-121.76378772032348, 121.76378772032349),24,5,2,yes,x,5,x,0.5160368000215385,1,94,test2,2,0.5163520999776665,-40.0
9,pjy,f,19,r,2,(121.76378772032349, 121.76378772032349),22,7,3,yes,x,5,x,0.5321890999912284,1,95,test2,2,0.5323539999953937,-38.0
9,pjy,f,19,r,2,(-172.20000000000002, 2.1088417881317425e-14),25,-5,12,no,m,6,m,0.5918637000140734,1,96,test2,2,0.5919585000083316,-38.0
9,pjy,f,19,r,2,(-172.20000000000002, 2.1088417881317425e-14),25,5,2,yes,x,5,x,0.6011303999985103,1,1,test1,3,0.6012561999959871,-40.0
9,pjy,f,19,r,2,(172.20000000000002, 0.0),21,-25,14,no,m,6,m,0.570029099995736,1,2,test1,3,0.5707226000085939,-40.0
9,pjy,f,19,r,2,(1.0544208940658713e-14, 172.20000000000002),23,3,1,yes,x,5,x,0.46279009999125265,1,3,test1,3,0.463461199979065,-42.0
9,pjy,f,19,r,2,(121.76378772032349, 121.76378772032349),22,5,2,yes,x,5,x,0.5618527999904472,1,4,test1,3,0.5620841000054497,-40.0
9,pjy,f,19,r,2,(1.0544208940658713e-14, 172.20000000000002),23,25,4,no,m,6,m,0.5842382999835536,1,5,test1,3,0.5843728999898303,-40.0
9,pjy,f,19,r,2,(1.0544208940658713e-14, 172.20000000000002),23,5,2,yes,x,5,x,0.48015660000965,1,6,test1,3,0.48084850001032464,-40.0
9,pjy,f,19,r,2,(121.76378772032349, 121.76378772032349),22,3,1,yes,x,5,x,0.5144029000075534,1,7,test1,3,0.5146707999811042,-42.0
9,pjy,f,19,r,2,(121.76378772032346, -121.76378772032352),28,-3,11,no,m,6,m,0.5960286999761593,1,8,test1,3,0.596257599972887,-42.0
9,pjy,f,19,r,2,(121.76378772032346, -121.76378772032352),28,7,3,no,m,6,m,0.7162929000041913,1,9,test1,3,0.7169349999749102,-42.0
9,pjy,f,19,r,2,(-3.163262682197613e-14, -172.20000000000002),27,5,2,yes,x,5,x,0.4594756999867968,1,10,test1,3,0.45957710000220686,-40.0
9,pjy,f,19,r,2,(-121.76378772032352, -121.76378772032348),26,3,1,no,m,6,m,0.5650021000183187,1,11,test1,3,0.5651302000042051,-40.0
9,pjy,f,19,r,2,(-121.76378772032348, 121.76378772032349),24,3,1,yes,x,5,x,0.5824889999930747,1,12,test1,3,0.5827785000146832,-42.0
9,pjy,f,19,r,2,(172.20000000000002, 0.0),21,-5,12,yes,x,5,x,0.563443199993344,1,13,test1,3,0.5636137999827042,-50.0
9,pjy,f,19,r,2,(121.76378772032346, -121.76378772032352),28,3,1,no,m,6,m,0.7546563999785576,1,14,test1,3,0.7547824000066612,-50.0
9,pjy,f,19,r,2,(-172.20000000000002, 2.1088417881317425e-14),25,-7,13,yes,x,5,x,0.4796636000100989,1,15,test1,3,0.47976460002246313,-52.0
9,pjy,f,19,r,2,(-3.163262682197613e-14, -172.20000000000002),27,25,4,no,m,6,m,0.6044132999959402,1,16,test1,3,0.604604099993594,-52.0
9,pjy,f,19,r,2,(1.0544208940658713e-14, 172.20000000000002),23,-3,11,no,m,6,m,0.6893223999941256,1,17,test1,3,0.689453400002094,-52.0
9,pjy,f,19,r,2,(172.20000000000002, 0.0),21,5,2,yes,x,5,x,0.5482688999909442,1,18,test1,3,0.5483695000002626,-40.0
9,pjy,f,19,r,2,(172.20000000000002, 0.0),21,-3,11,yes,x,5,x,0.6710512999852654,1,19,test1,3,0.6712801000103354,-48.0
9,pjy,f,19,r,2,(-172.20000000000002, 2.1088417881317425e-14),25,7,3,yes,x,5,x,0.43667250001453795,1,20,test1,3,0.4369262999971397,-38.0
9,pjy,f,19,r,2,(172.20000000000002, 0.0),21,7,3,yes,x,5,x,0.5205973999982234,1,21,test1,3,0.521191000007093,-38.0
9,pjy,f,19,r,2,(1.0544208940658713e-14, 172.20000000000002),23,-3,11,yes,x,5,x,0.6537887000013143,1,22,test1,3,0.6539027999970131,-48.0
9,pjy,f,19,r,2,(-172.20000000000002, 2.1088417881317425e-14),25,25,4,yes,x,5,x,0.5059807999932673,1,23,test1,3,0.506111199996667,-20.0
9,pjy,f,19,r,2,(1.0544208940658713e-14, 172.20000000000002),23,-5,12,yes,x,5,x,0.5196214000170585,1,24,test1,3,0.5199928000220098,-50.0
9,pjy,f,19,r,2,(172.20000000000002, 0.0),21,-25,14,yes,x,5,x,0.4612036000180524,1,25,test1,3,0.4613037999952212,-70.0
9,pjy,f,19,r,2,(-121.76378772032348, 121.76378772032349),24,-3,11,no,m,6,m,0.6632888999884017,1,26,test1,3,0.663498099980643,-70.0
9,pjy,f,19,r,2,(172.20000000000002, 0.0),21,3,1,yes,x,5,x,0.6117818000202533,1,27,test1,3,0.611943900003098,-42.0
9,pjy,f,19,r,2,(-121.76378772032352, -121.76378772032348),26,7,3,yes,x,5,x,0.538511999999173,1,28,test1,3,0.5387279999849852,-38.0
9,pjy,f,19,r,2,(-121.76378772032352, -121.76378772032348),26,-3,11,no,m,6,m,1.1341844999988098,1,29,test1,3,1.134302199992817,-38.0
9,pjy,f,19,r,2,(172.20000000000002, 0.0),21,-3,11,yes,x,5,x,0.6513851000054274,1,30,test1,3,0.6519662000064272,-48.0
9,pjy,f,19,r,2,(-121.76378772032348, 121.76378772032349),24,-5,12,no,m,6,m,0.6571722000080626,1,31,test1,3,0.6574063999869395,-48.0
9,pjy,f,19,r,2,(-3.163262682197613e-14, -172.20000000000002),27,-3,11,yes,x,5,x,0.7004730000044219,1,32,test1,3,0.7006904999725521,-48.0
9,pjy,f,19,r,2,(-121.76378772032352, -121.76378772032348),26,-3,11,yes,x,5,x,0.7008211000065785,1,33,test1,3,0.7013620999932755,-48.0
9,pjy,f,19,r,2,(-121.76378772032348, 121.76378772032349),24,-25,14,yes,x,5,x,0.443908300017938,1,34,test1,3,0.4441515999787953,-70.0
9,pjy,f,19,r,2,(-3.163262682197613e-14, -172.20000000000002),27,-25,14,yes,x,5,x,0.43473109998740256,1,35,test1,3,0.4351619000080973,-70.0
9,pjy,f,19,r,2,(-172.20000000000002, 2.1088417881317425e-14),25,-25,14,no,m,6,m,0.8618886000185739,1,36,test1,3,0.8620229999942239,-70.0
9,pjy,f,19,r,2,(-121.76378772032352, -121.76378772032348),26,7,3,yes,x,5,x,0.5238875999930315,1,37,test1,3,0.5241122000152245,-38.0
9,pjy,f,19,r,2,(-121.76378772032352, -121.76378772032348),26,-5,12,yes,x,5,x,0.46650770000997,1,38,test1,3,0.46662570000626147,-50.0
9,pjy,f,19,r,2,(1.0544208940658713e-14, 172.20000000000002),23,-7,13,yes,x,5,x,0.5904332000063732,1,39,test1,3,0.5907348000037018,-52.0
9,pjy,f,19,r,2,(-172.20000000000002, 2.1088417881317425e-14),25,5,2,yes,x,5,x,0.49488539999583736,1,40,test1,3,0.49518599998555146,-40.0
9,pjy,f,19,r,2,(-3.163262682197613e-14, -172.20000000000002),27,-25,14,no,m,6,m,0.7002096000069287,1,41,test1,3,0.7004731000051834,-40.0
9,pjy,f,19,r,2,(-172.20000000000002, 2.1088417881317425e-14),25,-7,13,yes,x,5,x,0.4870280000031926,1,42,test1,3,0.4876100999827031,-52.0
9,pjy,f,19,r,2,(121.76378772032349, 121.76378772032349),22,-7,13,no,m,6,m,0.6271927999914624,1,43,test1,3,0.6273576999956276,-52.0
9,pjy,f,19,r,2,(172.20000000000002, 0.0),21,5,2,yes,x,5,x,0.6644968999898992,1,44,test1,3,0.6649124000105076,-40.0
9,pjy,f,19,r,2,(121.76378772032346, -121.76378772032352),28,-7,13,yes,x,5,x,0.6377140999829862,1,45,test1,3,0.6378123000031337,-52.0
9,pjy,f,19,r,2,(-3.163262682197613e-14, -172.20000000000002),27,-7,13,yes,x,5,x,0.599910999997519,1,46,test1,3,0.6000824999937322,-52.0
9,pjy,f,19,r,2,(-172.20000000000002, 2.1088417881317425e-14),25,3,1,no,m,6,m,0.7373578999831807,1,47,test1,3,0.7376833000162151,-52.0
9,pjy,f,19,r,2,(-121.76378772032348, 121.76378772032349),24,3,1,yes,x,5,x,0.5997210999776144,1,48,test1,3,0.6000437999900896,-42.0
9,pjy,f,19,r,2,(-121.76378772032352, -121.76378772032348),26,-5,12,no,m,6,m,0.7074764000135474,1,49,test1,3,0.7077827999892179,-42.0
9,pjy,f,19,r,2,(-121.76378772032348, 121.76378772032349),24,-5,12,yes,x,5,x,0.5101499000156764,1,50,test1,3,0.5103644999908283,-50.0
9,pjy,f,19,r,2,(1.0544208940658713e-14, 172.20000000000002),23,5,2,yes,x,5,x,0.5010707000037655,1,51,test1,3,0.5012371000193525,-40.0
9,pjy,f,19,r,2,(1.0544208940658713e-14, 172.20000000000002),23,-7,13,yes,x,5,x,0.505038200004492,1,52,test1,3,0.5052070000092499,-52.0
9,pjy,f,19,r,2,(-3.163262682197613e-14, -172.20000000000002),27,-7,13,yes,x,5,x,0.5764173000061419,1,53,test1,3,0.5771219000162091,-52.0
9,pjy,f,19,r,2,(121.76378772032349, 121.76378772032349),22,-3,11,yes,x,5,m,0.8656510000000708,0,54,test1,3,0.8659486999968067,-48.0
9,pjy,f,19,r,2,(121.76378772032346, -121.76378772032352),28,5,2,no,m,6,m,0.7701326000096742,1,55,test1,3,0.7705383000138681,-48.0
9,pjy,f,19,r,2,(172.20000000000002, 0.0),21,-7,13,no,m,6,m,0.883873599988874,1,56,test1,3,0.8842948999954388,-48.0
9,pjy,f,19,r,2,(121.76378772032346, -121.76378772032352),28,-3,11,yes,x,5,x,1.2614640000101645,1,57,test1,3,1.2615695999993477,-48.0
9,pjy,f,19,r,2,(-3.163262682197613e-14, -172.20000000000002),27,25,4,yes,x,5,x,0.4746365000028163,1,58,test1,3,0.47494089999236166,-20.0
9,pjy,f,19,r,2,(-3.163262682197613e-14, -172.20000000000002),27,3,1,no,m,6,m,0.6512205000035465,1,59,test1,3,0.6514476999873295,-20.0
9,pjy,f,19,r,2,(-172.20000000000002, 2.1088417881317425e-14),25,7,3,no,m,6,m,0.7305356999859214,1,60,test1,3,0.730780500016408,-20.0
9,pjy,f,19,r,2,(-172.20000000000002, 2.1088417881317425e-14),25,-25,14,yes,x,5,x,0.5506493999855593,1,61,test1,3,0.550745900021866,-70.0
9,pjy,f,19,r,2,(121.76378772032349, 121.76378772032349),22,-5,12,no,m,6,m,0.6680044000095222,1,62,test1,3,0.6683220000122674,-70.0
9,pjy,f,19,r,2,(-121.76378772032352, -121.76378772032348),26,-5,12,yes,x,5,x,0.5345437000214588,1,63,test1,3,0.5346835000091232,-50.0
9,pjy,f,19,r,2,(1.0544208940658713e-14, 172.20000000000002),23,7,3,no,m,6,m,0.6999507000145968,1,64,test1,3,0.7005863999947906,-50.0
9,pjy,f,19,r,2,(172.20000000000002, 0.0),21,25,4,yes,x,5,x,0.5027780999953393,1,65,test1,3,0.5028727000171784,-20.0
9,pjy,f,19,r,2,(-121.76378772032348, 121.76378772032349),24,-7,13,yes,x,5,x,0.5323949000157882,1,66,test1,3,0.5325261999969371,-52.0
9,pjy,f,19,r,2,(-121.76378772032348, 121.76378772032349),24,-25,14,no,m,6,m,0.7494751999911387,1,67,test1,3,0.7496972999942955,-52.0
9,pjy,f,19,r,2,(1.0544208940658713e-14, 172.20000000000002),23,25,4,yes,x,5,x,0.5028524000081234,1,68,test1,3,0.5029882999951951,-20.0
9,pjy,f,19,r,2,(121.76378772032346, -121.76378772032352),28,7,3,yes,x,5,x,0.5789740000036545,1,69,test1,3,0.5792333999997936,-38.0
9,pjy,f,19,r,2,(172.20000000000002, 0.0),21,7,3,yes,x,5,x,0.5507620999997016,1,70,test1,3,0.5509000000020023,-38.0
9,pjy,f,19,r,2,(-172.20000000000002, 2.1088417881317425e-14),25,25,4,no,m,6,m,0.8411317999998573,1,71,test1,3,0.841430299973581,-38.0
9,pjy,f,19,r,2,(-3.163262682197613e-14, -172.20000000000002),27,-25,14,yes,x,5,x,0.5152975000091828,1,72,test1,3,0.5155873000039719,-70.0
9,pjy,f,19,r,2,(172.20000000000002, 0.0),21,-3,11,no,m,6,m,0.6898456999915652,1,73,test1,3,0.6900805000041146,-70.0
9,pjy,f,19,r,2,(-121.76378772032352, -121.76378772032348),26,-3,11,yes,x,5,x,0.5486603000026662,1,74,test1,3,0.5489020000095479,-48.0
9,pjy,f,19,r,2,(-121.76378772032352, -121.76378772032348),26,-7,13,no,m,6,m,0.7107339999929536,1,75,test1,3,0.7113117999979295,-48.0
9,pjy,f,19,r,2,(121.76378772032346, -121.76378772032352),28,5,2,yes,x,5,x,0.5794418000150472,1,76,test1,3,0.5798973000200931,-40.0
9,pjy,f,19,r,2,(121.76378772032346, -121.76378772032352),28,3,1,yes,x,5,x,0.614163299993379,1,77,test1,3,0.6144364999781828,-42.0
9,pjy,f,19,r,2,(1.0544208940658713e-14, 172.20000000000002),23,5,2,no,m,6,m,0.6723531000025105,1,78,test1,3,0.672567599976901,-42.0
9,pjy,f,19,r,2,(-3.163262682197613e-14, -172.20000000000002),27,7,3,yes,x,5,x,0.5706562999985181,1,79,test1,3,0.571158499980811,-38.0
9,pjy,f,19,r,2,(1.0544208940658713e-14, 172.20000000000002),23,-5,12,no,m,6,m,0.7147777999925893,1,80,test1,3,0.7148700999969151,-38.0
9,pjy,f,19,r,2,(121.76378772032346, -121.76378772032352),28,-5,12,yes,x,5,x,0.5753068999911193,1,81,test1,3,0.5756679000041913,-50.0
9,pjy,f,19,r,2,(-172.20000000000002, 2.1088417881317425e-14),25,-3,11,yes,x,5,x,0.6492338000098243,1,82,test1,3,0.6493606000149157,-48.0
9,pjy,f,19,r,2,(1.0544208940658713e-14, 172.20000000000002),23,7,3,yes,x,5,x,0.5448546999832615,1,83,test1,3,0.5450509999936912,-38.0
9,pjy,f,19,r,2,(121.76378772032349, 121.76378772032349),22,-5,12,yes,x,5,x,0.5440036999934819,1,84,test1,3,0.5441075999988243,-50.0
9,pjy,f,19,r,2,(121.76378772032346, -121.76378772032352),28,25,4,yes,x,5,x,0.5637682999949902,1,85,test1,3,0.5638685000012629,-20.0
9,pjy,f,19,r,2,(121.76378772032346, -121.76378772032352),28,-7,13,yes,x,5,x,0.5070046999899205,1,86,test1,3,0.5073037999973167,-52.0
9,pjy,f,19,r,2,(-121.76378772032348, 121.76378772032349),24,7,3,yes,x,5,x,0.466956799995387,1,87,test1,3,0.4671894999919459,-38.0
9,pjy,f,19,r,2,(-172.20000000000002, 2.1088417881317425e-14),25,-7,13,no,m,6,m,0.7174083999998402,1,88,test1,3,0.717508200003067,-38.0
9,pjy,f,19,r,2,(1.0544208940658713e-14, 172.20000000000002),23,7,3,yes,x,5,x,0.5381830999976955,1,89,test1,3,0.5383381000137888,-38.0
9,pjy,f,19,r,2,(-121.76378772032352, -121.76378772032348),26,-25,14,yes,x,5,x,0.47274829997331835,1,90,test1,3,0.47327370001585223,-70.0
9,pjy,f,19,r,2,(-172.20000000000002, 2.1088417881317425e-14),25,5,2,no,m,6,m,0.7606514999934006,1,91,test1,3,0.7607719000079669,-70.0
9,pjy,f,19,r,2,(121.76378772032349, 121.76378772032349),22,-3,11,yes,x,5,x,0.6066099999879953,1,92,test1,3,0.6068185000040103,-48.0
9,pjy,f,19,r,2,(-172.20000000000002, 2.1088417881317425e-14),25,25,4,yes,x,5,x,0.46514300000853837,1,93,test1,3,0.46526109997648746,-20.0
9,pjy,f,19,r,2,(-3.163262682197613e-14, -172.20000000000002),27,-5,12,no,m,6,m,0.6342404999886639,1,94,test1,3,0.6345874999824446,-20.0
9,pjy,f,19,r,2,(-3.163262682197613e-14, -172.20000000000002),27,3,1,yes,x,5,x,0.9842469999857713,1,95,test1,3,0.984362700022757,-42.0
9,pjy,f,19,r,2,(121.76378772032346, -121.76378772032352),28,-3,11,yes,x,5,x,0.7327818000048865,1,96,test1,3,0.732912600011332,-48.0
9,pjy,f,19,r,2,(-3.163262682197613e-14, -172.20000000000002),27,7,3,yes,x,5,x,0.5822768000070937,1,1,test2,3,0.5825139999797102,-38.0
9,pjy,f,19,r,2,(1.0544208940658713e-14, 172.20000000000002),23,-5,12,yes,x,5,x,0.5229121000156738,1,2,test2,3,0.5230741999985185,-50.0
9,pjy,f,19,r,2,(-3.163262682197613e-14, -172.20000000000002),27,7,3,no,m,6,m,0.6389823999779765,1,3,test2,3,0.639105300011579,-50.0
9,pjy,f,19,r,2,(121.76378772032346, -121.76378772032352),28,-25,14,no,m,6,m,0.5659588999988046,1,4,test2,3,0.5661957999982405,-50.0
9,pjy,f,19,r,2,(121.76378772032346, -121.76378772032352),28,-5,12,yes,x,5,x,0.6518975999788381,1,5,test2,3,0.652066200011177,-50.0
9,pjy,f,19,r,2,(121.76378772032349, 121.76378772032349),22,5,2,no,m,6,m,0.6010263999924064,1,6,test2,3,0.6012129999871831,-50.0
9,pjy,f,19,r,2,(-121.76378772032348, 121.76378772032349),24,-5,12,yes,x,5,x,0.5497678999963682,1,7,test2,3,0.5498666999919806,-50.0
9,pjy,f,19,r,2,(-121.76378772032352, -121.76378772032348),26,5,2,no,m,6,m,0.750311400013743,1,8,test2,3,0.7507108999998309,-50.0
9,pjy,f,19,r,2,(172.20000000000002, 0.0),21,5,2,no,m,6,x,0.7152924999827519,0,9,test2,3,0.7153939999989234,-50.0
9,pjy,f,19,r,2,(-3.163262682197613e-14, -172.20000000000002),27,-7,13,no,m,6,m,0.7335978999908548,1,10,test2,3,0.7337124999903608,-50.0
9,pjy,f,19,r,2,(172.20000000000002, 0.0),21,-5,12,yes,x,5,x,0.5606425000005402,1,11,test2,3,0.5608787999954075,-50.0
9,pjy,f,19,r,2,(172.20000000000002, 0.0),21,25,4,yes,x,5,x,0.4702351999876555,1,12,test2,3,0.47035390001838095,-20.0
9,pjy,f,19,r,2,(-172.20000000000002, 2.1088417881317425e-14),25,3,1,yes,x,5,x,0.7816516000020783,1,13,test2,3,0.7819513000140432,-42.0
9,pjy,f,19,r,2,(1.0544208940658713e-14, 172.20000000000002),23,-25,14,yes,x,5,x,0.43366740000783466,1,14,test2,3,0.434183999983361,-70.0
9,pjy,f,19,r,2,(121.76378772032349, 121.76378772032349),22,3,1,yes,x,5,x,0.7171819999930449,1,15,test2,3,0.7175245999824256,-42.0
9,pjy,f,19,r,2,(-121.76378772032352, -121.76378772032348),26,3,1,yes,x,5,x,0.6703189999971073,1,16,test2,3,0.670726200012723,-42.0
9,pjy,f,19,r,2,(121.76378772032349, 121.76378772032349),22,-7,13,yes,x,5,x,0.48157269999501295,1,17,test2,3,0.4818749999976717,-52.0
9,pjy,f,19,r,2,(-121.76378772032352, -121.76378772032348),26,-7,13,yes,x,5,x,0.5331637999915984,1,18,test2,3,0.533264900004724,-52.0
9,pjy,f,19,r,2,(-121.76378772032352, -121.76378772032348),26,25,4,yes,x,5,x,0.4072020000021439,1,19,test2,3,0.4073651999933645,-20.0
9,pjy,f,19,r,2,(121.76378772032349, 121.76378772032349),22,-25,14,yes,x,5,x,0.4559255999920424,1,20,test2,3,0.4565584999800194,-70.0
9,pjy,f,19,r,2,(172.20000000000002, 0.0),21,-7,13,yes,x,5,x,0.5082630999968387,1,21,test2,3,0.5083784000016749,-52.0
9,pjy,f,19,r,2,(1.0544208940658713e-14, 172.20000000000002),23,-3,11,yes,x,5,x,0.49494000000413507,1,22,test2,3,0.49516369999037124,-48.0
9,pjy,f,19,r,2,(-3.163262682197613e-14, -172.20000000000002),27,5,2,no,m,6,m,0.8752406000276096,1,23,test2,3,0.875471400009701,-48.0
9,pjy,f,19,r,2,(-121.76378772032348, 121.76378772032349),24,-7,13,no,m,6,m,0.6489340999978594,1,24,test2,3,0.6490313000103924,-48.0
9,pjy,f,19,r,2,(172.20000000000002, 0.0),21,-25,14,yes,x,5,x,0.4296156999771483,1,25,test2,3,0.4299475000007078,-70.0
9,pjy,f,19,r,2,(-121.76378772032348, 121.76378772032349),24,5,2,no,m,6,m,0.8925434999982826,1,26,test2,3,0.8926704000041354,-70.0
9,pjy,f,19,r,2,(-121.76378772032352, -121.76378772032348),26,5,2,yes,x,5,x,0.5556083000265062,1,27,test2,3,0.5557988000218756,-40.0
9,pjy,f,19,r,2,(-121.76378772032348, 121.76378772032349),24,-7,13,yes,x,5,x,0.5253243000188377,1,28,test2,3,0.5262420000217389,-52.0
9,pjy,f,19,r,2,(121.76378772032349, 121.76378772032349),22,25,4,yes,x,5,x,0.5920139000227209,1,29,test2,3,0.5922606999811251,-20.0
9,pjy,f,19,r,2,(-3.163262682197613e-14, -172.20000000000002),27,5,2,yes,x,5,x,0.777318499982357,1,30,test2,3,0.7775525000179186,-40.0
9,pjy,f,19,r,2,(-3.163262682197613e-14, -172.20000000000002),27,-5,12,yes,x,5,x,0.5014434999902733,1,31,test2,3,0.5016312999941874,-50.0
9,pjy,f,19,r,2,(-3.163262682197613e-14, -172.20000000000002),27,3,1,yes,x,5,x,0.4755031999957282,1,32,test2,3,0.47573770000599325,-42.0
9,pjy,f,19,r,2,(121.76378772032349, 121.76378772032349),22,-25,14,no,m,6,m,0.702589699998498,1,33,test2,3,0.7027222000178881,-42.0
9,pjy,f,19,r,2,(172.20000000000002, 0.0),21,3,1,no,m,6,m,0.7583380000141915,1,34,test2,3,0.7584725999913644,-42.0
9,pjy,f,19,r,2,(-121.76378772032352, -121.76378772032348),26,-25,14,no,m,6,m,0.6354562999913469,1,35,test2,3,0.6357019999995828,-42.0
9,pjy,f,19,r,2,(121.76378772032349, 121.76378772032349),22,7,3,yes,x,5,x,0.500640399986878,1,36,test2,3,0.5007364000193775,-38.0
9,pjy,f,19,r,2,(-121.76378772032348, 121.76378772032349),24,25,4,yes,x,5,x,0.49671639999723993,1,37,test2,3,0.49700689999735914,-20.0
9,pjy,f,19,r,2,(-121.76378772032348, 121.76378772032349),24,3,1,no,m,6,m,0.6786409000051208,1,38,test2,3,0.6788817000051495,-20.0
9,pjy,f,19,r,2,(121.76378772032346, -121.76378772032352),28,-5,12,no,m,6,m,0.7371979999879841,1,39,test2,3,0.737490399973467,-20.0
9,pjy,f,19,r,2,(121.76378772032346, -121.76378772032352),28,3,1,yes,x,5,x,0.6383271999948192,1,40,test2,3,0.6384250000119209,-42.0
9,pjy,f,19,r,2,(172.20000000000002, 0.0),21,-5,12,no,m,6,m,0.7839741999923717,1,41,test2,3,0.7840963999915402,-42.0
9,pjy,f,19,r,2,(172.20000000000002, 0.0),21,7,3,no,m,6,m,0.8510484000144061,1,42,test2,3,0.8513820999942254,-42.0
9,pjy,f,19,r,2,(-121.76378772032348, 121.76378772032349),24,-3,11,yes,x,5,m,0.8222531999927014,0,43,test2,3,0.8223586000094656,-48.0
9,pjy,f,19,r,2,(1.0544208940658713e-14, 172.20000000000002),23,3,1,no,m,6,m,0.8423765999905299,1,44,test2,3,0.8425412000215147,-48.0
9,pjy,f,19,r,2,(121.76378772032349, 121.76378772032349),22,5,2,yes,x,5,x,0.5629954000178259,1,45,test2,3,0.5634041999874171,-40.0
9,pjy,f,19,r,2,(-3.163262682197613e-14, -172.20000000000002),27,-3,11,no,m,6,m,0.7003422999987379,1,46,test2,3,0.7004539999761619,-40.0
9,pjy,f,19,r,2,(-121.76378772032352, -121.76378772032348),26,7,3,no,m,6,m,0.8701266999996733,1,47,test2,3,0.8704081000178121,-40.0
9,pjy,f,19,r,2,(172.20000000000002, 0.0),21,25,4,no,m,6,m,0.8225576000113506,1,48,test2,3,0.8226796000089962,-40.0
9,pjy,f,19,r,2,(121.76378772032346, -121.76378772032352),28,-25,14,yes,x,5,x,0.466023100016173,1,49,test2,3,0.4661635000084061,-70.0
9,pjy,f,19,r,2,(-121.76378772032348, 121.76378772032349),24,25,4,yes,x,5,x,0.4879038000071887,1,50,test2,3,0.4883702000079211,-20.0
9,pjy,f,19,r,2,(-172.20000000000002, 2.1088417881317425e-14),25,-25,14,yes,x,5,x,0.47658360001514666,1,51,test2,3,0.47680400000535883,-70.0
9,pjy,f,19,r,2,(172.20000000000002, 0.0),21,-7,13,yes,x,5,x,0.5494209000025876,1,52,test2,3,0.5495578999980353,-52.0
9,pjy,f,19,r,2,(-121.76378772032352, -121.76378772032348),26,5,2,yes,x,5,x,0.5578213999979198,1,53,test2,3,0.558050399995409,-40.0
9,pjy,f,19,r,2,(-121.76378772032348, 121.76378772032349),24,5,2,yes,x,5,x,0.562593000009656,1,54,test2,3,0.5626928999845404,-40.0
9,pjy,f,19,r,2,(-121.76378772032352, -121.76378772032348),26,25,4,yes,x,5,x,0.4852171999809798,1,55,test2,3,0.48545480001484975,-20.0
9,pjy,f,19,r,2,(-172.20000000000002, 2.1088417881317425e-14),25,-5,12,yes,x,5,x,0.5269606999936514,1,56,test2,3,0.5271855999890249,-50.0
9,pjy,f,19,r,2,(121.76378772032349, 121.76378772032349),22,-3,11,no,m,6,x,0.9405885000014678,0,57,test2,3,0.940687499998603,-50.0
9,pjy,f,19,r,2,(-172.20000000000002, 2.1088417881317425e-14),25,7,3,yes,x,5,x,0.5104416999965906,1,58,test2,3,0.5105688000039663,-38.0
9,pjy,f,19,r,2,(1.0544208940658713e-14, 172.20000000000002),23,25,4,yes,x,5,x,0.4847169000131544,1,59,test2,3,0.48488040000665933,-20.0
9,pjy,f,19,r,2,(121.76378772032346, -121.76378772032352),28,7,3,yes,x,5,x,0.7432410000183154,1,60,test2,3,0.7433477000158746,-38.0
9,pjy,f,19,r,2,(-121.76378772032352, -121.76378772032348),26,25,4,no,m,6,m,0.9926507000054698,1,61,test2,3,0.9929052000225056,-38.0
9,pjy,f,19,r,2,(-172.20000000000002, 2.1088417881317425e-14),25,-5,12,yes,x,5,x,0.5003262000100221,1,62,test2,3,0.5004473000008147,-50.0
9,pjy,f,19,r,2,(121.76378772032349, 121.76378772032349),22,-5,12,yes,x,5,x,0.601124400011031,1,63,test2,3,0.6012629000179004,-50.0
9,pjy,f,19,r,2,(1.0544208940658713e-14, 172.20000000000002),23,3,1,yes,x,5,x,1.2873664000071585,1,64,test2,3,1.2874891000101343,-42.0
9,pjy,f,19,r,2,(-121.76378772032352, -121.76378772032348),26,-25,14,yes,x,5,x,0.5374398000130896,1,65,test2,3,0.5377208999998402,-70.0
9,pjy,f,19,r,2,(121.76378772032349, 121.76378772032349),22,-25,14,yes,x,5,x,0.5353553000022657,1,66,test2,3,0.5354879999940749,-70.0
9,pjy,f,19,r,2,(121.76378772032349, 121.76378772032349),22,25,4,no,m,6,m,0.9985535999876447,1,67,test2,3,0.9987212000123691,-70.0
9,pjy,f,19,r,2,(121.76378772032346, -121.76378772032352),28,5,2,yes,x,5,x,0.661941400001524,1,68,test2,3,0.6623085000028368,-40.0
9,pjy,f,19,r,2,(121.76378772032346, -121.76378772032352),28,25,4,yes,x,5,x,0.5190083000052255,1,69,test2,3,0.5191136999928858,-20.0
9,pjy,f,19,r,2,(-121.76378772032352, -121.76378772032348),26,-7,13,yes,x,5,x,0.48313119998783804,1,70,test2,3,0.4835327999899164,-52.0
9,pjy,f,19,r,2,(-121.76378772032348, 121.76378772032349),24,7,3,yes,x,5,x,0.49329099999158643,1,71,test2,3,0.4935215000004973,-38.0
9,pjy,f,19,r,2,(172.20000000000002, 0.0),21,3,1,yes,x,5,x,0.7772151999815833,1,72,test2,3,0.7773188000137452,-42.0
9,pjy,f,19,r,2,(121.76378772032346, -121.76378772032352),28,-7,13,no,m,6,m,0.9621383000048809,1,73,test2,3,0.9623745999997482,-42.0
9,pjy,f,19,r,2,(1.0544208940658713e-14, 172.20000000000002),23,-25,14,no,m,6,m,0.8307892000011634,1,74,test2,3,0.8308916999958456,-42.0
9,pjy,f,19,r,2,(121.76378772032349, 121.76378772032349),22,7,3,no,m,6,m,0.7287979999964591,1,75,test2,3,0.7291911999927834,-42.0
9,pjy,f,19,r,2,(1.0544208940658713e-14, 172.20000000000002),23,-7,13,no,m,6,m,0.5731385999824852,1,76,test2,3,0.5733716000104323,-42.0
9,pjy,f,19,r,2,(121.76378772032349, 121.76378772032349),22,25,4,yes,x,5,x,0.4762029999983497,1,77,test2,3,0.4763286999950651,-20.0
9,pjy,f,19,r,2,(-3.163262682197613e-14, -172.20000000000002),27,-3,11,yes,x,5,x,0.7455311999947298,1,78,test2,3,0.7457412999938242,-48.0
9,pjy,f,19,r,2,(1.0544208940658713e-14, 172.20000000000002),23,-25,14,yes,x,5,x,0.4968421999947168,1,79,test2,3,0.49715839998680167,-70.0
9,pjy,f,19,r,2,(121.76378772032346, -121.76378772032352),28,-25,14,yes,x,5,x,0.4818061999976635,1,80,test2,3,0.48243050000746734,-70.0
9,pjy,f,19,r,2,(-172.20000000000002, 2.1088417881317425e-14),25,-3,11,no,m,6,m,0.7969933999993373,1,81,test2,3,0.7971223000204191,-70.0
9,pjy,f,19,r,2,(-3.163262682197613e-14, -172.20000000000002),27,-5,12,yes,x,5,x,0.5641792000096757,1,82,test2,3,0.5644958000048064,-50.0
9,pjy,f,19,r,2,(121.76378772032349, 121.76378772032349),22,-7,13,yes,x,5,x,0.5237112000177149,1,83,test2,3,0.5239344000001438,-52.0
9,pjy,f,19,r,2,(-121.76378772032348, 121.76378772032349),24,25,4,no,m,6,m,0.6957173999981023,1,84,test2,3,0.6959485000115819,-52.0
9,pjy,f,19,r,2,(121.76378772032346, -121.76378772032352),28,25,4,no,m,6,m,0.7075085999967996,1,85,test2,3,0.7076662000035867,-52.0
9,pjy,f,19,r,2,(-121.76378772032348, 121.76378772032349),24,-3,11,yes,x,5,x,0.649462700006552,1,86,test2,3,0.6496895000163931,-48.0
9,pjy,f,19,r,2,(-3.163262682197613e-14, -172.20000000000002),27,25,4,yes,x,5,x,0.4639618000073824,1,87,test2,3,0.46413390000816435,-20.0
9,pjy,f,19,r,2,(-172.20000000000002, 2.1088417881317425e-14),25,3,1,yes,x,5,x,0.9870215999835636,1,88,test2,3,0.987179699994158,-42.0
9,pjy,f,19,r,2,(-121.76378772032348, 121.76378772032349),24,7,3,no,m,6,m,0.6761468000186142,1,89,test2,3,0.6763902999809943,-42.0
9,pjy,f,19,r,2,(-172.20000000000002, 2.1088417881317425e-14),25,-3,11,yes,x,5,x,0.5590933999919798,1,90,test2,3,0.5592090999998618,-48.0
9,pjy,f,19,r,2,(-121.76378772032348, 121.76378772032349),24,-25,14,yes,x,5,x,0.5075685000047088,1,91,test2,3,0.5076737999916077,-70.0
9,pjy,f,19,r,2,(121.76378772032349, 121.76378772032349),22,3,1,no,m,6,m,0.7152370999974664,1,92,test2,3,0.7153675000008661,-70.0
9,pjy,f,19,r,2,(-121.76378772032352, -121.76378772032348),26,3,1,yes,x,5,x,0.7069140000094194,1,93,test2,3,0.7070147999911569,-42.0
9,pjy,f,19,r,2,(-121.76378772032348, 121.76378772032349),24,5,2,yes,x,5,x,0.5506215000059456,1,94,test2,3,0.5508174000133295,-40.0
9,pjy,f,19,r,2,(121.76378772032349, 121.76378772032349),22,7,3,yes,x,5,x,0.5312166000076104,1,95,test2,3,0.5314270999806467,-38.0
9,pjy,f,19,r,2,(-172.20000000000002, 2.1088417881317425e-14),25,-5,12,no,m,6,m,0.6989163999969605,1,96,test2,3,0.6990706999786198,-38.0
9,pjy,f,19,r,2,(-172.20000000000002, 2.1088417881317425e-14),25,5,2,yes,x,5,x,0.6087726000114344,1,1,test1,4,0.6088768999907188,-40.0
9,pjy,f,19,r,2,(172.20000000000002, 0.0),21,-25,14,no,m,6,m,0.7505649999948218,1,2,test1,4,0.7506687999994028,-40.0
9,pjy,f,19,r,2,(1.0544208940658713e-14, 172.20000000000002),23,3,1,yes,x,5,x,0.8706035999930464,1,3,test1,4,0.8709825999976601,-42.0
9,pjy,f,19,r,2,(121.76378772032349, 121.76378772032349),22,5,2,yes,x,5,x,0.48687100000097416,1,4,test1,4,0.487153699999908,-40.0
9,pjy,f,19,r,2,(1.0544208940658713e-14, 172.20000000000002),23,25,4,no,m,6,m,0.5985682000173256,1,5,test1,4,0.598726500000339,-40.0
9,pjy,f,19,r,2,(1.0544208940658713e-14, 172.20000000000002),23,5,2,yes,x,5,x,0.6050666000228375,1,6,test1,4,0.6051680000091437,-40.0
9,pjy,f,19,r,2,(121.76378772032349, 121.76378772032349),22,3,1,yes,x,5,x,0.6561027999850921,1,7,test1,4,0.656262800010154,-42.0
9,pjy,f,19,r,2,(121.76378772032346, -121.76378772032352),28,-3,11,no,m,6,m,0.6019964000151958,1,8,test1,4,0.6021425999933854,-42.0
9,pjy,f,19,r,2,(121.76378772032346, -121.76378772032352),28,7,3,no,m,6,m,0.6576453000016045,1,9,test1,4,0.6579589999746531,-42.0
9,pjy,f,19,r,2,(-3.163262682197613e-14, -172.20000000000002),27,5,2,yes,x,5,x,0.48649330000625923,1,10,test1,4,0.48679619998438284,-40.0
9,pjy,f,19,r,2,(-121.76378772032352, -121.76378772032348),26,3,1,no,m,6,m,0.6214365000196267,1,11,test1,4,0.6215685000061058,-40.0
9,pjy,f,19,r,2,(-121.76378772032348, 121.76378772032349),24,3,1,yes,x,5,x,0.527289900026517,1,12,test1,4,0.5273905999783892,-42.0
9,pjy,f,19,r,2,(172.20000000000002, 0.0),21,-5,12,yes,x,5,x,0.5098910999950022,1,13,test1,4,0.5101050999946892,-50.0
9,pjy,f,19,r,2,(121.76378772032346, -121.76378772032352),28,3,1,no,m,6,m,0.5670770000142511,1,14,test1,4,0.5672341999888886,-50.0
9,pjy,f,19,r,2,(-172.20000000000002, 2.1088417881317425e-14),25,-7,13,yes,x,5,x,0.3812438999884762,1,15,test1,4,0.3814898999989964,-52.0
9,pjy,f,19,r,2,(-3.163262682197613e-14, -172.20000000000002),27,25,4,no,m,6,m,0.5398549000092316,1,16,test1,4,0.5401045000180602,-52.0
9,pjy,f,19,r,2,(1.0544208940658713e-14, 172.20000000000002),23,-3,11,no,m,6,m,0.4720297000021674,1,17,test1,4,0.472233700013021,-52.0
9,pjy,f,19,r,2,(172.20000000000002, 0.0),21,5,2,yes,x,5,x,0.4869386999926064,1,18,test1,4,0.4870962999993935,-40.0
9,pjy,f,19,r,2,(172.20000000000002, 0.0),21,-3,11,yes,x,5,x,0.5530242000240833,1,19,test1,4,0.5532720000192057,-48.0
9,pjy,f,19,r,2,(-172.20000000000002, 2.1088417881317425e-14),25,7,3,yes,x,5,x,0.411593199998606,1,20,test1,4,0.4119372999994084,-38.0
9,pjy,f,19,r,2,(172.20000000000002, 0.0),21,7,3,yes,x,5,x,0.4308500000042841,1,21,test1,4,0.43101470000692643,-38.0
9,pjy,f,19,r,2,(1.0544208940658713e-14, 172.20000000000002),23,-3,11,yes,x,5,x,0.6588962999812793,1,22,test1,4,0.6591764999902807,-48.0
9,pjy,f,19,r,2,(-172.20000000000002, 2.1088417881317425e-14),25,25,4,yes,x,5,x,0.4365612000110559,1,23,test1,4,0.4368051000055857,-20.0
9,pjy,f,19,r,2,(1.0544208940658713e-14, 172.20000000000002),23,-5,12,yes,x,5,x,0.49375059999874793,1,24,test1,4,0.493901999987429,-50.0
9,pjy,f,19,r,2,(172.20000000000002, 0.0),21,-25,14,yes,x,5,x,0.4598870999761857,1,25,test1,4,0.4599881999893114,-70.0
9,pjy,f,19,r,2,(-121.76378772032348, 121.76378772032349),24,-3,11,no,m,6,m,0.5907262999971863,1,26,test1,4,0.5908268000057433,-70.0
9,pjy,f,19,r,2,(172.20000000000002, 0.0),21,3,1,yes,x,5,x,0.6016557999828365,1,27,test1,4,0.6017587999813259,-42.0
9,pjy,f,19,r,2,(-121.76378772032352, -121.76378772032348),26,7,3,yes,x,5,x,0.5029817000031471,1,28,test1,4,0.5031427999783773,-38.0
9,pjy,f,19,r,2,(-121.76378772032352, -121.76378772032348),26,-3,11,no,m,6,m,0.6358736999973189,1,29,test1,4,0.6359700000029989,-38.0
9,pjy,f,19,r,2,(172.20000000000002, 0.0),21,-3,11,yes,x,5,x,0.48946159999468364,1,30,test1,4,0.4895611999963876,-48.0
9,pjy,f,19,r,2,(-121.76378772032348, 121.76378772032349),24,-5,12,no,m,6,m,0.6359961999987718,1,31,test1,4,0.6362041000102181,-48.0
9,pjy,f,19,r,2,(-3.163262682197613e-14, -172.20000000000002),27,-3,11,yes,x,5,x,0.6501558000163641,1,32,test1,4,0.6506933000055142,-48.0
9,pjy,f,19,r,2,(-121.76378772032352, -121.76378772032348),26,-3,11,yes,x,5,x,0.557582800014643,1,33,test1,4,0.5576786999881733,-48.0
9,pjy,f,19,r,2,(-121.76378772032348, 121.76378772032349),24,-25,14,yes,x,5,x,0.47209929997916333,1,34,test1,4,0.4726739000179805,-70.0
9,pjy,f,19,r,2,(-3.163262682197613e-14, -172.20000000000002),27,-25,14,yes,x,5,x,0.4593631000025198,1,35,test1,4,0.4595019999833312,-70.0
9,pjy,f,19,r,2,(-172.20000000000002, 2.1088417881317425e-14),25,-25,14,no,m,6,m,0.6111227000073995,1,36,test1,4,0.6113394999993034,-70.0
9,pjy,f,19,r,2,(-121.76378772032352, -121.76378772032348),26,7,3,yes,x,5,x,0.46470709997811355,1,37,test1,4,0.4648143000085838,-38.0
9,pjy,f,19,r,2,(-121.76378772032352, -121.76378772032348),26,-5,12,yes,x,5,x,0.4294180999859236,1,38,test1,4,0.42951780001749285,-50.0
9,pjy,f,19,r,2,(1.0544208940658713e-14, 172.20000000000002),23,-7,13,yes,x,5,x,0.4584123999811709,1,39,test1,4,0.45879090001108125,-52.0
9,pjy,f,19,r,2,(-172.20000000000002, 2.1088417881317425e-14),25,5,2,yes,x,5,x,0.5110155000002123,1,40,test1,4,0.5112594999955036,-40.0
9,pjy,f,19,r,2,(-3.163262682197613e-14, -172.20000000000002),27,-25,14,no,m,6,m,0.6062511999916751,1,41,test1,4,0.606363800005056,-40.0
9,pjy,f,19,r,2,(-172.20000000000002, 2.1088417881317425e-14),25,-7,13,yes,x,5,x,0.5167198000126518,1,42,test1,4,0.516821000026539,-52.0
9,pjy,f,19,r,2,(121.76378772032349, 121.76378772032349),22,-7,13,no,m,6,m,0.5467214999953285,1,43,test1,4,0.5473207000177354,-52.0
9,pjy,f,19,r,2,(172.20000000000002, 0.0),21,5,2,yes,x,5,x,0.5751101000059862,1,44,test1,4,0.575331499974709,-40.0
9,pjy,f,19,r,2,(121.76378772032346, -121.76378772032352),28,-7,13,yes,x,5,x,0.5242362999997567,1,45,test1,4,0.5246774000115693,-52.0
9,pjy,f,19,r,2,(-3.163262682197613e-14, -172.20000000000002),27,-7,13,yes,x,5,x,0.5387380000029225,1,46,test1,4,0.5389922000176739,-52.0
9,pjy,f,19,r,2,(-172.20000000000002, 2.1088417881317425e-14),25,3,1,no,m,6,m,0.5739378999860492,1,47,test1,4,0.5742732000071555,-52.0
9,pjy,f,19,r,2,(-121.76378772032348, 121.76378772032349),24,3,1,yes,x,5,x,0.6287394000100903,1,48,test1,4,0.6289625999925192,-42.0
9,pjy,f,19,r,2,(-121.76378772032352, -121.76378772032348),26,-5,12,no,m,6,m,0.637663400004385,1,49,test1,4,0.6380033000023104,-42.0
9,pjy,f,19,r,2,(-121.76378772032348, 121.76378772032349),24,-5,12,yes,x,5,x,0.4374637999862898,1,50,test1,4,0.437562600011006,-50.0
9,pjy,f,19,r,2,(1.0544208940658713e-14, 172.20000000000002),23,5,2,yes,x,5,x,0.5072366000094917,1,51,test1,4,0.5074899999890476,-40.0
9,pjy,f,19,r,2,(1.0544208940658713e-14, 172.20000000000002),23,-7,13,yes,x,5,x,0.38532829997711815,1,52,test1,4,0.3854437000118196,-52.0
9,pjy,f,19,r,2,(-3.163262682197613e-14, -172.20000000000002),27,-7,13,yes,x,5,x,0.4780398999864701,1,53,test1,4,0.47862519999034703,-52.0
9,pjy,f,19,r,2,(121.76378772032349, 121.76378772032349),22,-3,11,yes,x,5,m,0.6350906000006944,0,54,test1,4,0.6354082999750972,-48.0
9,pjy,f,19,r,2,(121.76378772032346, -121.76378772032352),28,5,2,no,m,6,m,0.7719958999950904,1,55,test1,4,0.7721923999779392,-48.0
9,pjy,f,19,r,2,(172.20000000000002, 0.0),21,-7,13,no,m,6,m,0.6458492000238039,1,56,test1,4,0.6459598000219557,-48.0
9,pjy,f,19,r,2,(121.76378772032346, -121.76378772032352),28,-3,11,yes,x,5,x,0.6358169000013731,1,57,test1,4,0.6359845999977551,-48.0
9,pjy,f,19,r,2,(-3.163262682197613e-14, -172.20000000000002),27,25,4,yes,x,5,x,0.40468730000429787,1,58,test1,4,0.40528249999624677,-20.0
9,pjy,f,19,r,2,(-3.163262682197613e-14, -172.20000000000002),27,3,1,no,m,6,m,0.7171058999956585,1,59,test1,4,0.7173720000137109,-20.0
9,pjy,f,19,r,2,(-172.20000000000002, 2.1088417881317425e-14),25,7,3,no,m,6,m,0.7740648999752011,1,60,test1,4,0.7741948000038974,-20.0
9,pjy,f,19,r,2,(-172.20000000000002, 2.1088417881317425e-14),25,-25,14,yes,x,5,x,0.46280200002365746,1,61,test1,4,0.4630215000070166,-70.0
9,pjy,f,19,r,2,(121.76378772032349, 121.76378772032349),22,-5,12,no,m,6,m,0.7054063999967184,1,62,test1,4,0.7055334000033326,-70.0
9,pjy,f,19,r,2,(-121.76378772032352, -121.76378772032348),26,-5,12,yes,x,5,x,0.5018591999833006,1,63,test1,4,0.5019668000168167,-50.0
9,pjy,f,19,r,2,(1.0544208940658713e-14, 172.20000000000002),23,7,3,no,m,6,m,0.6250628000125289,1,64,test1,4,0.6251638999965508,-50.0
9,pjy,f,19,r,2,(172.20000000000002, 0.0),21,25,4,yes,x,5,x,0.4725882000057027,1,65,test1,4,0.47298330001649447,-20.0
9,pjy,f,19,r,2,(-121.76378772032348, 121.76378772032349),24,-7,13,yes,x,5,x,0.5707973999960814,1,66,test1,4,0.5709382999921218,-52.0
9,pjy,f,19,r,2,(-121.76378772032348, 121.76378772032349),24,-25,14,no,m,6,m,0.7397371999977622,1,67,test1,4,0.7400386999943294,-52.0
9,pjy,f,19,r,2,(1.0544208940658713e-14, 172.20000000000002),23,25,4,yes,x,5,x,0.4078764999867417,1,68,test1,4,0.40799509998760186,-20.0
9,pjy,f,19,r,2,(121.76378772032346, -121.76378772032352),28,7,3,yes,x,5,x,0.5215572000015527,1,69,test1,4,0.5217322000244167,-38.0
9,pjy,f,19,r,2,(172.20000000000002, 0.0),21,7,3,yes,x,5,x,0.4606676999828778,1,70,test1,4,0.4612409000110347,-38.0
9,pjy,f,19,r,2,(-172.20000000000002, 2.1088417881317425e-14),25,25,4,no,m,6,m,0.6650272000115365,1,71,test1,4,0.6651890999928582,-38.0
9,pjy,f,19,r,2,(-3.163262682197613e-14, -172.20000000000002),27,-25,14,yes,x,5,x,0.4402844999858644,1,72,test1,4,0.44040779999340884,-70.0
9,pjy,f,19,r,2,(172.20000000000002, 0.0),21,-3,11,no,m,6,m,0.6183941999915987,1,73,test1,4,0.6188086000038311,-70.0
9,pjy,f,19,r,2,(-121.76378772032352, -121.76378772032348),26,-3,11,yes,x,5,x,0.5514343999966513,1,74,test1,4,0.551943400001619,-48.0
9,pjy,f,19,r,2,(-121.76378772032352, -121.76378772032348),26,-7,13,no,m,6,m,0.639766200009035,1,75,test1,4,0.6399303000071086,-48.0
9,pjy,f,19,r,2,(121.76378772032346, -121.76378772032352),28,5,2,yes,x,5,x,0.5568413000146393,1,76,test1,4,0.5570097000163514,-40.0
9,pjy,f,19,r,2,(121.76378772032346, -121.76378772032352),28,3,1,yes,x,5,x,0.7818092000088654,1,77,test1,4,0.782004800013965,-42.0
9,pjy,f,19,r,2,(1.0544208940658713e-14, 172.20000000000002),23,5,2,no,m,6,m,0.6596980000031181,1,78,test1,4,0.660248700005468,-42.0
9,pjy,f,19,r,2,(-3.163262682197613e-14, -172.20000000000002),27,7,3,yes,x,5,x,0.5087223000009544,1,79,test1,4,0.5088277000177186,-38.0
9,pjy,f,19,r,2,(1.0544208940658713e-14, 172.20000000000002),23,-5,12,no,m,6,m,0.60636269999668,1,80,test1,4,0.6065837000205647,-38.0
9,pjy,f,19,r,2,(121.76378772032346, -121.76378772032352),28,-5,12,yes,x,5,x,0.5877074000018183,1,81,test1,4,0.5878356999892276,-50.0
9,pjy,f,19,r,2,(-172.20000000000002, 2.1088417881317425e-14),25,-3,11,yes,x,5,x,0.68179100000998,1,82,test1,4,0.6820795000239741,-48.0
9,pjy,f,19,r,2,(1.0544208940658713e-14, 172.20000000000002),23,7,3,yes,x,5,x,0.5354494000202976,1,83,test1,4,0.535561400000006,-38.0
9,pjy,f,19,r,2,(121.76378772032349, 121.76378772032349),22,-5,12,yes,x,5,x,0.5746539999963716,1,84,test1,4,0.5747550999803934,-50.0
9,pjy,f,19,r,2,(121.76378772032346, -121.76378772032352),28,25,4,yes,x,5,x,0.44764469997608103,1,85,test1,4,0.4480720999999903,-20.0
9,pjy,f,19,r,2,(121.76378772032346, -121.76378772032352),28,-7,13,yes,x,5,x,0.5335151999897789,1,86,test1,4,0.5336191999958828,-52.0
9,pjy,f,19,r,2,(-121.76378772032348, 121.76378772032349),24,7,3,yes,x,5,x,0.5064004000159912,1,87,test1,4,0.5065699999977369,-38.0
9,pjy,f,19,r,2,(-172.20000000000002, 2.1088417881317425e-14),25,-7,13,no,m,6,m,0.6312098000198603,1,88,test1,4,0.6314704999967944,-38.0
9,pjy,f,19,r,2,(1.0544208940658713e-14, 172.20000000000002),23,7,3,yes,x,5,x,0.5140953999944031,1,89,test1,4,0.514770799985854,-38.0
9,pjy,f,19,r,2,(-121.76378772032352, -121.76378772032348),26,-25,14,yes,x,5,x,0.4427424000168685,1,90,test1,4,0.44305490000988357,-70.0
9,pjy,f,19,r,2,(-172.20000000000002, 2.1088417881317425e-14),25,5,2,no,m,6,m,0.6423678999999538,1,91,test1,4,0.642528600001242,-70.0
9,pjy,f,19,r,2,(121.76378772032349, 121.76378772032349),22,-3,11,yes,x,5,x,0.5899655000248458,1,92,test1,4,0.5902776000148151,-48.0
9,pjy,f,19,r,2,(-172.20000000000002, 2.1088417881317425e-14),25,25,4,yes,x,5,x,0.4886953999812249,1,93,test1,4,0.48879679999663495,-20.0
9,pjy,f,19,r,2,(-3.163262682197613e-14, -172.20000000000002),27,-5,12,no,m,6,m,0.6446035000262782,1,94,test1,4,0.644822700007353,-20.0
9,pjy,f,19,r,2,(-3.163262682197613e-14, -172.20000000000002),27,3,1,yes,x,5,x,0.8483975999988616,1,95,test1,4,0.8486942000163253,-42.0
9,pjy,f,19,r,2,(121.76378772032346, -121.76378772032352),28,-3,11,yes,x,5,x,0.6980583000113256,1,96,test1,4,0.6983391999965534,-48.0
9,pjy,f,19,r,2,(-3.163262682197613e-14, -172.20000000000002),27,7,3,yes,x,5,x,0.5036143000179436,1,1,test2,4,0.5037136999890208,-38.0
9,pjy,f,19,r,2,(1.0544208940658713e-14, 172.20000000000002),23,-5,12,yes,x,5,x,0.4672003999876324,1,2,test2,4,0.4672949999803677,-50.0
9,pjy,f,19,r,2,(-3.163262682197613e-14, -172.20000000000002),27,7,3,no,m,6,m,0.5973633999819867,1,3,test2,4,0.5974895999825094,-50.0
9,pjy,f,19,r,2,(121.76378772032346, -121.76378772032352),28,-25,14,no,m,6,m,0.5733071999857202,1,4,test2,4,0.5734091000049375,-50.0
9,pjy,f,19,r,2,(121.76378772032346, -121.76378772032352),28,-5,12,yes,x,5,x,0.5228880000067875,1,5,test2,4,0.5233449999941513,-50.0
9,pjy,f,19,r,2,(121.76378772032349, 121.76378772032349),22,5,2,no,m,6,m,0.5770946000120603,1,6,test2,4,0.577235800010385,-50.0
9,pjy,f,19,r,2,(-121.76378772032348, 121.76378772032349),24,-5,12,yes,x,5,x,0.4906914999883156,1,7,test2,4,0.49079900002107024,-50.0
9,pjy,f,19,r,2,(-121.76378772032352, -121.76378772032348),26,5,2,no,m,6,m,0.6736276999872644,1,8,test2,4,0.674115100002382,-50.0
9,pjy,f,19,r,2,(172.20000000000002, 0.0),21,5,2,no,m,6,m,0.7813438999874052,1,9,test2,4,0.7820622999861371,-50.0
9,pjy,f,19,r,2,(-3.163262682197613e-14, -172.20000000000002),27,-7,13,no,m,6,m,0.789460899977712,1,10,test2,4,0.7898684999963734,-50.0
9,pjy,f,19,r,2,(172.20000000000002, 0.0),21,-5,12,yes,x,5,x,0.4980706999776885,1,11,test2,4,0.4981946999905631,-50.0
9,pjy,f,19,r,2,(172.20000000000002, 0.0),21,25,4,yes,x,5,x,0.44069829999352805,1,12,test2,4,0.4409237000218127,-20.0
9,pjy,f,19,r,2,(-172.20000000000002, 2.1088417881317425e-14),25,3,1,yes,x,5,x,0.5427405000082217,1,13,test2,4,0.5428400000091642,-42.0
9,pjy,f,19,r,2,(1.0544208940658713e-14, 172.20000000000002),23,-25,14,yes,x,5,x,0.4928307000081986,1,14,test2,4,0.4932427000021562,-70.0
9,pjy,f,19,r,2,(121.76378772032349, 121.76378772032349),22,3,1,yes,x,5,m,0.6296360999986064,0,15,test2,4,0.6299572999996599,-42.0
9,pjy,f,19,r,2,(-121.76378772032352, -121.76378772032348),26,3,1,yes,x,5,x,0.7186071999894921,1,16,test2,4,0.7187978999863844,-42.0
9,pjy,f,19,r,2,(121.76378772032349, 121.76378772032349),22,-7,13,yes,x,5,x,0.43858889999683015,1,17,test2,4,0.4389470999885816,-52.0
9,pjy,f,19,r,2,(-121.76378772032352, -121.76378772032348),26,-7,13,yes,x,5,x,0.5003903000033461,1,18,test2,4,0.5004924000240862,-52.0
9,pjy,f,19,r,2,(-121.76378772032352, -121.76378772032348),26,25,4,yes,x,5,x,0.3784757000103127,1,19,test2,4,0.3789354999898933,-20.0
9,pjy,f,19,r,2,(121.76378772032349, 121.76378772032349),22,-25,14,yes,x,5,x,0.4063717000244651,1,20,test2,4,0.4070087000145577,-70.0
9,pjy,f,19,r,2,(172.20000000000002, 0.0),21,-7,13,yes,x,5,x,0.4800472000206355,1,21,test2,4,0.48038350002025254,-52.0
9,pjy,f,19,r,2,(1.0544208940658713e-14, 172.20000000000002),23,-3,11,yes,x,5,x,0.5175722999847494,1,22,test2,4,0.517672699992545,-48.0
9,pjy,f,19,r,2,(-3.163262682197613e-14, -172.20000000000002),27,5,2,no,m,6,m,0.9358643000014126,1,23,test2,4,0.9361509000009391,-48.0
9,pjy,f,19,r,2,(-121.76378772032348, 121.76378772032349),24,-7,13,no,m,6,m,0.647742000001017,1,24,test2,4,0.6478419000050053,-48.0
9,pjy,f,19,r,2,(172.20000000000002, 0.0),21,-25,14,yes,x,5,x,0.4553324000153225,1,25,test2,4,0.45560699998168275,-70.0
9,pjy,f,19,r,2,(-121.76378772032348, 121.76378772032349),24,5,2,no,m,6,m,0.6145656000007875,1,26,test2,4,0.6146984999941196,-70.0
9,pjy,f,19,r,2,(-121.76378772032352, -121.76378772032348),26,5,2,yes,x,5,x,0.6095283000031486,1,27,test2,4,0.6097158000047784,-40.0
9,pjy,f,19,r,2,(-121.76378772032348, 121.76378772032349),24,-7,13,yes,x,5,x,0.4678137000009883,1,28,test2,4,0.46792830000049435,-52.0
9,pjy,f,19,r,2,(121.76378772032349, 121.76378772032349),22,25,4,yes,x,5,x,0.516372499987483,1,29,test2,4,0.5166770000068936,-20.0
9,pjy,f,19,r,2,(-3.163262682197613e-14, -172.20000000000002),27,5,2,yes,x,5,x,0.49093030000221916,1,30,test2,4,0.4912758000136819,-40.0
9,pjy,f,19,r,2,(-3.163262682197613e-14, -172.20000000000002),27,-5,12,yes,x,5,x,0.5212911000126041,1,31,test2,4,0.5214052999799605,-50.0
9,pjy,f,19,r,2,(-3.163262682197613e-14, -172.20000000000002),27,3,1,yes,x,5,x,0.6040021000080742,1,32,test2,4,0.6041186999937054,-42.0
9,pjy,f,19,r,2,(121.76378772032349, 121.76378772032349),22,-25,14,no,m,6,m,0.6509932999906596,1,33,test2,4,0.6510946000053082,-42.0
9,pjy,f,19,r,2,(172.20000000000002, 0.0),21,3,1,no,m,6,m,0.6716477999871131,1,34,test2,4,0.6717514999909326,-42.0
9,pjy,f,19,r,2,(-121.76378772032352, -121.76378772032348),26,-25,14,no,m,6,m,0.6545899999910034,1,35,test2,4,0.6549433000036515,-42.0
9,pjy,f,19,r,2,(121.76378772032349, 121.76378772032349),22,7,3,yes,x,5,x,0.4672994999855291,1,36,test2,4,0.46770290000131354,-38.0
9,pjy,f,19,r,2,(-121.76378772032348, 121.76378772032349),24,25,4,yes,x,5,x,0.4755559000186622,1,37,test2,4,0.4757205000205431,-20.0
9,pjy,f,19,r,2,(-121.76378772032348, 121.76378772032349),24,3,1,no,m,6,m,0.6446116000006441,1,38,test2,4,0.64472549999482,-20.0
9,pjy,f,19,r,2,(121.76378772032346, -121.76378772032352),28,-5,12,no,m,6,m,0.677942999987863,1,39,test2,4,0.6780698999937158,-20.0
9,pjy,f,19,r,2,(121.76378772032346, -121.76378772032352),28,3,1,yes,x,5,m,0.5940999999875203,0,40,test2,4,0.5943335999909323,-42.0
9,pjy,f,19,r,2,(172.20000000000002, 0.0),21,-5,12,no,m,6,m,0.699533800012432,1,41,test2,4,0.6998808000062127,-42.0
9,pjy,f,19,r,2,(172.20000000000002, 0.0),21,7,3,no,m,6,m,0.6971541000239085,1,42,test2,4,0.697319900005823,-42.0
9,pjy,f,19,r,2,(-121.76378772032348, 121.76378772032349),24,-3,11,yes,x,5,x,0.5857987999916077,1,43,test2,4,0.5858985000231769,-48.0
9,pjy,f,19,r,2,(1.0544208940658713e-14, 172.20000000000002),23,3,1,no,m,6,m,0.7624982999986969,1,44,test2,4,0.7628019000112545,-48.0
9,pjy,f,19,r,2,(121.76378772032349, 121.76378772032349),22,5,2,yes,x,5,x,0.5446636000124272,1,45,test2,4,0.5449426000122912,-40.0
9,pjy,f,19,r,2,(-3.163262682197613e-14, -172.20000000000002),27,-3,11,no,m,6,m,0.5836411000054795,1,46,test2,4,0.5841841000074055,-40.0
9,pjy,f,19,r,2,(-121.76378772032352, -121.76378772032348),26,7,3,no,m,6,m,0.5574225999880582,1,47,test2,4,0.5575507000030484,-40.0
9,pjy,f,19,r,2,(172.20000000000002, 0.0),21,25,4,no,m,6,m,0.6284640999801923,1,48,test2,4,0.6287848000065424,-40.0
9,pjy,f,19,r,2,(121.76378772032346, -121.76378772032352),28,-25,14,yes,x,5,x,0.5237286000046879,1,49,test2,4,0.5239959000027739,-70.0
9,pjy,f,19,r,2,(-121.76378772032348, 121.76378772032349),24,25,4,yes,x,5,x,0.43591649999143556,1,50,test2,4,0.43621339998207986,-20.0
9,pjy,f,19,r,2,(-172.20000000000002, 2.1088417881317425e-14),25,-25,14,yes,x,5,x,0.5149576000112575,1,51,test2,4,0.515155600005528,-70.0
9,pjy,f,19,r,2,(172.20000000000002, 0.0),21,-7,13,yes,x,5,x,0.5514007000019774,1,52,test2,4,0.5515248000156134,-52.0
9,pjy,f,19,r,2,(-121.76378772032352, -121.76378772032348),26,5,2,yes,x,5,x,0.5312379999959376,1,53,test2,4,0.5316810999938753,-40.0
9,pjy,f,19,r,2,(-121.76378772032348, 121.76378772032349),24,5,2,yes,x,5,x,0.5423590000136755,1,54,test2,4,0.5427514999755658,-40.0
9,pjy,f,19,r,2,(-121.76378772032352, -121.76378772032348),26,25,4,yes,x,5,x,0.5370512999943458,1,55,test2,4,0.53737160001765,-20.0
9,pjy,f,19,r,2,(-172.20000000000002, 2.1088417881317425e-14),25,-5,12,yes,x,5,x,0.49861260000034235,1,56,test2,4,0.49877120001474395,-50.0
9,pjy,f,19,r,2,(121.76378772032349, 121.76378772032349),22,-3,11,no,m,6,m,0.8372360999928787,1,57,test2,4,0.8375104000151623,-50.0
9,pjy,f,19,r,2,(-172.20000000000002, 2.1088417881317425e-14),25,7,3,yes,x,5,x,0.4587061000056565,1,58,test2,4,0.4588060000096448,-38.0
9,pjy,f,19,r,2,(1.0544208940658713e-14, 172.20000000000002),23,25,4,yes,x,5,x,0.470249000005424,1,59,test2,4,0.47037470000213943,-20.0
9,pjy,f,19,r,2,(121.76378772032346, -121.76378772032352),28,7,3,yes,x,5,x,0.5780510999902617,1,60,test2,4,0.5782121999945957,-38.0
9,pjy,f,19,r,2,(-121.76378772032352, -121.76378772032348),26,25,4,no,m,6,m,0.6027518000046257,1,61,test2,4,0.6028521999833174,-38.0
9,pjy,f,19,r,2,(-172.20000000000002, 2.1088417881317425e-14),25,-5,12,yes,x,5,x,0.5730076000036206,1,62,test2,4,0.5733868000097573,-50.0
9,pjy,f,19,r,2,(121.76378772032349, 121.76378772032349),22,-5,12,yes,x,5,x,0.5424785999930464,1,63,test2,4,0.5427650999918114,-50.0
9,pjy,f,19,r,2,(1.0544208940658713e-14, 172.20000000000002),23,3,1,yes,x,5,m,0.7324263000045903,0,64,test2,4,0.7325308999861591,-42.0
9,pjy,f,19,r,2,(-121.76378772032352, -121.76378772032348),26,-25,14,yes,x,5,x,0.43437079997966066,1,65,test2,4,0.43447129998821765,-70.0
9,pjy,f,19,r,2,(121.76378772032349, 121.76378772032349),22,-25,14,yes,x,5,x,0.45822110000881366,1,66,test2,4,0.45850169999175705,-70.0
9,pjy,f,19,r,2,(121.76378772032349, 121.76378772032349),22,25,4,no,m,6,m,0.7971478999825194,1,67,test2,4,0.7972694000054616,-70.0
9,pjy,f,19,r,2,(121.76378772032346, -121.76378772032352),28,5,2,yes,x,5,x,0.5884004000108689,1,68,test2,4,0.5886328000051435,-40.0
9,pjy,f,19,r,2,(121.76378772032346, -121.76378772032352),28,25,4,yes,x,5,x,0.4690812999906484,1,69,test2,4,0.46931049998966046,-20.0
9,pjy,f,19,r,2,(-121.76378772032352, -121.76378772032348),26,-7,13,yes,x,5,x,0.5154535000037868,1,70,test2,4,0.5156165999942459,-52.0
9,pjy,f,19,r,2,(-121.76378772032348, 121.76378772032349),24,7,3,yes,x,5,x,0.5992088000057265,1,71,test2,4,0.5994716999994125,-38.0
9,pjy,f,19,r,2,(172.20000000000002, 0.0),21,3,1,yes,x,5,x,0.7581743999908213,1,72,test2,4,0.7582696000172291,-42.0
9,pjy,f,19,r,2,(121.76378772032346, -121.76378772032352),28,-7,13,no,m,6,m,0.7537257999938447,1,73,test2,4,0.753885000012815,-42.0
9,pjy,f,19,r,2,(1.0544208940658713e-14, 172.20000000000002),23,-25,14,no,m,6,m,0.871644800005015,1,74,test2,4,0.8717438000021502,-42.0
9,pjy,f,19,r,2,(121.76378772032349, 121.76378772032349),22,7,3,no,m,6,m,0.6359297000162769,1,75,test2,4,0.6361508000118192,-42.0
9,pjy,f,19,r,2,(1.0544208940658713e-14, 172.20000000000002),23,-7,13,no,m,6,m,0.6964656000200193,1,76,test2,4,0.6966984999889974,-42.0
9,pjy,f,19,r,2,(121.76378772032349, 121.76378772032349),22,25,4,yes,x,5,x,0.4476334000064526,1,77,test2,4,0.4477375000133179,-20.0
9,pjy,f,19,r,2,(-3.163262682197613e-14, -172.20000000000002),27,-3,11,yes,x,5,m,0.659221499983687,0,78,test2,4,0.659376900002826,-48.0
9,pjy,f,19,r,2,(1.0544208940658713e-14, 172.20000000000002),23,-25,14,yes,x,5,x,0.5195115999958944,1,79,test2,4,0.5197895000164863,-70.0
9,pjy,f,19,r,2,(121.76378772032346, -121.76378772032352),28,-25,14,yes,x,5,x,0.4675281999807339,1,80,test2,4,0.4676642999984324,-70.0
9,pjy,f,19,r,2,(-172.20000000000002, 2.1088417881317425e-14),25,-3,11,no,m,6,m,0.7285479999845847,1,81,test2,4,0.7288627999951132,-70.0
9,pjy,f,19,r,2,(-3.163262682197613e-14, -172.20000000000002),27,-5,12,yes,x,5,x,0.5285565999802202,1,82,test2,4,0.5288587999821175,-50.0
9,pjy,f,19,r,2,(121.76378772032349, 121.76378772032349),22,-7,13,yes,x,5,x,0.5386291999893729,1,83,test2,4,0.5387338000000454,-52.0
